right_hand_timestamp,right_hand_index,right_hand_accel_x,right_hand_accel_y,right_hand_accel_z,right_hand_gyro_x,right_hand_gyro_y,right_hand_gyro_z,right_hand_battery_percentage,left_hand_timestamp,left_hand_index,left_hand_accel_x,left_hand_accel_y,left_hand_accel_z,left_hand_gyro_x,left_hand_gyro_y,left_hand_gyro_z,left_hand_battery_percentage,right_leg_timestamp,right_leg_index,right_leg_accel_x,right_leg_accel_y,right_leg_accel_z,right_leg_gyro_x,right_leg_gyro_y,right_leg_gyro_z,right_leg_battery_percentage
0.599,11,12.659,-3.0785,-2.4142,-1.4229,1.1083,0.7482,75,0.047,0,4.7507,5.5931,-10.2485,0.6914,-0.1931,-0.998,84,0.335,6,9.6718,0.4768,-11.6305,-0.0951,-0.7784,-0.073,75
0.65,12,11.3587,-2.9455,-3.6654,-0.3811,1.4913,1.0148,75,0.098,1,7.1617,9.409,-11.0144,0.5904,-0.3086,-1.4147,84,0.386,7,8.685,0.9108,-12.1221,-0.1021,-0.5974,-0.1343,75
0.702,13,3.9624,0.0589,-6.448,0.0532,1.7709,1.3412,75,0.15,2,10.1468,12.1939,-12.3202,-0.2295,-0.8979,-1.7189,84,0.438,8,10.846,2.0108,-13.178,-0.3438,0.1207,0.0211,75
0.754,14,0.6496,-0.2543,-8.5948,0.4916,0.6231,0.7089,75,0.202,3,12.3255,11.1547,-13.3189,-0.8475,-0.9014,-1.4875,84,0.49,9,13.1817,0.8144,-11.1451,-0.7195,0.5999,0.1028,75
0.806,15,0.7701,-1.1459,-9.9767,0.7398,-0.1081,0.0674,75,0.254,4,8.7027,2.8804,-14.024,-1.2601,-0.2587,-0.9803,84,0.542,10,6.7307,4.507,-16.1391,-1.2004,1.0007,0.5739,75
0.858,16,1.9311,-1.45,-10.1056,1.092,-0.5907,-0.1389,75,0.306,5,4.9157,0.8901,-14.0102,-0.248,0.3887,-0.0511,84,0.593,11,7.8804,3.1368,-17.1949,-1.2419,0.057,0.0043,75
0.909,17,3.2137,-1.624,-9.212,0.3876,-0.1144,0.2772,75,0.358,6,2.3351,1.6208,-14.302,-0.1444,0.2557,0.6281,84,0.645,12,5.239,1.7997,-12.1756,-0.7277,-0.2506,0.3043,75
0.961,18,6.7977,-5.2721,-4.1322,-0.1639,0.4294,0.8559,75,0.409,7,2.8548,2.9579,-14.3999,-0.0888,-0.486,1.0976,84,0.697,13,5.6817,1.64,-9.6398,-0.4412,-0.1078,0.8672,75
1.013,19,8.3546,-7.6683,-0.4247,-0.2484,0.8614,1.2504,75,0.461,8,2.026,3.8344,-13.5637,0.6037,0.1904,0.5462,84,0.749,14,5.3264,6.5489,-7.463,-0.9213,-0.0202,0.8577,75
1.065,20,10.3069,-8.2131,2.2812,0.4928,1.2552,1.5892,75,0.513,9,1.0307,5.3782,-11.1299,1.1033,0.0435,-0.0368,84,0.801,15,9.1532,-0.4574,-2.8628,-0.2516,-0.5623,1.0814,75
1.116,21,8.2697,-3.2433,-0.6381,0.9841,1.5772,1.6402,75,0.565,10,5.2442,8.8043,-9.2236,0.6418,-0.1367,0.3604,84,0.853,16,11.9461,5.0181,-7.0531,-0.6234,-0.4523,0.5062,75
1.168,22,4.04,-4.3637,-8.4622,0.5788,1.0017,1.0458,75,0.617,11,8.7474,11.7526,-12.956,0.7939,-0.4398,0.1016,84,0.905,17,13.9846,3.3292,-9.2604,-0.8786,-0.2492,0.5633,75
1.22,23,1.285,-2.9175,-11.2814,-0.0939,0.0617,0.2051,75,0.668,12,11.2357,10.9601,-13.5571,-0.1006,-0.8071,-0.3685,84,0.956,18,11.4343,2.1135,-9.6945,-0.6062,0.2684,0.3805,75
1.272,24,1.8898,-5.0956,-10.4506,-0.6746,-0.6243,-0.4361,75,0.72,13,3.8431,7.2642,-9.4636,-0.6318,0.09,-0.9332,84,1.008,19,8.355,-0.2204,-10.6393,0.2341,0.3092,-0.3888,75
1.324,25,2.8299,-3.758,-9.057,-0.1194,-1.125,-0.4746,75,0.772,14,0.512,3.6288,-10.3561,-0.6723,-0.607,-0.6518,84,1.06,20,6.6013,-0.9503,-7.0835,-0.5043,0.904,-0.5119,75
1.375,26,3.9807,-2.9424,-6.8071,-0.1787,-1.4794,-0.5727,75,0.824,15,0.4944,2.6036,-10.5998,-1.1338,-1.1157,-0.3145,84,1.112,21,5.9732,-1.94,-8.0562,-0.7995,1.3382,-0.1625,75
1.427,27,7.3698,-1.2294,-4.1051,-0.2433,-1.2214,-0.4877,75,0.876,16,1.5097,2.5876,-10.7463,-1.0504,-1.17,0.0262,84,1.163,22,5.2606,-2.8478,-11.4822,0.093,1.655,-0.1953,75
1.479,28,10.4364,-2.1839,-0.4049,-0.855,-0.3542,-0.6523,75,0.927,17,1.7076,1.7853,-10.8067,-0.5116,-0.5984,-0.0944,84,1.215,23,2.4041,-0.7872,-16.2487,0.7444,1.1121,-0.6347,75
1.531,29,12.6745,-6.7916,0.2548,-1.2289,0.0168,0.1983,75,0.979,18,1.5396,2.8473,-9.3842,0.2618,-0.5023,-0.6062,84,1.267,24,7.0204,-5.8116,-9.275,0.5936,0.4507,-0.4855,75
1.583,30,11.4909,-5.1228,-2.1798,-0.2225,0.5343,0.3162,75,1.031,19,6.0436,7.4049,-10.3194,0.5131,-0.9032,-0.103,84,1.319,25,9.1209,-2.7511,-11.8374,0.1168,-0.3444,-1.0172,75
1.634,31,6.9,-0.8431,-8.2913,-0.2579,0.1236,-0.2296,75,1.083,20,9.3308,10.7313,-10.1069,0.5232,-0.7441,-0.3026,84,1.371,26,11.9226,-1.874,-12.5115,-0.1423,-0.8453,-0.4934,75
1.686,32,3.0781,0.7847,-13.4126,-0.7135,-0.5791,-0.8427,75,1.135,21,8.4594,11.5559,-9.3122,-0.2982,-0.6423,-0.3226,84,1.422,27,13.1627,-3.1142,-9.5671,-0.7109,0.0614,-0.0313,75
1.738,33,5.0007,-0.3818,-13.8806,-1.1832,-1.092,-1.2902,75,1.186,22,0.504,12.5798,-10.454,-0.8976,0.2103,-0.5621,84,1.474,28,9.4043,-5.494,-14.9873,-1.194,0.4071,0.6549,75
1.79,34,7.733,-1.6854,-13.1068,-1.5409,-1.466,-1.6167,75,1.238,23,-2.3779,9.5013,-15.5694,-1.0466,-0.3502,-0.8287,84,1.526,29,7.963,-7.4195,-15.5686,-1.5467,-0.3698,1.1194,75
1.842,35,7.1039,-3.1057,-12.7334,-1.802,-1.4898,-1.6744,75,1.29,24,-1.7998,7.1219,-17.074,-0.9086,-0.9283,-0.8541,84,1.578,30,6.7816,-4.6592,-14.5461,-0.4523,-0.9433,1.4607,75
1.893,36,6.2023,-3.9539,-12.6637,-1.9926,-1.0282,-1.8971,75,1.342,25,0.8364,7.8127,-17.877,-0.0072,-1.3502,-0.8277,84,1.629,31,6.0486,0.1477,-11.2792,-1.0053,-1.3153,1.6485,75
1.945,37,9.5843,-4.067,-11.301,-0.7799,-1.4198,-2.0597,75,1.394,26,2.6942,7.2227,-16.5891,-0.6853,-0.7079,-1.2303,84,1.681,32,5.6438,0.7805,-7.2127,-0.2572,-1.5886,0.7192,75
1.997,38,12.0527,1.6267,-9.9243,-0.2186,-0.9202,-1.0032,75,1.445,27,6.6025,9.0297,-14.5222,-0.3143,-0.7301,-1.5843,84,1.733,33,5.9086,-4.6674,-2.6801,0.4888,-0.819,0.2432,75
2.049,39,13.8542,3.2548,-11.1022,0.3481,-0.1184,-0.0555,75,1.497,28,9.7387,10.9931,-12.7604,-0.8625,-1.0845,-1.8427,84,1.785,34,9.2562,-0.5021,-6.2181,-0.3185,-0.9068,-0.1086,75
2.101,40,8.8134,3.9406,-9.5107,0.9284,0.596,0.6361,75,1.549,29,9.7609,9.8889,-10.5402,-1.0783,-1.1105,-1.1752,84,1.837,35,9.2312,-3.0797,-8.1399,-0.0794,-0.097,-0.0193,75
2.153,41,5.3361,2.0287,-9.1783,1.352,-0.0669,0.9522,75,1.601,30,10.21,9.064,-9.6321,-1.467,-1.4807,-0.1923,84,1.888,36,10.8354,-4.2886,-8.4363,0.0914,0.4711,-0.3342,75
2.204,42,6.2492,1.2548,-8.4049,1.6611,0.1825,0.6993,75,1.653,31,8.7676,5.7118,-10.8287,-0.6461,-0.8057,0.525,84,1.94,37,7.749,-2.0234,-8.562,0.7433,0.6,-0.9179,75
2.256,43,3.475,2.3035,-7.7409,1.8776,0.8156,0.6894,75,1.705,32,6.6063,5.8649,-12.6641,0.2002,0.0911,0.9829,84,1.992,38,4.6189,0.0815,-6.677,-0.1246,1.1096,-0.9003,75
2.308,44,4.8267,1.3054,-7.0249,0.99,1.2777,0.6946,75,1.756,33,4.1437,5.5344,-13.4105,0.8178,0.5942,1.3633,84,2.044,39,4.7692,-0.2231,-9.8039,-0.3259,1.4799,-1.2364,75
2.36,45,8.5804,2.8741,-12.9812,0.1137,1.4597,1.111,75,1.808,34,3.1346,6.0174,-12.3719,1.2686,1.0978,1.3355,84,2.096,40,3.0652,-1.337,-13.5478,0.4387,1.2502,-1.5764,75
2.412,46,11.3199,-1.873,-11.8529,0.0127,1.38,1.2373,75,1.86,35,0.3812,8.3383,-11.3,1.5976,1.4803,1.0102,84,2.147,41,6.1906,-6.2129,-17.8927,0.6324,0.9394,-1.4098,75
2.463,47,11.7718,-0.7424,-11.2581,0.6836,1.4909,1.4541,75,1.912,36,5.1981,11.4125,-10.5427,1.7556,1.6435,0.5273,84,2.199,42,5.6221,-4.556,-20.0943,-0.2116,0.0122,-1.4026,75
2.515,48,5.6027,4.4132,-10.4943,0.5343,1.6779,1.737,75,1.964,37,8.7137,13.6562,-11.9605,1.7348,1.4418,0.0193,84,2.251,43,7.0506,-2.0377,-19.6789,0.077,-0.0335,-0.7521,75
2.567,49,1.1593,1.5049,-13.6144,-0.041,0.5553,1.0235,75,2.015,38,10.5582,13.9653,-13.631,0.5861,0.3796,0.6788,84,2.303,44,9.9087,-3.0486,-19.2562,-0.619,0.6539,0.056,75
2.619,50,1.9185,0.799,-13.4554,-0.0915,-0.1379,0.4961,75,2.067,39,6.6684,6.6895,-13.2211,-0.2523,0.2704,0.1556,84,2.355,45,7.7131,-2.0398,-22.0589,-0.127,0.9176,-0.4272,75
2.67,51,3.718,-1.3606,-12.4598,-0.2386,-0.6715,0.4739,75,2.119,40,-0.8032,4.8318,-15.7691,0.4876,0.5971,0.779,84,2.406,46,7.9302,-2.1144,-21.191,-0.084,-0.0037,-0.6547,75
2.722,52,3.9519,-1.1398,-10.4337,-0.108,-0.6112,0.7777,75,2.171,41,-0.3824,4.0603,-14.6911,0.5533,-0.2369,1.2339,84,2.458,47,8.4496,-5.6768,-15.6816,0.6152,-0.6761,-0.1688,75
2.774,53,5.5292,-2.604,-5.2671,-0.4003,-0.0531,1.1168,75,2.223,42,2.1483,3.3159,-13.6502,1.0755,-0.6781,1.3104,84,2.51,48,7.2169,-4.4857,-11.1781,0.4264,-0.5502,0.5546,75
2.826,54,9.0931,-7.0875,-1.5715,-0.9486,0.0013,1.4557,75,2.274,43,1.546,3.6243,-12.5665,1.4567,0.1842,0.5837,84,2.562,49,7.9855,-1.1346,-12.5419,-0.364,-0.4555,1.0825,75
2.878,55,9.3797,-6.5956,-0.7991,-0.2492,0.3548,1.2842,75,2.326,44,2.6708,3.7057,-10.9283,1.7349,-0.1769,0.1576,84,2.614,50,11.0273,-0.5458,-17.0525,0.0442,-0.6779,0.543,75
2.929,56,7.7925,-3.1818,-5.3028,0.1421,0.7112,0.6796,75,2.378,45,6.8691,6.3275,-13.9566,1.9379,-0.6371,0.695,84,2.665,51,13.314,2.7594,-17.2887,-0.1062,-0.9595,0.2688,75
2.981,57,1.2176,-0.5565,-8.9688,0.3258,0.0773,0.0512,75,2.43,46,9.9333,9.9449,-15.3716,2.0861,-0.0596,0.1652,84,2.717,52,14.9829,4.2298,-13.9436,-0.642,-0.49,0.3854,75
3.033,58,1.2245,-0.2047,-8.9484,0.1914,-0.6129,-0.6377,75,2.482,47,9.3803,9.8206,-15.171,0.8425,0.3491,0.0258,84,2.769,53,15.584,4.3466,-17.1429,0.1425,-0.5523,-0.1893,75
3.085,59,4.5599,-2.6692,-7.8777,-0.326,-0.849,-0.9555,75,2.533,48,2.9666,8.7252,-14.6376,0.1061,0.9339,-0.6239,84,2.821,54,14.6226,8.5242,-13.1032,-0.0418,-0.5169,-0.8122,75
3.137,60,3.3673,-2.8554,-6.928,-0.4621,-0.2262,-0.6648,75,2.585,49,0.7986,7.2647,-14.2064,-0.6026,0.0089,-0.6791,84,2.873,55,12.625,4.7398,-9.398,-0.7057,0.3011,-0.6991,75
3.188,61,3.3981,-2.1476,-4.8333,-0.4519,0.3081,-0.5086,75,2.637,50,0.4193,5.7037,-13.9678,-1.1097,-0.1983,-0.9632,84,2.924,56,10.4907,0.7264,-12.1937,-0.9592,0.8981,-0.2339,75
3.24,62,7.5377,-6.0951,-0.9364,-1.0072,-0.1243,0.1879,75,2.689,51,0.9116,4.6544,-13.3793,-0.8744,-0.6082,-1.3194,84,2.976,57,5.8862,0.4948,-16.1214,-0.0235,1.3338,-0.4561,75
3.292,63,10.5363,-7.2822,-1.0018,-1.334,0.5917,0.8138,75,2.741,52,2.516,4.4087,-11.8078,-0.5881,-0.9455,-1.6493,84,3.028,58,9.5618,-4.8759,-9.1821,0.6593,0.4095,0.0826,75
3.344,64,9.0162,-8.662,-2.6342,-0.2995,0.8382,1.2703,75,2.792,53,6.7561,7.4499,-10.3786,-0.0491,-1.0266,-1.8901,84,3.079,59,10.9552,1.7933,-9.2613,0.6889,0.3446,0.1029,75
3.395,65,6.0769,-3.1819,-8.7096,0.4558,0.6443,1.1398,75,2.844,54,9.8508,10.7641,-10.8699,0.4396,-0.6039,-1.875,84,3.132,60,10.6258,2.6934,-10.8996,0.5938,0.357,0.1842,75
3.447,66,2.5068,1.3425,-12.1145,0.4043,-0.1892,0.8491,75,2.896,55,10.7645,13.183,-12.3152,0.4487,-0.3128,-1.3948,84,3.183,61,13.0209,3.1442,-12.6366,-0.1778,0.3008,0.3267,75
3.499,67,1.2467,1.2181,-13.8872,0.395,-0.8074,-0.0554,75,2.948,56,5.9952,10.296,-11.22,-0.3525,0.396,-1.0062,84,3.235,62,7.9834,-0.7956,-13.9502,-0.672,0.4266,0.1342,75
3.551,68,4.1691,0.6322,-13.3675,0.3744,-1.2586,-0.7155,75,3.0,57,-1.2945,3.5598,-13.6257,0.0091,-0.0928,-0.2619,84,3.287,63,7.1274,-2.2101,-17.0635,-1.0471,-0.0329,0.7619,75
3.603,69,8.1004,1.0619,-10.1777,0.7629,-1.5879,-1.0238,75,3.052,58,-2.9506,2.3627,-13.7725,-0.1125,-0.3107,0.3567,84,3.339,64,6.4455,-2.2024,-16.5602,-0.6052,-0.5469,1.2338,75
3.655,70,6.6736,2.6353,-10.2322,-0.1206,-1.4115,-1.3231,75,3.104,59,-2.3991,2.5946,-14.1592,0.3566,-0.8995,0.6634,84,3.39,65,5.3299,0.6242,-14.7713,-0.475,-0.7959,1.5782,75
3.706,71,9.9283,1.0857,-10.0204,-0.7654,-1.5686,-1.306,75,3.155,60,-0.4618,5.1029,-13.1078,0.932,-1.2355,0.1106,84,3.442,66,6.001,4.7686,-11.6231,-0.844,-1.1985,1.6185,75
3.758,72,12.3037,-4.4054,-10.332,-0.3141,-1.3673,-1.2419,75,3.207,61,-2.5402,8.7042,-13.0558,1.352,-1.0799,-0.6057,84,3.494,67,4.6348,5.7213,-16.4879,0.0605,-1.3568,0.8462,75
3.81,73,11.9311,-2.1008,-9.6204,0.4451,-0.5016,-0.8233,75,3.259,62,3.0619,11.6796,-15.7918,0.942,-1.4608,-1.1284,84,3.546,68,8.6484,5.7391,-14.5703,-0.5527,-1.2476,0.351,75
3.862,74,4.377,1.2633,-8.6041,-0.0523,0.3164,-0.0828,75,3.311,63,5.1547,13.8511,-17.3491,0.0075,-1.7154,-0.9531,84,3.597,69,9.7813,2.9419,-13.4112,-0.1778,-0.2685,0.3572,75
3.914,75,2.3962,-2.3226,-8.7354,0.138,-0.4384,0.0898,75,3.363,64,4.5219,9.423,-15.0381,-0.6746,-1.1713,-0.1177,84,3.649,70,10.8148,4.4222,-12.8338,0.2359,0.3895,-0.1872,75
3.965,76,2.6801,-2.0362,-7.7777,0.7751,-0.4446,0.5471,75,3.414,65,1.6842,2.3692,-16.1141,-1.0634,-0.1881,0.3413,84,3.701,71,9.5746,7.4061,-15.334,0.8487,-0.0673,-0.8106,75
4.017,77,1.3944,-0.0422,-7.6348,0.7108,0.3531,1.0024,75,3.466,66,1.1058,1.7888,-15.3897,-1.1613,-0.7308,0.9145,84,3.753,72,8.0974,3.6404,-13.2897,-0.0204,-0.1142,-0.9526,75
4.069,78,1.733,0.1346,-6.9444,0.6985,0.2972,1.0258,75,3.518,67,3.8868,1.167,-13.6502,-0.2254,-1.0359,1.3328,84,3.805,73,6.4642,2.3223,-13.5395,-0.5498,0.0799,-1.3201,75
4.12,79,6.3224,5.2552,-6.0814,-0.0577,0.8227,0.1289,75,3.57,68,2.8821,3.2432,-10.9634,0.4077,-0.2301,1.2644,84,3.856,74,4.6596,2.7299,-12.7972,-0.9999,0.1475,-1.5863,75
4.172,80,9.672,1.0763,-6.8986,-0.3788,0.6812,0.1328,75,3.622,69,3.2627,3.0486,-8.2202,-0.2181,-0.02,1.3809,84,3.908,75,6.2443,-1.4933,-14.5033,-0.6198,-0.4554,-1.0635,75
4.224,81,10.493,-1.4448,-6.6768,0.3853,0.1322,-0.4276,75,3.673,70,6.0962,3.0794,-6.7081,0.1293,0.5813,1.6577,84,3.96,76,9.8231,-2.9124,-10.0824,-0.146,-0.8217,-0.735,75
4.276,82,3.4353,-1.1671,-4.1055,0.0862,0.7789,-0.1473,75,3.725,71,9.3692,7.5743,-11.5593,0.7661,-0.1571,1.8752,84,4.012,77,5.1653,2.6201,-10.9905,0.0775,0.0786,-0.2444,75
4.328,83,-0.1992,-1.9075,-3.3297,0.2292,-0.1008,-0.7055,75,3.777,72,11.7579,10.8549,-14.9272,1.2309,0.5006,1.913,84,4.064,78,9.0356,3.9179,-10.5172,-0.4279,0.7355,0.2175,75
4.379,84,1.989,-2.7294,-3.104,0.8416,-0.7428,-1.0424,75,3.829,73,7.5871,9.092,-14.3403,0.3483,0.9973,1.2798,84,4.115,79,7.8358,1.8375,-15.6808,-0.9875,0.5224,0.6333,75
4.431,85,1.5209,-2.1661,-4.4321,1.1945,-0.3459,-0.8997,75,3.881,74,-0.1326,7.1431,-18.406,-0.3902,0.3931,1.5994,84,4.167,80,6.0727,1.0191,-17.2745,-0.1515,-0.2921,0.1866,75
4.483,86,1.757,-2.5826,-4.2239,0.712,0.4202,-0.5036,75,3.933,75,-0.2372,5.0159,-16.9931,-0.9648,-0.3858,1.7552,84,4.219,81,5.5211,-1.9177,-13.397,0.5659,-0.8866,0.4184,75
4.535,87,6.3399,-6.7701,-2.1576,0.3408,-0.3533,0.308,75,3.984,76,1.5732,2.9387,-15.6133,-0.112,-0.9542,1.5627,84,4.271,82,3.9724,1.1829,-11.4574,1.0422,-0.7919,0.9211,75
4.586,88,9.2027,-10.1388,-5.4017,-0.2886,0.4192,0.9014,75,4.036,77,1.7793,2.2636,-13.2887,0.59,-0.0186,0.5254,84,4.323,83,6.1347,6.2153,-16.367,0.0854,-0.9239,1.2022,75
4.638,89,9.4593,-5.417,-8.533,0.4637,0.9871,1.2264,75,4.088,78,2.9359,3.2594,-10.8438,1.1023,-0.3802,0.5689,84,4.374,84,9.7431,0.3355,-15.8803,0.7308,-1.1894,1.1702,75
4.69,90,5.1523,1.4364,-10.7849,1.0128,0.3881,1.1195,75,4.14,79,7.0627,7.6084,-14.2923,0.1245,-0.9502,1.0805,84,4.426,85,11.7917,0.0061,-16.0286,0.4762,-0.7595,0.8255,75
4.742,91,0.6942,2.2327,-11.9868,0.0618,-0.1572,0.1785,75,4.192,80,10.0745,4.8056,-15.7376,-0.5892,-1.1818,1.0404,84,4.478,86,13.8718,1.5031,-13.829,0.4899,0.0809,0.5975,75
4.794,92,1.2634,-1.1135,-12.371,-0.453,-0.7568,-0.4814,75,4.243,81,8.1418,2.6777,-13.2221,-0.7217,-0.1834,0.073,84,4.53,87,13.6561,1.7914,-16.0508,0.9645,0.1483,-0.0993,75
4.845,93,3.2622,-2.5756,-11.3977,0.2856,-0.4984,-0.531,75,4.295,82,3.2715,-0.2091,-15.8117,-0.7474,0.5452,-0.6331,84,4.582,88,11.6853,3.1597,-11.1957,0.2292,0.4716,-0.5985,75
4.897,94,2.3689,-1.5577,-9.7209,0.7747,-0.368,-0.0781,75,4.347,83,2.4346,-0.2474,-15.5515,-0.7796,-0.2748,-0.0577,84,4.633,89,9.1481,2.1151,-9.9468,-0.5079,1.0226,-0.6168,75
4.949,95,1.2577,0.8591,-6.4468,0.7154,-0.3835,-0.2585,75,4.399,84,3.6891,-1.3018,-15.5581,0.1027,-0.5787,0.2179,84,4.685,90,7.2208,0.4809,-13.1127,-0.15,1.2962,-0.6073,75
5.001,96,5.9755,-4.5707,-4.3598,-0.1552,-0.9433,0.3142,75,4.451,85,1.8893,0.3281,-13.3782,0.7467,0.2567,-0.5062,84,4.737,91,6.7169,4.1904,-17.5751,0.5614,0.8361,-0.8927,75
5.053,97,8.8381,-8.5336,-2.7095,-0.7907,-0.006,0.906,75,4.502,86,0.9203,-0.3799,-10.7233,0.3382,-0.1807,-0.502,84,4.789,92,6.61,3.3695,-20.832,0.0921,1.0924,-0.8278,75
5.104,98,9.3571,-7.8229,-4.2325,0.0973,0.3004,1.1559,75,4.554,87,5.5915,0.2537,-11.4019,0.3827,-0.8045,0.299,84,4.84,93,7.4388,4.8465,-21.2427,-0.608,0.1239,-1.242,75
5.156,99,6.9304,-0.9828,-8.228,0.6961,0.6705,1.0577,75,4.606,88,9.0008,4.2618,-13.406,0.951,-0.0499,-0.4682,84,4.892,94,8.3904,5.0776,-19.7773,-0.7196,0.6755,-0.761,75
5.208,100,2.7562,1.6136,-10.6439,0.678,-0.1289,0.3322,75,4.658,89,11.4891,5.1141,-14.142,0.0141,-0.2547,-0.909,84,4.944,95,11.3894,4.8501,-14.4294,-0.6779,-0.0529,-0.4444,75
5.26,101,2.7906,1.8528,-10.8354,0.0993,-0.7634,-0.4326,75,4.71,90,6.0491,4.796,-12.7921,0.3114,0.4932,-1.0529,84,4.996,96,10.4886,-0.218,-16.938,-1.17,-0.1478,0.2877,75
5.312,102,3.6747,0.1303,-12.0873,-0.514,-0.8773,-0.9909,75,4.762,91,-0.6297,2.7075,-14.0097,0.2117,-0.2071,-0.8169,84,5.048,97,9.8072,-4.7027,-17.1761,-1.5291,-0.6166,0.8877,75
5.363,103,4.6809,0.2628,-10.993,-1.0525,-0.5125,-1.3591,75,4.813,92,-1.0267,3.5723,-12.6718,-0.0604,-0.7445,-0.4964,84,5.099,98,8.1194,-2.875,-16.6248,-0.5004,-1.1234,1.2687,75
5.415,104,6.1974,1.3115,-8.5653,-1.1163,-0.2041,-1.667,75,4.865,93,-1.1699,3.5943,-11.5925,-0.2385,-0.8713,-0.4457,84,5.151,99,7.3612,-0.245,-15.8755,0.2841,-1.4933,1.3955,75
5.467,105,9.5807,-1.1856,-7.9769,-1.4921,-0.8183,-1.8918,75,4.917,94,-0.8755,4.764,-10.9755,0.3131,-0.9953,-0.8551,84,5.203,100,5.4942,3.2994,-12.2474,0.1598,-1.7337,1.2594,75
5.519,106,12.05,-6.063,-7.1954,-1.7228,-0.0617,-1.2088,75,4.969,95,-0.0362,8.5061,-11.3033,0.9003,-1.3991,-1.3105,84,5.255,101,7.5961,7.7599,-16.9436,-0.3474,-1.618,0.7971,75
5.57,107,9.9618,-6.0192,-8.1221,-0.583,0.5206,-0.338,75,5.02,96,4.8935,11.535,-15.0209,0.2567,-1.6938,-1.6428,84,5.307,102,10.1843,7.4203,-16.2284,-0.9287,-1.2809,0.3496,75
5.622,108,2.1785,-2.4129,-8.8697,0.1366,1.0612,0.4283,75,5.072,97,8.4754,10.0162,-16.6569,0.1274,-1.1204,-1.5111,84,5.359,103,10.9273,5.2488,-14.5523,-0.7748,-0.2674,0.3532,75
5.674,109,0.3581,-2.4633,-8.7744,0.3421,0.1052,0.6955,75,5.124,98,7.2687,7.7143,-14.6198,-0.5871,-1.1723,-0.4375,84,5.41,104,11.0938,3.4477,-17.9808,0.111,-0.0137,-0.406,75
5.726,110,-0.3837,-2.0322,-9.4168,0.87,-0.5926,0.8688,75,5.176,99,4.5434,0.3772,-13.8516,-1.0904,-0.6933,0.3353,84,5.462,105,10.0854,5.3002,-16.5442,0.7567,-0.0824,-0.9703,75
5.778,111,-0.2892,-1.647,-9.8012,1.1706,-0.6676,1.0245,75,5.228,100,2.8216,0.4182,-12.5128,-0.4203,-0.597,0.9101,84,5.514,106,8.1761,3.8711,-13.9118,-0.123,0.3996,-0.6579,75
5.829,112,1.0747,-3.4523,-9.6448,1.5241,-1.1566,1.3571,75,5.279,101,4.3002,1.812,-10.9421,0.365,-0.1998,1.3249,84,5.566,107,6.3859,2.2159,-14.9895,-0.2631,0.3042,-0.8728,75
5.881,113,5.842,-5.3626,-10.068,1.7867,-1.1353,1.4355,75,5.331,102,2.4628,5.4222,-7.6186,0.8243,0.5332,0.329,84,5.618,108,3.9731,1.9664,-15.371,0.4845,0.134,-1.3036,75
5.933,114,9.3213,-9.1115,-4.757,0.6552,-0.4057,1.6184,75,5.383,103,3.9647,7.7944,-6.2989,0.4842,1.0683,-0.3181,84,5.669,109,8.1655,-3.8019,-8.6344,0.7546,-0.4158,-0.8449,75
5.985,115,11.4481,-8.0577,-4.7315,1.1229,0.3863,1.4482,75,5.435,104,6.1452,10.8203,-6.7759,1.0251,1.4587,-0.9185,84,5.721,110,7.8494,-3.6644,-12.0409,0.6217,-0.9769,-1.1918,75
6.037,116,9.6148,-3.738,-4.364,0.8423,0.6185,1.5376,75,5.487,105,9.4049,13.224,-8.9379,0.1812,1.2774,-0.4146,84,5.773,111,8.64,-2.3036,-13.8028,0.5288,-1.0545,-0.8714,75
6.088,117,1.9357,0.109,-7.8663,0.7022,1.1329,0.915,75,5.539,106,11.7132,11.7736,-12.8623,-0.5478,0.2596,0.3628,84,5.825,112,11.5716,1.9943,-12.7449,-0.0949,-0.7166,-0.1173,75
6.14,118,1.211,1.6754,-7.6612,1.0573,0.1575,0.1989,75,5.59,107,9.5715,7.1855,-11.2497,-1.0798,-0.4832,0.5345,84,5.876,113,11.085,-2.5717,-17.3066,-0.6781,-1.0015,0.5087,75
6.192,119,2.2018,-1.0676,-8.1726,0.1921,-0.0433,-0.2712,75,5.642,108,4.9254,3.6598,-10.6985,-0.2645,0.3264,0.3672,84,5.928,114,8.6691,-3.8778,-19.6484,-0.877,-1.4043,0.587,75
6.244,120,3.552,-2.2937,-6.8577,0.2649,0.4434,-0.0759,75,5.694,109,1.4257,3.856,-10.7548,0.4189,-0.373,0.8421,84,5.98,115,8.0864,-5.7045,-14.5686,0.0365,-1.6983,0.8386,75
6.295,121,3.8404,-4.317,-4.1679,-0.3545,0.8254,0.5859,75,5.746,110,1.6262,3.4676,-9.9544,0.9775,-0.9397,0.9658,84,6.032,116,6.1792,-4.1611,-11.2681,0.2929,-1.2952,1.2898,75
6.347,122,7.8605,-8.3485,-2.9922,-0.3875,0.9858,1.0725,75,5.798,111,2.4617,3.6064,-9.1852,1.3851,-0.0679,0.6197,84,6.084,117,6.1644,2.315,-15.2893,-0.4615,-0.7964,1.5574,75
6.399,123,9.1562,-11.2908,-3.9361,-0.1187,1.0867,1.4594,75,5.849,112,2.7912,4.0824,-8.5967,1.6827,0.4774,0.3902,84,6.135,118,9.7648,-3.5475,-15.2419,0.3397,-1.1871,1.2876,75
6.451,124,9.7713,-5.6256,-9.281,0.5877,0.4685,1.5466,75,5.901,113,6.957,8.3064,-11.7825,0.7146,-0.3242,0.9502,84,6.187,119,12.3828,2.4321,-16.0891,0.1558,-0.538,0.7976,75
6.503,125,5.4769,-0.3332,-11.6705,0.2146,0.2049,1.2232,75,5.953,114,9.9974,6.6845,-11.036,-0.1585,-0.9093,0.3828,84,6.239,120,14.3033,3.3762,-13.8087,-0.3773,0.0079,0.8877,75
6.555,126,5.0654,-0.3069,-11.6707,-0.3683,-0.5193,0.2176,75,6.005,115,8.641,5.879,-10.37,0.2485,-0.0206,-0.407,84,6.291,121,13.227,2.8136,-15.1738,0.2991,0.5075,0.1838,75
6.606,127,5.9264,-1.0465,-9.979,-0.5817,-0.9377,-0.3235,75,6.057,116,2.9182,3.4466,-9.9496,-0.2655,0.664,-0.9834,84,6.342,122,12.9136,7.4054,-12.5965,-0.2514,0.0617,-0.5399,75
6.658,128,4.9221,-0.6449,-8.3552,-0.9443,-0.4864,-0.4033,75,6.109,117,1.1387,2.5852,-9.8894,-0.4206,-0.188,-1.0116,84,6.394,123,9.3548,4.2658,-9.0533,-0.8587,0.7234,-0.4931,75
6.71,129,3.514,-0.0266,-7.1327,-0.9876,0.0355,-0.6913,75,6.16,118,1.8321,2.5844,-10.2563,-0.5316,-0.6974,-0.6897,84,6.446,124,7.6478,1.4038,-10.341,-0.6223,1.1863,-0.2628,75
6.762,130,7.6223,-3.708,-3.1259,-1.3659,-0.6434,-1.1797,75,6.212,119,1.5487,2.3517,-9.9607,-0.1216,0.0257,-1.0941,84,6.498,125,5.2942,0.9286,-13.0809,0.2224,1.4961,-0.7425,75
6.814,131,10.6207,-7.5944,-5.1731,-1.6743,0.2128,-0.6766,75,6.264,120,0.7541,2.4461,-9.4243,-0.242,-0.1393,-1.4602,84,6.55,126,9.1297,-4.5593,-6.963,0.7755,0.4319,-0.8677,75
6.865,132,10.1638,-8.3662,-5.991,-0.661,0.615,0.0471,75,6.316,121,5.4703,6.0201,-10.2623,-0.4038,-0.7447,-0.5646,84,6.602,127,11.3495,-6.0055,-9.1829,1.2425,-0.3582,-0.9626,75
6.917,133,4.454,-0.7339,-5.0681,-0.2154,1.1313,-0.2209,75,6.368,122,8.9123,9.7206,-13.8442,0.3737,-0.4847,-0.7565,84,6.653,128,13.1789,-4.2667,-10.5801,1.3054,0.1869,-0.4227,75
6.969,134,1.2953,-2.6256,-7.4442,0.5171,0.1563,-0.8343,75,6.419,123,9.4023,12.4214,-13.8654,-0.3093,-0.442,-0.8174,84,6.705,129,14.8843,-3.7806,-9.1189,0.3042,0.4866,-0.2626,75
7.021,135,1.5447,-0.3187,-9.1924,1.0518,-0.2655,-1.284,75,6.471,124,2.5828,6.836,-11.5045,-0.8987,0.3565,-1.2712,84,6.757,130,14.0639,-5.7147,-14.4577,-0.4532,0.3344,0.4811,75
7.073,136,3.5939,2.905,-7.4774,0.2365,-0.8631,-1.6123,75,6.523,125,-0.1054,5.4167,-10.8765,-0.3994,-0.405,-0.6751,84,6.809,131,11.1887,-7.0679,-15.3626,-1.006,-0.118,1.0289,75
7.124,137,6.7724,3.1205,-9.3517,-0.5048,-0.8494,-1.8518,75,6.575,126,-1.6845,4.7348,-12.6327,-0.4758,-0.9654,-0.4912,84,6.861,132,9.553,-5.2935,-16.1917,-0.0577,-0.7595,1.3147,75
7.176,138,9.6843,2.426,-8.9699,-0.7106,-0.3412,-1.8533,75,6.627,127,-3.0189,4.836,-15.511,-0.0234,-1.323,-0.6291,84,6.912,133,9.1635,1.4884,-13.6765,-0.266,-0.8942,1.5892,75
7.228,139,3.4435,7.1605,-3.9555,-0.792,0.0785,-1.6619,75,6.678,128,-2.9706,8.6098,-17.6623,0.285,-1.6383,-1.1389,84,6.964,134,5.671,4.2599,-12.2592,0.3669,-0.578,0.8054,75
7.28,140,6.9669,5.7134,-6.1675,-0.2426,0.1155,-1.1021,75,6.73,129,2.7518,11.6107,-18.7316,0.0448,-1.8684,-1.5176,84,7.016,135,9.4047,-2.128,-9.9495,0.9443,-0.0611,0.2517,75
7.332,141,2.3838,7.0295,-7.5156,0.1419,0.7667,-0.1543,75,6.782,130,6.5707,12.9828,-17.1021,0.0525,-1.4183,-1.794,84,7.068,136,12.1297,3.7988,-12.2715,0.3251,-0.0847,0.0315,75
7.383,142,-1.9178,2.9555,-7.6032,-0.2524,-0.0422,0.211,75,6.834,131,6.4542,12.0092,-15.2196,-0.4384,-0.7709,-0.6593,84,7.12,137,13.9558,1.0873,-11.0857,0.7656,0.3659,-0.1254,75
7.435,143,-1.1768,2.6678,-6.2063,0.4147,-0.7002,0.3471,75,6.886,132,5.0488,6.1812,-12.5736,-1.0,-1.0769,0.1842,84,7.171,138,10.2646,-1.86,-12.9532,1.2353,0.6075,-0.7656,75
7.487,144,0.2952,2.2176,-6.1858,0.7574,-0.6894,0.3218,75,6.937,133,6.039,1.6137,-11.2473,-0.447,-1.2834,0.7998,84,7.223,139,7.836,-1.215,-12.0678,0.2264,0.7149,-0.9079,75
7.539,145,5.2711,4.1998,-5.4639,-0.057,0.1793,0.4155,75,6.989,134,6.3789,2.3329,-10.4433,0.2876,-0.2576,1.2491,84,7.275,140,5.0875,-0.5412,-10.9475,-0.51,1.1889,-0.9789,75
7.59,146,8.9047,1.1947,-4.6839,-0.6233,0.8133,0.9799,75,7.041,135,7.3997,3.1076,-9.3783,0.8816,0.4816,1.577,84,7.327,141,3.931,-1.4643,-12.5756,0.0441,1.1692,-1.3531,75
7.642,147,11.5567,-1.165,-4.083,-1.062,1.276,1.3916,75,7.093,136,6.2713,7.563,-8.213,1.0765,1.0306,1.4299,84,7.378,142,3.3904,2.7957,-17.1831,0.7087,0.8894,-1.5009,75
7.694,148,8.8731,-3.2329,-3.8025,-1.0673,1.6043,1.6398,75,7.145,137,7.4849,9.3942,-8.8975,0.6152,1.4312,1.0528,84,7.43,143,7.7402,7.3924,-15.5796,0.7516,1.0527,-1.3812,75
7.746,149,3.6934,-1.4323,-6.3317,-0.6608,1.1497,1.2397,75,7.196,138,10.3827,11.6681,-13.5826,1.1207,1.7237,0.6085,84,7.482,144,9.0705,10.7472,-14.563,0.8937,1.1702,-0.7949,75
7.798,150,1.0978,-0.2042,-8.0225,-1.1577,0.1698,0.5986,75,7.248,139,8.8666,13.8427,-14.4949,0.7209,0.8293,1.0299,84,7.534,145,11.8858,9.3828,-12.6245,-0.023,1.2788,0.0054,75
7.849,151,-0.1325,-0.5142,-7.7267,-0.6555,-0.5454,0.3178,75,7.3,140,8.0177,9.3051,-14.9796,-0.1539,-0.0674,1.3798,84,7.586,146,9.2689,5.5985,-17.2188,-0.4302,0.2599,0.0448,75
7.901,152,0.9506,-2.0441,-6.4469,-0.2719,-0.9614,0.3686,75,7.352,141,3.5284,6.9049,-12.396,0.5594,0.6299,0.7785,84,7.637,147,8.1482,1.6556,-18.6775,0.0934,-0.4837,0.0384,75
7.953,153,1.79,-3.0568,-4.92,0.2893,-0.4005,0.8713,75,7.404,142,2.0131,5.8447,-11.064,0.097,-0.1794,0.5435,84,7.689,148,6.3643,0.4243,-13.5083,0.7447,-0.9447,0.4773,75
8.005,154,2.5717,-6.9959,-1.9747,-0.1652,0.2736,1.3125,75,7.456,143,2.9196,3.8122,-10.2725,0.643,-0.247,0.3581,84,7.741,149,6.4841,0.8172,-10.1021,0.765,-0.4835,1.0261,75
8.057,155,5.654,-10.3036,-1.0654,0.5006,0.3956,1.6346,75,7.508,144,4.4243,3.7467,-9.9488,1.141,0.4593,-0.4207,84,7.793,150,8.4652,5.9483,-14.3288,-0.1169,-0.1565,1.4266,75
8.108,156,5.9873,-11.4349,-0.7358,1.0397,0.8627,1.7803,75,7.559,145,4.641,4.7214,-8.2022,1.5045,0.6237,-0.9934,84,7.845,151,10.769,4.7965,-15.8034,0.5203,-0.7097,0.6893,75
8.16,157,4.8748,-6.6886,-2.2731,1.4332,0.6343,1.6291,75,7.611,146,8.3071,8.7727,-12.6713,1.7698,-0.0844,-0.9143,84,7.896,152,13.1254,8.8526,-16.8981,0.1047,-0.5312,-0.0939,75
8.212,158,3.4232,-3.1284,-5.5672,0.9818,0.62,0.9369,75,7.663,147,7.9838,11.7296,-15.5013,0.9946,-0.4101,-0.9378,84,7.948,153,13.6227,8.2176,-14.1429,-0.2776,0.1679,0.1788,75
8.264,159,3.3049,-2.4132,-7.8326,0.3775,0.6831,0.0994,75,7.715,148,6.9836,6.4185,-15.5407,0.0459,-0.9492,-1.124,84,8.0,154,10.8076,4.2786,-16.365,0.4739,0.6029,-0.4234,75
8.316,160,2.5007,-4.0903,-8.3849,0.308,0.7798,-0.5969,75,7.767,149,2.0807,-0.5763,-13.7369,0.6761,-0.0137,-1.5067,84,8.052,155,9.0035,6.4264,-14.086,0.0086,0.7143,-0.9301,75
8.367,161,3.1937,-5.3458,-8.2779,0.776,0.3807,-1.1106,75,7.819,150,-1.6821,0.5063,-13.2166,0.6517,-0.6827,-1.0792,84,8.104,156,7.2419,4.3147,-11.2235,-0.669,1.1954,-0.7227,75
8.419,162,2.8201,-4.8548,-3.9194,1.2407,0.9589,-0.9842,75,7.87,151,-1.3542,0.2007,-12.9482,0.0417,-1.1709,-1.038,84,8.156,157,5.7452,2.433,-11.7806,-1.1635,1.4207,-0.3087,75
8.471,163,-1.8523,-6.0957,-2.1796,1.5799,1.3822,-1.3314,75,7.922,152,-1.0138,2.9141,-13.4882,0.3779,-1.4098,-1.4439,84,8.207,158,4.4509,1.5407,-14.218,-0.1726,1.6922,-0.8005,75
8.522,164,-6.8842,-0.1807,-3.8413,1.7149,1.6912,-1.6468,75,7.974,153,4.18,5.9525,-14.1675,-0.4035,-0.7854,-1.7402,84,8.259,159,5.7801,-1.7704,-18.3351,0.5506,0.7135,-0.878,75
8.574,165,-8.3637,-1.5334,-8.1346,0.5742,0.5988,-1.8724,75,8.026,154,2.6858,5.9606,-11.1987,0.3642,0.1059,-1.9565,84,8.311,160,9.4843,4.0598,-12.0987,-0.268,0.5709,-1.1809,75
8.626,166,-4.3654,-0.1143,-11.5,1.0935,-0.2323,-1.6537,75,8.078,155,-2.9379,9.6771,-12.6658,0.9375,0.4235,-0.7625,84,8.363,161,12.1521,8.2487,-10.7249,0.1008,0.8232,-0.6881,75
8.678,167,0.8764,-0.9311,-10.3058,0.1209,-0.35,-1.012,75,8.129,156,-6.0188,12.3879,-13.971,0.0042,0.9332,-0.1611,84,8.415,162,10.2935,3.405,-12.5852,-0.6017,0.9033,-0.4173,75
8.73,168,0.4474,-2.2689,-9.4698,-0.0816,-0.2773,-0.8306,75,8.181,157,-10.0628,3.7804,-15.5716,-0.6769,0.9707,-0.5333,84,8.466,163,8.0222,-2.1304,-12.3204,-1.1143,0.6462,0.3731,75
8.781,169,0.3367,-1.6112,-8.0586,-0.737,0.1802,-0.5523,75,8.233,158,-8.6397,1.6431,-12.71,-0.515,0.2411,0.0746,84,8.518,164,8.6352,-2.8503,-11.879,-0.7089,0.4314,0.9501,75
8.833,170,1.2394,-4.024,-4.7426,-0.4379,0.6491,-0.3822,75,8.285,159,-6.7888,2.6108,-13.2267,-0.1482,-0.3414,0.7166,84,8.57,165,8.1358,0.7561,-12.09,0.0058,0.1856,1.3711,75
8.885,171,0.5277,-3.5661,-0.8702,0.3548,0.9475,-0.2079,75,8.337,160,-2.008,7.2323,-13.2502,0.1505,-0.9155,0.0525,84,8.622,166,6.1459,5.9037,-11.7686,-0.6076,-0.2927,1.6732,75
8.937,172,2.3758,-7.8004,1.956,0.4355,1.3739,-0.8269,75,8.388,161,-1.3481,7.5784,-12.4686,-0.5702,-0.5903,-0.6481,84,8.673,167,6.3003,0.3383,-10.9231,0.2331,-0.5852,0.8212,75
8.989,173,0.7695,-9.1115,-1.2013,-0.1234,1.6852,-0.4433,75,8.44,162,-1.0481,10.8579,-10.7023,0.2556,-0.5648,-1.1594,84,8.725,168,9.864,5.0467,-12.112,-0.3883,-0.9379,0.1816,75
9.04,174,-0.973,-5.2674,-8.4781,0.5843,0.6869,-0.4121,75,8.492,163,-3.4554,13.2514,-12.6132,0.5952,-0.5928,-1.0004,84,8.777,169,12.4649,3.9434,-12.6988,-0.2109,-0.3426,0.1009,75
9.092,175,-1.2689,-3.3123,-9.4361,0.1384,-0.168,-0.1321,75,8.544,164,-0.1087,11.6625,-12.5529,-0.2456,-1.1053,-0.092,84,8.829,170,13.6091,4.0939,-9.6879,0.2924,0.4282,-0.2243,75
9.144,176,-1.4309,-4.9257,-9.389,-0.5113,-0.2837,-0.0243,75,8.596,165,4.8406,3.7357,-12.3777,-0.3281,-0.9973,0.5825,84,8.881,171,9.2583,5.0881,-13.575,0.8899,0.5776,-0.8377,75
9.196,177,-0.9108,-4.3105,-8.9173,-1.0141,-0.008,0.3954,75,8.647,166,3.8309,0.6145,-12.246,0.2904,-0.0488,1.0905,84,8.933,172,7.2698,4.984,-11.9576,0.3736,0.3408,-1.0305,75
9.248,178,-0.6913,-3.3189,-8.9824,-1.0962,0.2284,0.6785,75,8.699,167,4.3347,2.3602,-13.8545,0.8836,0.4664,1.4613,84,8.984,173,5.4221,3.0257,-11.5227,-0.4025,0.509,-1.0521,75
9.299,179,-1.3514,-0.3664,-7.4738,-1.2855,0.1974,0.5696,75,8.751,168,3.1029,4.2282,-16.4551,1.3167,1.0194,1.7314,84,9.036,174,4.2529,2.945,-11.739,-0.2213,0.4156,-1.2877,75
9.351,180,2.9334,-5.4651,-2.8636,-1.6156,-0.5253,-0.2594,75,8.803,169,0.8443,5.1031,-17.7262,1.6327,1.4231,1.1983,84,9.088,175,5.7274,2.7154,-16.5725,0.5133,-0.0718,-1.0441,75
9.403,181,2.9945,-9.1864,0.5012,-0.5047,0.1195,-0.2236,75,8.855,170,-0.9327,6.045,-14.4775,1.8633,1.1695,0.8966,84,9.14,176,9.4458,7.3337,-11.9169,-0.2881,-0.6442,-1.2958,75
9.455,182,-2.0604,-1.3147,0.2876,-0.7232,-0.392,0.0436,75,8.907,171,4.2392,9.7388,-18.5061,2.0317,0.6125,0.3243,84,9.191,177,10.3539,7.6066,-14.3167,-0.8855,-0.8306,-1.0406,75
9.507,183,-1.6936,-4.558,-4.4279,-1.0286,-0.4059,-0.3414,75,8.958,172,5.2899,12.4347,-17.3655,1.043,0.6339,0.2063,84,9.243,178,12.8225,7.791,-13.2757,-1.3158,0.0718,-0.2377,75
9.558,184,-3.7041,-0.5011,-7.4043,-0.0763,-0.9573,-0.2684,75,9.01,173,3.5173,8.8207,-18.7764,0.0812,-0.21,0.379,84,9.295,179,9.0383,0.4492,-17.6941,-1.6355,0.3455,-0.0541,75
9.61,185,-2.7315,-1.7178,-8.2169,-0.1681,-1.1011,-0.6118,75,9.062,174,2.0911,2.7572,-16.9525,-0.1374,-0.7018,0.1758,84,9.347,180,5.9836,-1.9574,-19.0343,-1.7659,-0.4177,0.025,75
9.662,186,-2.0837,-2.2766,-8.0881,-0.3992,-1.3858,-0.6187,75,9.114,175,0.5736,-0.1826,-17.0975,0.4526,-0.7753,0.6108,84,9.399,181,7.1326,-2.8333,-18.1521,-0.6123,-0.9783,-0.1079,75
9.714,187,-0.2498,-6.0727,-6.2204,-0.948,-0.946,0.1387,75,9.166,176,0.2788,0.0071,-15.6264,1.0021,-0.4794,0.6384,84,9.451,182,3.2646,0.4365,-12.8171,0.2297,-0.6671,0.5106,75
9.766,188,2.0906,-9.6298,-3.4142,-1.3693,-0.9663,0.7779,75,9.217,177,-1.7012,1.5854,-12.9177,1.4031,-0.8481,0.3984,84,9.502,183,4.8495,2.8748,-11.055,-0.2711,-0.1561,0.9637,75
9.817,189,6.0257,-12.226,-2.0325,-0.6635,-1.1856,1.2444,75,9.269,178,-1.7316,2.8421,-11.3075,1.4654,-0.6178,-0.2833,84,9.554,184,5.7763,7.4501,-11.5491,-0.4726,-0.013,0.795,75
9.869,190,4.3011,-7.7856,-5.0237,0.1901,-1.5228,1.1086,75,9.321,179,3.4648,7.4012,-16.1926,1.0334,0.2221,-0.8932,84,9.606,185,7.4288,2.5317,-12.5611,-0.2801,-0.3617,0.5817,75
9.921,191,3.2646,-0.3285,-8.2298,0.8131,-1.7406,0.8674,75,9.373,180,7.4486,10.0556,-19.7579,1.426,0.7252,-1.3383,84,9.658,186,10.6876,0.7802,-12.2506,-0.5957,0.1596,0.4261,75
9.973,192,1.3843,-0.0607,-9.5806,0.3559,-1.922,-0.042,75,9.425,181,5.7539,10.4252,-19.4462,0.3607,0.547,-0.3113,84,9.709,187,9.0064,3.4964,-11.3397,-0.2312,0.7655,0.3883,75
10.025,193,3.6329,-2.1287,-8.2235,-0.3941,-1.9549,-0.5875,75,9.476,182,0.8529,2.3479,-17.4386,-0.0812,1.0783,-0.3972,84,9.761,188,7.6638,5.5572,-10.0687,0.5078,0.4808,-0.3906,75
10.076,194,2.4235,-2.3303,-8.0895,-0.5157,-0.9618,-0.5835,75,9.528,183,-0.5758,3.9717,-14.4195,0.4713,1.0771,0.1025,84,9.813,189,6.0111,7.6596,-6.2208,-0.2146,0.8292,-0.6534,75
10.128,195,1.7955,-2.7028,-6.5989,-0.9344,-0.6624,-0.5098,75,9.58,184,-0.3653,1.8558,-15.3009,-0.3361,0.1905,0.7348,84,9.865,190,4.9867,4.6038,-5.3827,-0.8318,1.2835,-0.3911,75
10.18,196,2.736,-5.3946,-2.2251,-1.1951,-1.0524,-0.5802,75,9.632,185,0.9143,2.0421,-14.5197,-0.0509,0.0646,0.6517,84,9.917,191,4.5053,4.2706,-8.3711,-0.5676,1.6126,-0.4951,75
10.232,197,7.0545,-9.1349,-2.5035,-1.5496,-0.4286,0.093,75,9.684,186,-0.5195,2.2001,-12.3827,0.1973,0.3697,0.2455,84,9.968,192,3.6171,7.7915,-14.1145,0.2434,0.5645,-1.0239,75
10.284,198,5.4357,-10.8198,-3.1976,-0.662,-0.3487,0.3209,75,9.735,187,2.3003,3.372,-12.6405,-0.2651,-0.4029,0.8217,84,10.02,193,7.9057,11.0385,-10.6104,-0.1728,0.0765,-0.4084,75
10.335,199,1.1317,-2.9679,-5.2715,0.1912,0.4279,0.2128,75,9.787,188,6.5988,5.23,-17.1654,0.4783,0.2479,-0.0334,84,10.072,194,9.7198,10.2671,-11.7047,-0.4313,0.4803,-0.2897,75
10.387,200,-1.1456,-3.1735,-9.1913,-0.5223,-0.357,-0.5198,75,9.839,189,9.736,9.1439,-19.2539,0.6636,-0.088,-0.0608,84,10.124,195,12.3597,10.4702,-8.2137,-0.9132,0.7311,0.0289,75
10.439,201,-2.3145,-1.2142,-8.3115,0.2787,-0.8386,-1.043,75,9.891,190,5.0063,8.7706,-15.964,-0.1957,0.6038,-0.7011,84,10.176,196,10.171,3.1743,-13.9996,-1.3417,0.0972,0.6988,75
10.491,202,1.8175,-5.3321,-6.1051,0.4793,-1.158,-1.2109,75,9.943,191,-2.0162,5.3369,-15.1213,-0.3339,0.3455,-0.8296,84,10.227,197,8.3593,-1.777,-14.6563,-1.6544,-0.1788,1.1732,75
10.542,203,3.8252,-3.1319,-4.3187,0.8065,-0.1628,-0.7296,75,9.994,192,-2.8351,4.7466,-13.6733,-0.9237,-0.2326,-0.441,84,10.279,198,6.5555,-1.8197,-13.9003,-0.6019,-0.646,1.4914,75
10.594,204,6.3986,-3.2712,-2.4727,-0.0888,0.5636,-0.0929,75,10.046,193,-3.141,4.4592,-14.2899,-1.3542,-0.8424,-0.4449,84,10.331,199,5.5798,0.9249,-13.2301,0.0661,-0.9654,1.5298,75
10.646,205,9.1626,-7.5852,-3.2251,-0.7422,1.0182,0.0353,75,10.098,194,-2.9298,6.8947,-16.0996,-1.6159,-1.2875,-0.9795,84,10.383,200,9.3381,6.027,-7.0718,-0.3248,-1.1603,1.477,75
10.698,206,7.4802,-10.1189,-6.0504,0.1327,0.7723,-0.1639,75,10.15,195,-0.1571,10.3589,-19.69,-0.6223,-1.6124,-1.4013,84,10.434,201,9.8997,-0.8383,-8.4052,0.3527,-0.9632,0.6427,75
10.75,207,-0.0729,-1.9953,-10.7837,0.7712,1.1339,0.557,75,10.202,196,4.8052,11.9929,-21.6973,-0.4051,-1.8087,-1.6568,84,10.486,202,12.491,4.7401,-10.1262,-0.0041,-0.4521,0.3584,75
10.801,208,-2.5647,-1.8925,-11.6525,0.3771,0.3801,-0.1133,75,10.254,197,6.2388,14.0798,-18.899,-0.8772,-1.9923,-0.5491,84,10.538,203,11.721,2.8967,-8.9008,0.5913,0.3324,-0.0562,75
10.853,209,-1.433,-3.1042,-10.7941,0.2381,-0.3919,-0.5236,75,10.306,198,4.2201,5.0153,-16.1775,-1.3202,-1.4131,-0.0153,84,10.59,204,8.1292,1.2588,-9.9899,1.1081,0.4716,-0.6111,75
10.905,210,1.4355,-5.6675,-10.0526,0.8082,-0.5867,-0.0808,75,10.358,199,3.3829,3.5171,-14.5697,-0.2918,-0.3813,0.6481,84,10.642,205,6.1185,1.5643,-9.5506,0.1335,0.4029,-0.5229,75
10.957,211,1.5381,-4.1802,-8.5936,0.9439,-0.2397,0.606,75,10.409,200,2.385,4.6278,-14.1143,0.3119,0.4008,1.0086,84,10.693,206,3.1691,2.1739,-8.6547,-0.5778,0.9724,-0.6749,75
11.009,212,3.9139,-5.479,-5.4926,0.5539,0.0065,0.8993,75,10.461,201,1.6735,4.1105,-13.4751,0.6555,0.9236,1.0163,84,10.745,207,3.2851,1.8844,-9.3277,-0.0772,1.379,-0.8629,75
11.06,213,7.9142,-9.1965,-2.9075,-0.2731,0.094,1.3308,75,10.513,202,1.4291,5.0188,-12.4747,1.01,1.3532,0.652,84,10.797,208,2.4324,6.7272,-14.8127,-0.3893,1.3393,-0.9555,75
11.112,214,7.9818,-11.9097,-1.4072,0.3198,-0.0191,1.2161,75,10.565,203,1.4862,5.0284,-10.6947,1.1387,1.6667,0.3912,84,10.849,209,7.041,10.2617,-11.2656,-0.6214,0.4519,-0.8093,75
11.164,215,3.9874,-6.4572,-3.7749,0.9077,0.6685,0.8128,75,10.617,204,6.0045,8.4412,-15.7453,1.5028,0.545,0.9509,84,10.901,210,5.6269,9.8719,-10.0174,-0.6481,0.7121,-0.3597,75
11.216,216,-0.325,-1.9892,-7.927,-0.0149,-0.1814,-0.0819,75,10.668,205,9.3023,11.4876,-18.8144,0.7197,0.0374,1.3594,84,10.953,211,9.3725,10.4582,-11.6371,-0.8735,1.0916,-0.0975,75
11.268,217,-3.6857,-1.4048,-10.3465,0.5795,-0.4356,-0.6018,75,10.72,206,7.3914,8.1353,-17.4395,-0.1548,-0.4149,1.5011,84,11.005,212,6.1904,7.2989,-10.2352,-1.0341,1.475,-0.0125,75
11.319,218,-2.3087,-1.5131,-9.6624,0.0784,-0.9873,-0.9947,75,10.772,207,3.1039,6.4998,-13.3868,0.5588,0.3094,0.429,84,11.056,213,2.4364,6.0387,-15.475,-0.3725,1.4676,0.1196,75
11.371,219,0.8743,-5.4387,-8.1646,0.5567,-0.9725,-0.4265,75,10.824,208,-2.1352,3.0448,-13.7423,-0.0369,0.7258,-0.0668,84,11.108,214,1.8847,2.0567,-16.9788,-0.0258,0.3977,0.0772,75
11.423,220,2.6681,-5.0033,-4.6059,0.8141,-0.4662,0.2712,75,10.876,209,-1.8533,2.5339,-12.9097,0.6388,0.0151,0.0456,84,11.16,215,2.5877,1.6699,-12.8643,0.2427,-0.3391,0.4444,75
11.475,221,7.0049,-8.8493,-2.8012,-0.0832,0.233,0.8746,75,10.927,210,-0.7077,2.9934,-11.7386,1.138,-0.0143,-0.4038,84,11.212,216,2.4168,1.8299,-10.1358,0.4816,-0.5178,0.7354,75
11.527,222,7.1335,-10.9134,-3.9504,0.0822,0.3743,0.7738,75,10.979,211,3.9584,4.6256,-10.1008,0.4896,-0.6831,-0.7485,84,11.263,217,7.0296,5.3107,-4.8135,1.0229,-1.0261,0.5629,75
11.578,223,5.4095,-7.2859,-6.0799,0.7344,0.1702,0.5454,75,11.031,212,7.8089,5.8134,-15.1115,0.8022,-0.9648,-0.3949,84,11.315,218,10.3963,4.49,-8.1908,0.5328,-1.0616,-0.1636,75
11.63,224,3.7654,-0.5836,-8.1388,0.8268,-0.2529,0.021,75,11.083,213,10.6192,9.0259,-18.9688,1.2572,-0.466,-0.5471,84,11.367,219,12.8534,6.1721,-8.6272,-0.2366,-0.4174,-0.0566,75
11.682,225,1.5933,-0.3122,-9.0191,-0.0739,-0.3769,-0.6598,75,11.135,214,7.8462,9.7142,-17.1582,0.2376,0.1831,-0.4016,84,11.419,220,12.3288,3.1561,-11.2743,0.4219,-0.0899,-0.5781,75
11.734,226,1.5616,-2.186,-9.1112,-0.7043,-0.5844,-1.1567,75,11.186,215,0.0565,3.2052,-20.1984,-0.4404,-0.2011,-0.3244,84,11.471,221,9.092,4.3227,-10.9287,0.9845,0.1485,-1.096,75
11.785,227,0.9438,-3.5923,-8.409,-0.3171,0.1311,-0.9228,75,11.238,216,-1.0782,5.0081,-18.2336,-0.1552,-0.2635,-0.1321,84,11.522,222,5.7681,3.8458,-10.4381,0.0433,0.477,-0.8222,75
11.837,228,-1.371,-2.1537,-7.6013,-0.2742,0.7781,-0.6393,75,11.29,217,-0.2436,5.014,-16.7887,-0.3626,-0.865,-0.3172,84,11.574,223,4.4899,2.2936,-10.177,-0.6436,0.9788,-0.6445,75
11.889,229,1.7318,-5.6753,-3.3723,-0.8775,-0.0276,-1.1305,75,11.342,218,1.4886,6.1052,-14.7897,-0.4517,-1.1496,-0.9179,84,11.626,224,3.7672,0.8434,-10.4171,-0.0699,1.012,-0.5642,75
11.941,230,6.3215,-9.3398,-3.5726,-1.3178,0.5411,-0.9235,75,11.394,219,1.9702,6.5052,-13.4404,-1.0003,-1.1456,-1.3563,84,11.678,225,8.0152,-4.6215,-5.0188,-0.3861,0.0699,-0.072,75
11.993,231,3.5971,-11.497,-4.1111,-0.9189,-0.1857,-0.8685,75,11.446,220,6.3578,10.0747,-15.9624,-0.3572,-1.4114,-1.6762,84,11.73,226,10.5795,1.9789,-8.3361,0.0573,-0.2606,-0.2282,75
12.044,232,-1.154,-5.6203,-5.6555,0.0037,0.5461,-0.7704,75,11.497,221,6.7268,12.6798,-16.8799,-0.7005,-0.831,-1.2175,84,11.781,227,12.9871,6.7962,-8.8254,0.3961,0.2151,0.0372,75
12.096,233,-3.2345,-2.9558,-6.3245,0.436,-0.1277,-0.6634,75,11.549,222,4.4076,10.539,-16.0939,-1.1913,-1.2654,-0.3088,84,11.833,228,9.7425,4.0854,-10.3521,-0.3705,0.7664,-0.0225,75
12.148,234,-2.5133,-2.7821,-7.1149,0.4169,-0.4546,-1.0717,75,11.601,223,-1.3619,4.402,-12.8458,-0.8659,-0.2577,-0.3983,84,11.885,229,6.4355,1.6723,-13.0782,-0.5028,0.9827,0.3115,75
12.2,235,0.0011,-3.481,-5.0932,0.8206,-0.7511,-1.086,75,11.653,224,-3.9089,1.7152,-12.1744,-0.0483,-0.5261,0.349,84,11.937,230,6.9574,-0.1956,-12.5746,0.3096,0.533,0.7996,75
12.252,236,5.0584,-4.9236,-5.0614,-0.0785,-0.0005,-0.116,75,11.705,225,-4.2507,0.4236,-11.8034,-0.1747,-0.5639,0.7593,84,11.988,231,6.0727,-1.2517,-13.2015,0.9025,0.5117,1.244,75
12.303,237,8.7495,-8.7912,-5.6642,-0.7328,0.654,0.592,75,11.756,226,-3.603,1.9011,-11.9427,0.5418,-1.0167,1.2148,84,12.04,232,4.5536,4.4384,-17.6343,-0.0138,0.2617,1.5856,75
12.355,238,6.1434,-9.7126,-7.3628,-0.2358,0.5756,0.7597,75,11.808,227,-0.556,6.5902,-12.5651,1.0671,-1.4147,0.8095,84,12.092,233,8.5891,8.5781,-12.9568,0.3666,-0.4824,0.6641,75
12.407,239,-1.0486,-6.6823,-11.9581,0.5023,1.1025,0.7989,75,11.86,228,4.5141,10.1367,-16.6099,0.7821,-1.5986,0.4473,84,12.144,234,11.5345,11.6126,-15.8971,0.1458,-0.9468,-0.1244,75
12.459,240,-1.5935,-3.4549,-13.8943,0.625,0.1353,1.2597,75,11.912,229,8.106,12.5707,-16.7729,1.0334,-0.8343,0.154,84,12.196,235,13.6841,7.3505,-14.3809,0.1223,-0.4811,0.0018,75
12.511,241,-1.104,-4.0098,-14.2117,0.4308,-0.5706,1.3435,75,11.964,230,6.6617,10.3512,-13.0834,0.0742,-0.451,0.3423,84,12.247,236,11.8534,10.5295,-15.6012,-0.4501,-0.4835,-0.0576,75
12.562,242,2.3244,-4.8386,-13.8386,0.3485,-1.0858,1.4517,75,12.015,231,5.7738,4.8222,-8.8402,-0.0724,0.1076,0.4084,84,12.299,237,8.9852,4.8678,-16.7864,0.348,-0.3361,-0.711,75
12.614,243,6.754,-5.7043,-11.2222,0.3995,-1.4618,1.3976,75,12.067,232,4.7573,4.4211,-7.9712,-0.0518,0.7576,0.9635,84,12.351,238,7.2188,3.5371,-14.3983,-0.4212,0.0948,-1.0885,75
12.666,244,9.987,-9.361,-12.2138,0.6518,-1.1316,0.943,75,12.119,233,4.9088,4.5526,-8.9849,0.4805,1.232,1.3686,84,12.403,239,4.8637,2.0105,-13.5329,-0.9826,0.6145,-1.0175,75
12.718,245,7.9694,-12.0298,-6.4053,-0.2017,-1.0608,0.6305,75,12.171,234,5.029,6.9336,-10.9482,1.0224,1.5783,0.5342,84,12.455,240,4.2723,1.885,-17.8818,-0.9745,0.2989,-1.0795,75
12.77,246,7.3139,-13.0824,-5.5077,-0.0896,-1.4304,-0.2149,75,12.223,235,4.6462,8.1771,-11.899,1.0881,1.831,-0.2965,84,12.507,241,8.3839,-2.3252,-14.2967,-0.1828,-0.4317,-0.7687,75
12.821,247,4.8549,-10.3282,-6.1467,0.535,-1.0254,-0.832,75,12.274,236,7.2687,7.9357,-13.6887,1.1367,2.0099,-0.6614,84,12.558,242,11.1616,0.7957,-15.6807,-0.4439,-0.6991,-0.8427,75
12.873,248,-1.989,-4.5622,-9.8388,0.885,-1.0799,-1.2823,75,12.326,237,7.3967,10.87,-14.4953,1.0712,0.8234,0.1826,84,12.61,243,13.412,0.2422,-16.4363,-0.9992,-0.0555,-0.0378,75
12.925,249,-1.7482,-4.6257,-8.3946,-0.0315,-1.0918,-1.493,75,12.378,238,8.4976,9.3217,-14.0248,1.4535,-0.0717,0.5115,84,12.662,244,7.5131,-1.981,-18.3993,-1.4045,-0.1985,0.0635,75
12.977,250,-0.764,-5.7944,-7.6206,0.6184,-1.3251,-0.917,75,12.43,239,4.4335,7.4442,-12.1133,0.6644,0.2854,0.6987,84,12.714,245,7.01,-3.6543,-17.6562,-0.4051,-0.8183,0.0002,75
13.028,251,1.1657,-6.6045,-5.394,1.0255,-1.0833,-0.0034,75,12.482,240,2.5911,6.0038,-11.3735,1.1226,-0.4644,0.9298,84,12.765,246,5.9876,-2.7026,-15.0083,0.3809,-1.2706,0.0337,75
13.08,252,5.9084,-10.018,-3.6318,0.5154,-0.7133,0.6052,75,12.533,241,2.8291,6.5594,-10.6715,1.1725,-0.6186,0.5645,84,12.817,247,6.5242,0.6646,-13.9492,0.1584,-1.088,0.6404,75
13.132,253,5.155,-12.5093,-6.759,0.4574,-0.0074,0.7188,75,12.585,242,1.4711,7.7064,-11.1552,1.5228,-1.0521,-0.0737,84,12.869,248,8.9837,5.8369,-16.9031,-0.5596,-1.2829,1.0087,75
13.184,254,5.9008,-7.3514,-6.8651,1.0082,-0.2889,0.0488,75,12.637,243,5.9936,10.2223,-15.6263,1.2752,-1.4406,-0.4366,84,12.921,249,10.8744,0.7888,-16.1175,0.1621,-0.588,0.8402,75
13.236,255,2.8432,-1.8265,-9.3289,0.2091,-0.8141,-0.2713,75,12.689,244,8.53,12.3192,-19.3446,0.2507,-1.1229,0.2736,84,12.973,250,13.2024,5.9276,-12.9732,-0.5246,0.0217,0.7144,75
13.287,256,1.3694,-1.3323,-9.7412,-0.5059,-0.958,-0.8683,75,12.741,245,5.5961,7.2168,-14.9791,-0.4971,-0.3374,0.2635,84,13.024,251,12.9613,2.4728,-14.1441,0.2936,0.085,-0.0853,75
13.339,257,0.6653,1.1641,-11.0634,-0.601,-1.0553,-1.3088,75,12.792,246,-1.5857,3.7568,-15.1893,-0.5954,-0.0993,0.2956,84,13.076,252,10.9797,4.1029,-13.0892,0.3506,0.021,-0.7361,75
13.391,258,2.7244,-0.7318,-9.0079,-0.7326,-1.4192,-1.6304,75,12.844,247,-1.6184,3.3884,-14.3605,-0.4352,-0.5107,0.8151,84,13.128,253,8.7833,2.7377,-11.64,-0.4193,0.538,-0.6055,75
13.443,259,3.2,0.9811,-7.0451,0.0794,-0.9898,-1.8468,75,12.896,248,-1.6062,3.6388,-13.9481,-0.5857,-1.0172,1.1435,84,13.18,254,6.2025,1.1738,-10.8913,-0.9813,0.8987,-0.3642,75
13.495,260,7.3931,-0.8408,-7.4613,0.4371,-1.1182,-2.023,75,12.948,249,-0.6568,3.3266,-12.8862,-1.1066,-0.9614,0.782,84,13.232,255,5.7313,1.7569,-15.5084,-0.0515,0.9006,-0.3663,75
13.546,261,10.4534,-2.5713,-6.7969,0.5462,-0.1337,-1.2572,75,13.0,250,0.5021,4.3563,-12.4926,-1.228,-1.0567,0.4283,84,13.283,256,8.4023,-3.9548,-15.1231,0.3776,0.4369,-0.3677,75
13.598,262,10.0524,1.2211,-7.0701,0.2468,0.4474,-0.2409,75,13.052,251,5.2863,6.8091,-17.0575,-0.2656,-0.9251,0.3754,84,13.335,257,8.3844,-2.2554,-16.1725,0.322,0.071,0.0507,75
13.65,263,1.8044,5.8764,-9.356,-0.4973,1.009,0.5008,75,13.103,252,8.7781,10.2964,-19.9195,0.4779,-0.4013,0.1015,84,13.387,258,10.0122,1.688,-13.6373,0.8576,0.6624,-0.0351,75
13.702,264,-0.1514,1.584,-8.8847,-0.595,0.0671,0.3434,75,13.155,253,6.3171,11.5386,-18.4699,-0.2612,0.1287,0.4583,84,13.439,259,6.8906,-4.0051,-17.6829,-0.0493,0.8994,-0.096,75
13.754,265,0.4861,4.107,-9.3893,0.2401,-0.4801,0.2097,75,13.207,254,-1.0595,3.1606,-21.42,-0.8706,0.773,-0.3519,84,13.491,260,7.7264,-7.35,-17.048,0.4412,0.2386,0.4634,75
13.806,266,1.2126,5.1921,-9.3337,-0.5021,-0.7124,0.0554,75,13.259,255,-3.3102,5.3185,-18.4715,-0.0666,0.2048,-0.0345,84,13.542,261,6.7065,-6.0784,-16.4324,0.8621,-0.0237,1.016,75
13.857,267,4.3999,4.6336,-10.0793,-1.0439,-0.7356,0.0311,75,13.311,256,-2.3596,6.0948,-17.4149,-0.459,-0.5232,-0.1538,84,13.594,262,6.3077,-1.4817,-15.7821,0.123,-0.4265,1.4192,75
13.909,268,4.2786,4.4447,-15.3528,-1.0363,-0.0544,0.4888,75,13.363,257,-1.0898,6.738,-17.0964,-0.791,-1.0545,-0.6837,84,13.646,263,7.214,0.2387,-10.5794,-0.4124,-0.9121,1.5752,75
13.961,269,8.1803,4.7799,-11.6253,-0.2612,0.198,0.4453,75,13.414,258,-0.2716,8.8345,-18.1374,0.0393,-1.442,-1.1854,84,13.697,264,10.5308,-5.0629,-7.3969,0.3755,-0.5154,1.4864,75
14.013,270,6.8332,5.6399,-10.645,-0.868,0.8269,0.8002,75,13.466,259,4.7217,11.7747,-20.3345,-0.2779,-1.7251,-0.9939,84,13.75,265,12.9516,1.6568,-10.2893,-0.4011,-0.3053,0.7956,75
14.064,271,2.2674,2.2499,-12.6059,-1.3109,1.2859,1.2607,75,13.518,260,5.7539,8.7484,-17.8784,-0.8828,-1.1316,-0.1451,84,13.801,266,13.1353,0.9336,-8.5916,0.1463,0.454,0.423,75
14.116,272,-1.0626,1.3481,-13.5117,-0.2824,1.3283,1.5967,75,13.57,261,4.6845,2.8065,-16.2396,-1.3244,-1.4986,0.5595,84,13.853,267,10.5343,-0.9374,-10.6895,0.7833,0.4214,-0.3548,75
14.168,273,-2.1606,2.757,-12.6578,0.2548,1.3152,1.8353,75,13.622,262,7.295,1.2037,-15.2372,-0.6998,-1.698,1.0737,84,13.905,268,8.9131,-1.091,-9.7043,-0.1035,0.3629,-0.8392,75
14.22,274,0.0087,2.8593,-7.9077,-0.463,1.6203,2.0055,75,13.673,263,6.017,1.7346,-14.1091,0.161,-0.6141,1.349,84,13.957,269,5.527,-1.58,-8.737,-0.7508,0.8931,-0.9597,75
14.272,275,5.064,-3.1109,-5.2202,-0.6111,1.865,2.1403,75,13.725,264,5.6185,3.2559,-13.1655,0.7892,0.2158,1.284,84,14.009,270,4.0995,-5.4505,-10.3102,0.1286,0.592,-1.2055,75
14.323,276,2.3404,-5.1861,-1.2188,-0.2896,2.0436,2.164,75,13.777,265,3.8784,4.3805,-11.5516,1.2478,0.8366,1.3971,84,14.06,271,3.6955,1.3392,-15.5298,0.7704,0.1462,-1.5282,75
14.375,277,-1.8589,-5.055,-1.5844,-0.3021,1.4441,1.7837,75,13.829,266,5.9429,6.173,-10.2318,0.8948,0.5554,1.685,84,14.112,272,7.9629,5.6825,-10.3387,0.6168,-0.4811,-1.575,75
14.427,278,-3.0047,-3.5217,-5.9698,-0.266,0.3849,1.4092,75,13.881,267,9.2573,6.4743,-15.4075,1.3248,0.7425,0.8358,84,14.164,273,11.0774,3.6899,-12.1794,-0.1451,-0.5073,-1.1058,75
14.478,279,-3.1372,-1.3343,-7.8139,0.1424,-0.3717,1.075,75,13.932,268,10.1757,10.0521,-14.8882,1.4823,-0.0379,0.1582,84,14.215,274,13.3505,2.6057,-16.7436,-0.7811,0.1363,-0.1383,75
14.53,280,-3.0718,-1.3354,-8.9866,-0.5405,-0.5226,0.9641,75,13.984,269,6.2662,4.7339,-11.9545,0.4018,-0.3725,-0.516,84,14.267,275,7.3399,-3.3353,-15.1191,-0.9671,-0.3344,-0.4078,75
14.582,281,-2.1401,-2.9158,-8.4994,-0.8863,-0.9191,1.2588,75,14.036,270,-0.0473,3.0797,-10.6611,0.4759,0.4064,-0.4736,84,14.319,276,7.3631,-3.9706,-13.5515,-0.0293,-0.9175,-0.5532,75
14.634,282,-1.6729,-5.1969,-6.348,-1.3173,-0.2894,1.5954,75,14.088,271,-0.0072,0.9799,-9.0988,0.6708,-0.265,0.0637,84,14.371,277,4.8896,-1.5011,-10.5005,0.6551,-0.8243,-0.0233,75
14.686,283,-1.8285,-8.9906,-3.1122,-1.6116,-0.0886,1.841,75,14.14,272,2.6995,2.4317,-8.9971,1.1573,0.3469,-0.4303,84,14.423,278,4.7649,2.1622,-9.633,-0.1334,-0.3707,0.6531,75
14.737,284,-2.1611,-9.7122,-0.1554,-1.2429,-0.3333,1.4255,75,14.191,273,2.9908,2.0919,-8.6348,1.5164,0.8922,-0.9297,84,14.475,279,8.7434,3.5422,-4.4465,-0.5789,-0.8304,0.4564,75
14.789,285,-2.5265,-7.5684,-1.2071,-1.0595,-0.9126,0.6426,75,14.243,274,7.1027,4.6666,-10.8679,1.7784,0.564,-0.3438,84,14.527,280,11.6471,4.9096,-6.7663,-0.0871,-0.8706,0.3055,75
14.841,286,0.4561,-1.8121,-1.834,-0.6107,-1.3251,0.1267,75,14.295,275,10.1037,7.8288,-13.6291,0.618,0.1452,0.4145,84,14.578,281,13.7663,3.655,-7.6924,-0.5528,-0.4675,0.41,75
14.893,287,-0.8156,-0.9178,-3.8757,-1.0132,-0.9821,-0.5826,75,14.347,276,10.2757,6.4413,-11.8466,-0.229,-0.1352,0.1776,84,14.63,282,11.2023,3.8177,-13.6191,-0.913,-0.5765,0.3005,75
14.944,288,0.4223,-0.8953,-4.7715,-0.4813,-0.8266,-1.1003,75,14.399,277,5.588,3.7442,-11.0102,0.3336,0.5804,-0.5568,84,14.682,283,9.1099,4.8036,-10.277,-0.5217,-0.1428,-0.2549,75
14.996,289,-0.0428,-2.0189,-4.954,-0.8402,-0.461,-1.4782,75,14.451,278,2.0145,5.0062,-10.9699,0.5113,-0.248,-0.1673,84,14.733,284,7.5571,3.7853,-9.3757,-1.056,0.5741,-0.1523,75
15.048,290,0.9007,-6.3333,-3.5769,-0.9991,-0.2701,-1.6136,75,14.503,279,1.8805,4.389,-10.9371,-0.3069,-0.8537,0.0558,84,14.785,285,5.444,2.7878,-10.9768,-1.3097,0.8387,-0.1819,75
15.1,291,5.715,-9.82,-2.9132,-1.1198,-0.4936,-1.8528,75,14.554,280,2.1094,3.8271,-10.6899,-0.6784,-0.7913,-0.0134,84,14.837,286,6.8014,-3.0584,-14.058,-0.4282,0.101,-0.2975,75
15.152,292,5.6886,-11.5317,-3.104,-1.4947,0.3222,-1.2269,75,14.606,281,5.4004,3.9405,-10.4005,-1.1638,-1.1184,0.5312,84,14.889,287,6.7981,-2.2524,-18.2581,-0.6072,-0.5421,-0.7821,75
15.204,293,3.8671,-9.8132,-2.8173,-1.0594,0.3774,-0.8041,75,14.658,282,8.8613,4.0078,-12.9102,-0.7149,-0.3462,0.2467,84,14.941,288,9.8475,0.9789,-18.1351,-0.2321,0.1388,-0.7146,75
15.255,294,1.9798,-6.9928,-4.3995,-0.3787,0.9579,-0.9574,75,14.71,283,9.0897,3.8571,-11.1376,-0.5759,-0.5973,-0.0205,84,14.992,289,8.6393,2.0929,-15.6671,-0.3353,-0.4339,-0.314,75
