right_hand_timestamp,right_hand_index,right_hand_accel_x,right_hand_accel_y,right_hand_accel_z,right_hand_gyro_x,right_hand_gyro_y,right_hand_gyro_z,right_hand_battery_percentage,left_hand_timestamp,left_hand_index,left_hand_accel_x,left_hand_accel_y,left_hand_accel_z,left_hand_gyro_x,left_hand_gyro_y,left_hand_gyro_z,left_hand_battery_percentage,right_leg_timestamp,right_leg_index,right_leg_accel_x,right_leg_accel_y,right_leg_accel_z,right_leg_gyro_x,right_leg_gyro_y,right_leg_gyro_z,right_leg_battery_percentage,left_leg_timestamp,left_leg_index,left_leg_accel_x,left_leg_accel_y,left_leg_accel_z,left_leg_gyro_x,left_leg_gyro_y,left_leg_gyro_z,left_leg_battery_percentage
0.709,13,4.1844,2.214,-16.4117,-0.4107,1.0294,0.4589,85,0.028,0,11.5147,-0.1717,-12.4236,0.6549,0.2984,-0.4899,90,0.39,7,4.5264,-3.178,-16.5682,0.328,0.4626,0.9366,93,0.181,3,1.2601,0.4537,-17.2713,0.0963,1.7212,0.6848,63
0.76,14,2.4777,0.7031,-15.428,-0.6441,1.1706,0.7758,85,0.08,1,7.9584,-0.5097,-10.871,0.5662,0.4636,-0.8457,90,0.442,8,4.1294,-0.5705,-14.677,-0.4358,0.5972,0.9676,93,0.233,4,6.037,5.6233,-9.9976,0.4071,0.5894,1.0586,63
0.812,15,1.1492,1.3315,-14.7497,-0.4839,0.7075,0.5758,85,0.132,2,6.1106,-0.9416,-9.3895,-0.184,0.3685,-0.6633,90,0.494,9,7.3692,-5.3173,-11.218,0.3585,-0.064,0.1261,93,0.285,5,9.5234,-1.1927,-9.6941,0.3764,0.4144,0.8656,63
0.864,16,0.6197,2.3042,-14.7029,-0.64,-0.1173,-0.2548,85,0.184,3,4.1755,-2.0177,-9.1768,-0.8143,0.1719,-0.2138,90,0.546,10,7.9479,-8.3358,-12.2809,-0.4136,0.3763,0.2058,93,0.337,6,6.6787,-2.1466,-11.9461,0.2374,0.0404,0.517,63
0.916,17,3.9196,4.3542,-17.6255,-0.3478,-0.7549,-0.8611,85,0.236,4,3.5495,-1.9417,-9.023,-0.6957,0.1716,0.0665,90,0.597,11,8.1951,-6.8617,-13.7622,-0.1654,0.129,0.0169,93,0.389,7,8.6683,-2.1362,-13.4455,0.4753,0.3988,0.1696,63
0.968,18,4.0121,5.6356,-17.9758,-0.2693,-0.7169,-0.8991,85,0.287,5,4.6796,-0.3309,-9.0667,-0.5465,0.2775,0.2289,90,0.649,12,8.9464,-4.6632,-14.0381,0.1163,0.1839,-0.0838,93,0.44,8,9.2008,-2.262,-14.1011,0.4625,0.976,0.0659,63
1.019,19,5.2464,7.2353,-18.3978,-0.2311,-0.4202,-0.7627,85,0.339,6,8.3346,0.827,-10.2486,-0.6376,0.0141,0.145,90,0.701,13,8.7214,-4.6704,-14.0742,-0.1774,0.6193,-0.1124,93,0.492,9,9.5305,-1.5516,-13.122,0.9332,1.3233,-0.2052,63
1.071,20,5.0673,7.7558,-17.5821,-0.4247,-0.4269,-0.7115,85,0.391,7,8.484,1.054,-9.9229,-0.2294,0.3232,-0.4424,90,0.753,14,9.107,-2.4873,-13.2011,-0.0755,0.5593,-0.1345,93,0.544,10,6.627,-2.3843,-14.4647,1.3558,1.4396,-0.6647,63
1.123,21,3.9062,6.4957,-16.4589,-0.9235,-0.3292,-0.4981,85,0.443,8,11.1112,2.5006,-9.9981,-0.0425,0.1928,-0.8908,90,0.805,15,9.1583,-1.829,-12.904,0.0802,0.3648,-0.1475,93,0.596,11,5.1012,0.122,-13.1178,0.5639,0.8183,-0.6079,63
1.175,22,2.6645,4.6491,-15.358,-0.9565,-0.0971,0.0741,85,0.495,9,9.9884,2.3955,-9.593,-0.2389,0.3203,-1.1886,90,0.856,16,9.2229,-1.5822,-12.8227,-0.1195,0.2007,-0.2177,93,0.648,12,6.0688,-2.2445,-8.1183,0.2886,0.4584,-0.405,63
1.226,23,1.7277,4.2354,-15.0437,-0.1643,0.0603,-0.5243,85,0.546,10,7.7399,2.4499,-8.7629,0.1288,0.409,-1.4967,90,0.908,17,9.5485,-0.9492,-13.038,-0.2032,0.0352,-0.2261,93,0.699,13,6.2004,0.0571,-8.8117,-0.2585,-0.2736,-0.113,63
1.278,24,2.1062,5.4222,-15.6414,0.5346,-0.4711,-1.0577,85,0.598,11,6.7653,2.8617,-8.3565,0.0377,0.2567,-1.6345,90,0.96,18,9.5694,-0.6054,-13.0316,-0.221,-0.0368,-0.2243,93,0.751,14,7.2998,0.2611,-10.8449,-0.1712,-0.8119,-0.3821,63
1.33,25,1.9243,7.3786,-15.3296,0.6335,0.1856,-0.903,85,0.65,12,6.5875,2.849,-8.3626,-0.1116,0.1377,-1.5562,90,1.012,19,9.6382,-0.5081,-13.2178,-0.3732,-0.1211,-0.1566,93,0.803,15,10.445,-1.7572,-10.2273,-0.4605,-0.5431,-0.3362,63
1.382,26,2.6817,6.502,-15.8719,-0.215,-0.4821,-0.4639,85,0.702,13,6.9843,3.8936,-8.3232,0.1,0.0345,-1.2482,90,1.064,20,8.4166,-1.405,-14.5899,-0.1225,-0.2258,-0.028,93,0.855,16,10.748,-1.1599,-11.234,-0.0109,-0.3692,-0.2841,63
1.434,27,2.5657,5.7844,-16.2186,-0.1916,-0.2045,-0.5335,85,0.754,14,6.6901,4.8055,-8.4037,0.0064,-0.0023,-1.0053,90,1.115,21,8.2494,-1.8289,-14.7045,0.1808,-0.4768,0.0606,93,0.907,17,10.7282,-0.6968,-11.4041,-0.649,-0.0074,-0.1151,63
1.485,28,2.3529,5.579,-15.9601,0.0678,-0.1078,-0.3976,85,0.806,15,6.7616,4.9943,-8.7363,-0.091,-0.0728,-0.8347,90,1.167,22,7.953,-1.3197,-14.6994,0.8085,-0.9622,0.2557,93,0.958,18,9.5751,-0.096,-11.3913,-0.6578,0.1703,-0.1317,63
1.537,29,2.0457,5.2255,-15.6874,0.1697,0.0652,-0.2508,85,0.858,16,6.2896,5.0243,-8.7506,0.1218,-0.0095,-0.6459,90,1.219,23,7.2264,1.3993,-11.0942,0.5974,-1.1892,0.3675,93,1.01,19,8.7151,-1.8626,-11.0308,0.1506,0.2306,-0.2135,63
1.589,30,1.5794,4.821,-15.591,0.2874,0.3598,-0.1501,85,0.909,17,5.7944,5.1656,-8.9681,-0.009,-0.0143,-0.3251,90,1.271,24,8.601,-3.4015,-10.2265,0.9102,-0.7862,0.5443,93,1.062,20,9.4051,0.262,-10.6864,-0.3993,0.0795,-0.2147,63
1.641,31,0.9123,4.2201,-15.6952,0.4847,0.5886,-0.1386,85,0.961,18,5.5357,4.41,-9.1881,-0.2356,0.0976,0.1035,90,1.323,25,1.28,-1.9711,-10.8044,0.4085,-0.0327,0.5094,93,1.114,21,8.875,0.1267,-10.8908,-0.0146,-0.0702,-0.2418,63
1.692,32,0.4401,5.0209,-16.5366,0.6506,0.3469,-0.5784,85,1.013,19,4.8739,3.89,-9.2905,-0.2084,0.2305,0.5068,90,1.374,26,4.0767,-2.1083,-13.634,0.0336,0.4162,0.5188,93,1.165,22,8.7317,0.014,-11.3614,-0.1299,-0.1294,-0.2163,63
1.744,33,5.2833,8.4162,-19.3896,1.0432,0.0415,-0.738,85,1.065,20,3.8066,3.6595,-9.0307,-0.0029,0.4948,0.5622,90,1.426,27,7.3748,-2.4338,-12.9525,-0.3792,-0.3608,0.2784,93,1.217,23,8.952,-0.6028,-11.5313,-0.0778,0.0098,-0.2007,63
1.796,34,4.07,10.7839,-18.5757,0.3917,0.1593,-0.285,85,1.117,21,7.6905,5.3801,-9.2641,0.361,-0.1066,0.5495,90,1.478,28,7.1434,-3.0832,-11.3888,-0.6174,0.415,0.1076,93,1.269,24,8.9144,-0.5202,-11.2575,0.0637,0.1119,-0.194,63
1.848,35,3.4622,9.6747,-19.0199,-0.3915,-0.1915,0.4456,85,1.168,22,10.5323,7.3496,-9.6611,0.1986,0.0459,0.7276,90,1.53,29,3.747,-2.6317,-15.8754,-0.2575,0.1012,0.1286,93,1.321,25,8.8178,-0.758,-11.0884,0.1379,0.1326,-0.1341,63
1.9,36,2.1943,6.7883,-16.4287,-0.307,0.4748,1.0019,85,1.22,23,11.4426,7.5163,-9.6838,0.1799,-0.0589,0.7031,90,1.582,30,4.1695,-2.4354,-14.1406,0.4886,-0.5995,-0.0897,93,1.373,26,8.5898,-0.585,-10.227,0.0772,-0.0694,-0.0743,63
1.952,37,1.1701,6.0244,-15.3828,0.123,1.0289,1.4078,85,1.272,24,9.497,6.3025,-9.1114,0.2129,-0.1537,0.7065,90,1.633,31,3.3751,0.3553,-11.2187,1.0332,-0.962,0.0582,93,1.424,27,9.7973,-0.746,-9.6718,-0.021,-0.6959,-0.0624,63
2.003,38,-0.5373,4.9938,-13.7657,0.4359,0.0821,0.7189,85,1.324,25,6.4447,4.4315,-8.8002,0.7992,-0.0172,0.8965,90,1.685,32,3.1797,2.46,-12.1038,0.2553,-0.5129,0.3951,93,1.476,28,9.2429,-1.4418,-10.075,0.1153,-0.9735,-0.1681,63
2.055,39,-0.6162,4.13,-13.09,0.4892,-0.327,-0.1041,85,1.375,26,3.5708,3.53,-9.1501,1.255,0.2119,0.9923,90,1.737,33,6.1604,0.3934,-6.2514,0.3312,-1.0477,0.4343,93,1.528,29,8.8569,-1.3702,-11.8197,0.058,-1.0249,-0.0185,63
2.107,40,-0.308,5.0298,-14.6073,-0.0122,-0.8978,-0.7511,85,1.427,27,2.1852,3.1818,-9.377,1.5877,0.1582,0.8,90,1.789,34,9.7619,-1.119,-10.7232,0.1626,-1.3667,0.6914,93,1.58,30,11.5815,-1.2113,-12.4867,0.1168,-1.1461,0.1644,63
2.159,41,0.526,5.4662,-16.784,-0.6091,-1.3246,-1.1607,85,1.479,28,1.1803,3.5662,-9.3574,1.8305,0.4939,0.5925,90,1.84,35,12.3904,-0.0454,-13.7439,-0.5509,-1.151,0.9569,93,1.631,31,11.4002,-1.1972,-11.9659,0.537,-0.4944,-0.1534,63
2.211,42,5.4407,9.3794,-20.2462,0.024,-1.3002,-1.5222,85,1.531,29,0.2852,3.1936,-9.4787,2.0075,0.6892,0.4136,90,1.892,36,10.3496,1.6942,-14.9431,-1.0773,-0.1617,1.011,93,1.683,32,9.3404,-1.6948,-14.0986,1.0666,-0.2252,-0.6991,63
2.262,43,7.1192,12.2354,-21.6399,-0.1286,-1.2435,-1.4585,85,1.583,30,4.9194,5.7008,-9.1043,2.0764,0.1626,0.3621,90,1.944,37,9.4136,-1.3009,-16.8334,-1.0912,0.5603,0.4866,93,1.735,33,7.2795,1.3811,-14.054,0.1075,0.349,-0.7385,63
2.314,44,5.9224,8.5041,-20.9277,0.1173,-0.9988,-0.9891,85,1.634,31,8.5098,7.8547,-11.3729,0.8811,0.1841,0.382,90,1.996,38,8.2109,0.6792,-14.1092,-1.4716,1.0873,-0.1756,93,1.787,34,4.1331,0.8329,-12.4248,-0.5986,0.7845,-0.781,63
2.366,45,3.7428,6.0416,-17.346,-0.0742,-0.417,-0.0546,85,1.686,32,11.1302,8.6186,-11.4491,0.0474,-0.3025,-0.4076,90,2.048,39,7.1273,0.3519,-14.6918,-1.7493,1.4719,0.1268,93,1.838,35,2.4714,-1.0286,-13.2671,-0.4858,1.0449,-0.9436,63
2.418,46,2.6318,3.1331,-15.0431,-0.0523,-0.2013,0.0513,85,1.738,33,9.1549,4.7956,-11.6234,-0.6455,0.2052,-0.9399,90,2.099,40,5.4475,1.0402,-15.6113,-1.0217,1.3841,0.1475,93,1.89,36,2.0005,-1.1007,-14.3105,-0.9992,0.6996,-0.5584,63
2.469,47,1.9831,2.4465,-13.4767,0.5395,-0.1684,0.0522,85,1.79,34,3.786,1.6938,-11.7348,-0.9046,0.6439,-0.9562,90,2.151,41,3.6761,0.6516,-16.1702,-0.0692,0.8852,-0.4225,93,1.942,37,0.6393,-3.4405,-15.2113,-1.4063,0.1778,0.2269,63
2.521,48,1.3671,2.2487,-12.8615,0.8638,-0.1856,0.3399,85,1.842,35,1.2593,0.5916,-12.4637,-1.3065,0.1793,-0.5015,90,2.203,42,3.0693,4.0419,-19.8066,0.4743,0.0063,-0.6877,93,1.994,38,3.0648,0.895,-10.3103,-1.5289,0.156,0.1478,63
2.573,49,0.5613,1.7071,-11.8083,0.8261,0.0196,0.519,85,1.894,36,1.5424,-1.4348,-13.1914,-1.3263,-0.5418,-0.0854,90,2.255,43,-1.7851,4.477,-20.9126,1.0227,0.6645,-0.7883,93,2.046,39,6.6554,3.8601,-10.9949,-0.4412,-0.5529,0.2066,63
2.625,50,-0.1897,3.4898,-14.0689,-0.0745,0.5875,1.0554,85,1.945,37,0.3891,-2.4869,-13.0394,-0.9333,-0.3695,0.0625,90,2.307,44,-6.627,4.3677,-23.2678,0.1178,1.1633,-1.0719,93,2.097,40,8.2156,2.2506,-11.7854,-0.7897,-0.7561,0.1269,63
2.677,51,-1.7702,6.3265,-18.2646,-0.3634,0.5239,0.1118,85,1.997,38,-0.8783,-3.4873,-12.3844,-0.8162,-0.9073,0.6559,90,2.359,45,0.4291,5.6766,-22.7777,0.1945,1.2721,-0.8732,93,2.149,41,9.4582,2.723,-10.8538,0.0364,0.1331,-0.0138,63
2.728,52,-0.1076,7.0831,-18.649,0.0768,-0.2869,-0.5935,85,2.049,39,1.8412,-2.3552,-11.516,-0.2947,-1.3234,1.1441,90,2.41,46,5.5789,4.2208,-19.0867,0.663,1.45,-0.848,93,2.201,42,7.6317,0.096,-11.023,0.7012,0.7821,-0.1279,63
2.78,53,-0.0824,9.5339,-21.6074,-0.1828,0.0709,-0.4837,85,2.101,40,6.263,1.609,-14.0552,0.2028,-1.2523,1.4923,90,2.462,47,4.3512,-0.9125,-18.2434,0.4593,1.4883,-0.4374,93,2.253,43,4.763,1.1373,-12.7928,1.1865,0.8592,-0.2625,63
2.832,54,1.5006,7.1966,-20.0511,-0.4956,0.0181,-0.3871,85,2.153,41,9.4904,3.6704,-13.2787,0.4679,-1.355,0.4831,90,2.514,48,6.4133,-2.7995,-14.9499,0.4812,0.8349,0.3391,93,2.305,44,4.2966,-0.2118,-11.4014,1.1733,0.2716,0.486,63
2.883,55,1.1313,3.9897,-17.0542,-0.7436,0.5521,0.3398,85,2.205,42,11.8458,2.4316,-13.3935,-0.3385,-0.8016,-0.3338,90,2.566,49,4.8751,-1.2026,-10.2436,0.019,0.8924,0.9252,93,2.356,45,4.8389,-2.6536,-11.8071,0.2832,-0.4686,1.0351,63
2.935,56,0.5562,1.0224,-14.625,-0.5045,0.9376,0.6327,85,2.257,43,7.462,-0.5369,-11.7056,-0.0841,0.094,-0.6442,90,2.618,50,4.7542,0.0843,-9.6187,-0.5111,1.2784,1.353,93,2.408,46,4.8136,1.2382,-10.753,0.5391,-1.0088,1.4358,63
2.987,57,0.4163,1.0891,-12.7406,-0.3608,0.3882,1.1361,85,2.308,44,3.2511,-1.3545,-11.3085,-0.1773,0.2661,-0.2829,90,2.669,51,4.9161,1.7924,-13.1536,0.2676,1.1886,1.4468,93,2.46,47,0.9495,-1.7888,-15.8292,0.2861,-0.2956,1.0102,63
3.039,58,0.3118,0.3126,-12.3515,-0.374,0.1567,1.4804,85,2.36,45,2.076,-0.8157,-10.7852,-0.7837,-0.2477,0.1649,90,2.721,52,5.0742,6.0481,-15.6584,0.8718,0.4618,0.6977,93,2.512,48,5.8103,-1.398,-10.2614,0.3115,-0.5447,0.706,63
3.091,59,-0.4117,1.855,-12.0908,-0.3945,0.1724,1.6338,85,2.412,46,1.7553,-0.471,-10.7779,-0.7494,-0.4403,0.5061,90,2.773,53,7.7588,-0.8229,-8.8441,1.1932,-0.3077,0.157,93,2.563,49,2.2528,-4.1596,-13.7276,0.0742,-0.3039,0.3213,63
3.142,60,-1.363,3.5344,-14.3459,-0.9593,-0.0873,1.7296,85,2.464,47,0.3627,0.1041,-10.1054,-0.56,-0.0891,0.6512,90,2.825,54,0.515,-3.4967,-8.2434,0.5582,0.4418,-0.2255,93,2.615,50,6.7615,-3.728,-13.5002,0.6526,-0.8364,0.3235,63
3.194,61,-1.9978,6.2624,-18.4668,-1.0857,-0.7325,0.6834,85,2.516,48,-0.6918,0.9179,-9.1943,-0.0244,-0.1774,0.6099,90,2.877,55,5.6416,-1.2877,-10.8667,0.4233,0.7809,0.0467,93,2.667,51,8.4541,-2.0172,-15.8075,1.151,0.0745,-0.2195,63
3.246,62,3.136,9.9605,-21.4744,-1.1302,0.03,0.5221,85,2.567,49,-0.1251,1.8201,-8.0801,0.4947,-0.0612,0.3346,90,2.928,56,9.3833,-0.7387,-9.9808,0.1092,1.2483,0.2578,93,2.719,52,5.9474,3.2731,-19.5182,0.3888,-0.3895,-0.3901,63
3.298,63,7.2664,9.9738,-23.6694,-0.684,0.5,-0.2078,85,2.619,50,4.8281,5.5103,-10.105,-0.2883,-0.6957,-0.1425,90,2.98,57,7.3083,-1.8714,-15.2893,0.7562,0.7844,-0.4838,93,2.771,53,7.1305,-0.5832,-17.0417,-0.3933,-0.9511,-0.5893,63
3.35,64,5.8378,9.044,-20.9333,-0.2692,1.0473,-0.5295,85,2.671,51,8.4432,6.0454,-12.9517,-0.7663,-0.5313,-0.7903,90,3.032,58,6.7623,-0.1138,-13.9099,-0.0759,-0.1009,-0.4968,93,2.822,54,4.9526,-1.2589,-15.3905,-0.9641,-1.3609,-1.0445,63
3.402,65,3.8567,5.3379,-18.8721,-0.8635,1.4468,-0.322,85,2.723,52,10.8426,3.5163,-12.9257,-0.8679,0.0068,-1.2632,90,3.084,59,5.5799,-0.2166,-12.4229,-0.7306,-0.7377,-0.9037,93,2.874,55,4.5658,-3.9482,-13.0928,-1.2321,-1.308,-1.1235,63
3.454,66,0.9156,2.6963,-17.0892,-0.8825,1.6559,0.4416,85,2.775,53,6.8888,-0.8765,-12.9487,-1.3134,0.4066,-1.241,90,3.135,60,3.9303,0.4333,-9.7063,-0.8954,-0.6775,-1.1371,93,2.926,56,3.266,-7.4077,-17.5369,-0.2246,-0.3925,-1.3964,63
3.505,67,-0.0712,2.0407,-15.1284,-0.2101,1.3817,0.6368,85,2.826,54,5.2005,-4.0498,-13.525,-0.8201,0.2862,-0.6422,90,3.187,61,4.2959,-0.5603,-10.7196,-1.3287,-0.4682,-1.1837,93,2.978,57,2.3867,-6.7656,-20.7804,-0.7973,0.2639,-1.034,63
3.557,68,-0.1135,1.8982,-14.0384,0.1738,0.8568,0.2895,85,2.878,55,3.6755,-4.1553,-13.5695,-0.2674,0.1607,0.0576,90,3.239,62,3.4843,-2.2544,-15.6393,-1.1588,-0.9181,-1.4318,93,3.029,58,6.8592,-0.9659,-14.1751,-0.4844,0.7177,-1.2265,63
3.609,69,0.2288,2.0636,-13.3451,0.2271,0.3728,0.2319,85,2.93,56,2.7426,-3.3746,-13.0536,0.2287,0.062,0.6907,90,3.291,63,7.8087,1.4994,-15.9486,-0.1692,-1.1232,-0.9681,93,3.081,59,9.2399,-4.6122,-18.3119,-0.1391,0.0365,-0.8806,63
3.661,70,-0.2856,1.4631,-13.2121,0.0115,-0.1514,0.2335,85,2.982,57,2.4506,-1.6658,-12.6527,0.8281,0.0331,1.1695,90,3.343,64,0.375,2.1972,-19.6448,-0.5631,-0.1414,-0.9749,93,3.133,60,7.994,-2.6925,-18.2013,-0.2096,0.4696,-0.4892,63
3.713,71,0.1854,4.826,-16.9613,-0.5749,-0.7798,-0.5047,85,3.034,58,1.0211,-0.3513,-11.6455,0.5354,-0.045,1.5189,90,3.394,65,5.4719,2.1307,-21.1093,-0.9211,0.2981,-0.877,93,3.185,61,5.7434,-1.5744,-17.0523,-0.1598,1.0277,0.1745,63
3.764,72,5.1921,8.9122,-19.766,-0.5552,-0.2074,-0.1122,85,3.085,59,1.1937,0.7167,-9.8729,1.0625,-0.0911,1.7539,90,3.446,66,9.2594,3.1203,-19.3359,-0.8249,0.7984,-0.4419,93,3.237,62,3.6569,-1.5094,-18.9032,-0.1561,0.9894,0.2898,63
3.816,73,6.6245,11.8944,-21.4239,-1.0803,-0.2902,0.1455,85,3.137,60,5.7907,4.6662,-11.0964,0.4341,-0.7392,1.9454,90,3.498,67,5.8937,-0.3686,-22.1171,-1.0207,1.2611,0.0192,93,3.288,63,2.9233,-2.4603,-14.7691,0.5607,0.9733,0.006,63
3.868,74,4.9882,10.859,-20.675,-0.9141,0.3576,0.7813,85,3.189,61,9.1455,4.3304,-11.9504,-0.3632,-1.0935,0.7631,90,3.55,68,5.5519,-0.8811,-21.6013,-0.0684,0.247,-0.0524,93,3.34,64,1.7219,-2.8867,-11.7131,1.0839,1.3953,-0.1212,63
3.92,75,2.9534,8.2553,-19.5539,-0.6833,0.9434,1.2469,85,3.241,62,11.5942,-0.7421,-13.811,-0.2849,-0.119,-0.1295,90,3.602,69,4.8392,-0.3701,-19.0548,0.6266,-0.4931,0.0142,93,3.392,65,2.5547,-2.7028,-13.2064,1.4267,1.7033,0.1542,63
3.971,76,-3.0258,6.0858,-18.8398,-0.6961,1.3706,1.5866,85,3.293,63,8.7186,-0.5642,-13.1748,-0.3413,0.5922,-0.6608,90,3.654,70,4.2286,0.0813,-17.0911,1.1338,-0.972,0.268,93,3.444,66,1.1778,0.2782,-17.1633,0.3642,1.6624,0.7929,63
4.023,77,-3.7218,4.0111,-16.1271,0.0405,1.0295,0.9001,85,3.344,64,5.0326,-4.9179,-13.2732,-0.5144,0.415,-0.4204,90,3.705,71,2.9909,2.1886,-14.7964,1.3481,-0.691,0.4314,93,3.496,67,3.7441,-5.0937,-19.6218,-0.4112,0.5589,0.6196,63
4.075,78,-3.2064,3.6912,-15.0317,0.6886,0.48,0.8192,85,3.396,65,3.9465,-6.7047,-13.9635,0.2921,0.4986,-0.2486,90,3.757,72,3.2488,5.4114,-18.804,0.3087,0.1237,0.9862,93,3.547,68,7.8499,-1.8065,-19.2554,-0.7709,0.0209,0.5753,63
4.127,79,-2.3474,4.4471,-13.538,1.1075,-0.2741,0.4193,85,3.448,66,2.8128,-6.0212,-13.867,0.8849,0.749,-0.118,90,3.809,73,7.6368,9.3013,-13.3638,0.9018,0.0923,0.5781,93,3.599,69,7.2659,-1.0616,-18.1865,-0.7032,0.4857,0.1676,63
4.178,80,-2.0847,4.4971,-13.1637,0.8889,-0.8693,0.0686,85,3.5,67,2.4776,-4.6372,-13.7568,1.3176,1.2243,0.0886,90,3.861,74,9.4415,2.5362,-17.7584,1.1333,0.3318,0.4248,93,3.651,70,8.9627,-1.01,-16.248,-0.1227,-0.1598,0.2226,63
4.23,81,-2.0056,6.1687,-14.5828,0.037,-1.3038,-0.6251,85,3.552,68,2.5147,-2.811,-13.2248,1.6333,1.5726,0.254,90,3.913,75,12.1566,4.0388,-20.3655,0.2463,-0.0535,0.8244,93,3.703,71,9.4618,-0.6493,-13.4843,0.1001,0.5684,0.3581,63
4.282,82,2.3355,9.8921,-18.6397,0.4124,-1.6209,-1.1313,85,3.604,69,2.4734,-1.2202,-12.5957,1.8638,1.8268,0.5519,90,3.964,76,11.9204,2.786,-17.5518,0.4553,-0.1201,0.5531,93,3.755,72,8.213,-0.4924,-12.9551,0.344,1.0851,0.0579,63
4.334,83,3.0505,12.6096,-21.6006,-0.3764,-0.5006,-0.7348,85,3.656,70,6.3173,1.2251,-10.5357,1.9733,1.7472,0.5783,90,4.016,77,11.1724,0.2082,-18.8283,-0.237,0.501,0.2598,93,3.806,73,8.5812,1.7307,-13.425,-0.1096,0.4184,-0.5931,63
4.386,84,2.405,8.0294,-22.224,0.0534,-0.0971,-0.4923,85,3.707,71,9.5301,5.3446,-10.2393,1.6191,1.3114,0.4247,90,4.068,78,9.7827,2.9737,-14.3583,-0.7733,1.044,0.344,93,3.858,74,5.7995,-1.5989,-9.3062,0.4875,0.5313,-1.1043,63
4.437,85,1.6445,5.8669,-19.3933,-0.172,-0.0098,0.3173,85,3.759,72,11.7773,7.2372,-10.0174,0.782,0.3116,-0.1041,90,4.12,79,7.9734,3.6908,-13.8489,-1.2396,1.4403,0.8664,93,3.91,75,4.0509,-1.0939,-8.8784,1.0305,0.7099,-1.4774,63
4.489,86,2.9272,2.0889,-16.8288,0.0039,0.4469,0.7183,85,3.811,73,11.5427,5.9395,-9.9295,-0.059,-0.4426,-0.7485,90,4.172,80,6.5848,3.9348,-14.2718,-1.2333,1.6251,0.9651,93,3.962,76,4.1897,0.4737,-11.7559,0.1539,0.8666,-1.3439,63
4.541,87,2.0036,1.5358,-15.0932,0.6449,0.6366,0.4955,85,3.863,74,6.1009,3.7621,-9.0415,-0.7231,-0.0284,-0.6513,90,4.223,81,4.7652,5.0684,-15.6101,-0.2236,1.4577,0.174,93,4.014,77,2.5295,-4.052,-16.5611,-0.5648,0.2868,-0.8551,63
4.593,88,1.1957,1.4631,-14.1229,0.6178,0.2395,0.9093,85,3.915,75,2.2815,2.1895,-8.3358,-1.2077,-0.6934,-0.5139,90,4.275,82,2.2346,3.3283,-18.848,0.4943,0.7678,-0.4869,93,4.065,78,5.0818,-1.9451,-9.4793,-0.8054,0.4765,-0.7976,63
4.645,89,0.3732,1.3308,-13.4886,0.5062,0.0567,1.2074,85,3.966,76,0.9029,1.6509,-9.444,-1.5615,-0.9112,-0.0925,90,4.327,83,2.1661,-1.1831,-20.3813,1.0373,0.85,-0.9279,93,4.117,79,6.0958,1.0508,-8.8596,-0.378,0.544,-0.5581,63
4.696,90,-0.5893,2.5152,-14.3795,0.2413,0.0925,1.3435,85,4.018,77,0.3115,0.5705,-9.2642,-1.8069,-0.9789,0.1401,90,4.379,84,3.7441,1.6162,-20.7499,0.1338,0.303,-0.7123,93,4.169,80,8.2558,0.9022,-11.5511,-0.209,0.5527,-0.3361,63
4.748,91,-1.6472,6.3252,-17.4986,-0.1992,-0.5125,0.3933,85,4.07,78,0.2162,0.2965,-9.4433,-1.9971,-0.9101,0.1145,90,4.43,85,6.41,3.2818,-20.6075,0.7552,-0.1285,-0.8434,93,4.221,81,8.6564,2.2871,-11.9513,-0.2611,1.0884,0.296,63
4.8,92,3.8546,10.0063,-20.7677,-0.0206,-0.3143,-0.3881,85,4.122,79,1.6204,0.627,-8.9743,-1.4023,-1.0344,0.1475,90,4.482,86,9.9441,0.8099,-18.5218,0.5361,0.476,-0.9889,93,4.272,82,8.1296,0.7161,-15.5207,0.1294,1.4793,0.3745,63
4.852,93,3.1263,11.6207,-23.1537,-0.6924,-0.2109,-0.147,85,4.174,80,6.1019,1.8506,-10.8617,-1.7035,-1.165,-0.1371,90,4.534,87,9.5334,-1.0299,-16.4332,0.3746,0.8536,-0.5843,93,4.324,83,4.3324,0.5905,-16.2323,-0.2128,0.541,0.3844,63
4.904,94,3.3151,7.0919,-22.2481,0.0881,0.1818,0.2536,85,4.225,81,9.3728,2.5057,-10.7442,-1.5343,-1.2154,-0.7864,90,4.586,88,11.0443,-2.4453,-13.0235,0.3796,0.6493,0.232,93,4.376,84,5.7876,-3.0062,-13.6747,0.3558,-0.272,0.5956,63
4.955,95,2.1486,5.8283,-18.9211,-0.2185,0.8151,0.7036,85,4.277,82,11.7599,2.0633,-10.1757,-1.7998,-0.633,-1.0291,90,4.638,89,8.0467,-1.8355,-10.0841,0.3922,1.0339,0.847,93,4.428,85,6.2573,-4.2123,-11.1651,0.9344,-0.8653,0.7616,63
5.007,96,0.8206,2.2462,-17.4183,-0.8368,1.1114,1.1902,85,4.329,83,7.3741,-1.2837,-10.1417,-1.3177,0.2171,-1.0052,90,4.69,90,7.6617,-0.556,-10.8199,-0.0987,1.4329,1.2959,93,4.48,86,4.576,-1.3208,-8.4796,1.3566,-1.0361,1.0107,63
5.059,97,0.6266,0.9672,-15.3495,-0.5619,0.9033,1.3397,85,4.381,84,3.6594,-0.3861,-9.4053,-0.3034,0.2581,-0.4356,90,4.741,91,5.3571,1.6307,-14.6979,-0.2988,1.5329,1.5989,93,4.531,87,1.2173,-1.9973,-14.17,0.9818,-1.0809,0.6547,63
5.111,98,0.5349,1.0412,-13.8158,-0.6734,0.0507,1.4677,85,4.433,85,-0.0423,0.2152,-9.6691,-0.3096,0.3178,0.1777,90,4.793,92,1.1753,5.949,-18.7321,0.0424,0.7733,0.8345,93,4.583,88,6.0057,-1.1362,-13.612,0.4035,-0.4972,0.0181,63
5.163,99,0.0483,1.5986,-13.5073,-1.1522,-0.2729,1.5377,85,4.484,86,-0.0829,0.5114,-9.5074,0.0909,-0.2148,0.7634,90,4.845,93,6.1235,7.3194,-21.6764,0.3927,-0.109,0.1611,93,4.635,89,6.8671,-5.638,-16.4877,0.2049,-0.5858,-0.0323,63
5.214,100,-0.471,1.9882,-14.2888,-1.3373,-0.8685,1.4533,85,4.536,87,-0.3711,1.1555,-9.1917,-0.1517,-0.3444,1.2226,90,4.897,94,9.735,5.4054,-21.4533,0.1727,-0.753,0.3801,93,4.686,90,8.8271,-4.3799,-17.3394,0.0998,-0.1022,-0.2214,63
5.266,101,4.7131,5.338,-18.4251,-0.5701,-1.1586,0.3856,85,4.588,88,-0.2753,1.2295,-8.7433,0.2719,-0.2769,1.4105,90,4.949,95,9.1509,4.7687,-20.8595,0.5051,0.1288,0.2887,93,4.738,91,7.4335,-0.3143,-15.9266,0.7475,0.6104,-0.1565,63
5.318,102,8.4966,9.2858,-20.6568,-0.9981,-0.9545,0.3821,85,4.64,89,2.0484,3.7755,-7.1482,0.115,-0.4079,0.9447,90,5.0,96,11.9445,3.1964,-16.5498,0.8931,0.7724,-0.0072,93,4.79,92,2.6753,2.8004,-19.6051,-0.1315,0.6069,-0.0756,63
5.37,103,9.4806,7.9862,-22.7805,-0.5852,-0.2602,0.3794,85,4.692,90,6.4142,4.3461,-8.7371,-0.5961,-0.4865,0.037,90,5.053,97,8.2225,4.2013,-20.0836,1.3283,0.4784,-0.6144,93,4.842,93,3.9267,-0.757,-16.8029,-0.7731,-0.0764,-0.2261,63
5.422,104,6.8507,7.6003,-19.4839,0.0418,0.4925,0.4515,85,4.743,91,9.6008,2.1825,-11.6463,-1.1151,0.1789,-0.6594,90,5.104,98,7.1694,3.9311,-19.7593,0.5652,-0.3243,-0.5721,93,4.894,94,3.6697,0.8046,-13.5321,-1.2413,-0.7226,-0.3798,63
5.473,105,4.1123,4.4424,-16.9861,-0.5014,1.0419,1.006,85,4.795,92,9.8538,0.0422,-12.9274,-0.671,0.8096,-1.1676,90,5.156,99,8.4011,4.1354,-17.7915,-0.0701,-0.9101,-0.8932,93,4.945,95,3.358,0.2599,-13.4076,-1.583,-0.8332,-0.5078,63
5.525,106,-1.6492,2.3682,-15.1922,-0.8484,1.4428,0.8906,85,4.847,93,5.8493,-3.134,-15.0701,-1.1698,0.9587,-1.4448,90,5.208,100,5.6149,2.9513,-11.4576,-0.7264,-1.1671,-1.1214,93,4.997,96,2.4048,-0.9649,-10.1575,-0.5662,-0.1585,-0.7552,63
5.577,107,-1.6531,3.2781,-14.0844,-0.4643,0.3837,0.2688,85,4.899,94,4.06,-4.3549,-14.8299,-0.2981,0.3219,-0.7489,90,5.259,101,7.133,0.8859,-9.9352,-1.2054,-0.4856,-0.5262,93,5.049,97,-0.8177,-0.9792,-15.3946,0.2614,0.5466,-0.5972,63
5.629,108,-0.5834,1.148,-11.8754,0.3355,-0.3817,-0.4789,85,4.951,95,3.4073,-4.3265,-13.6347,0.1087,0.271,0.0538,90,5.311,102,10.4718,-4.5905,-5.4403,-1.4494,-1.0233,-0.3497,93,5.101,98,2.5313,-1.6876,-15.5339,0.196,0.0246,-0.3682,63
5.68,109,-0.4228,2.0716,-12.4554,0.4925,-0.1873,-0.6749,85,5.003,96,3.0678,-3.3541,-12.8551,0.7063,0.241,0.4135,90,5.363,103,12.7912,-4.3665,-8.0091,-1.3396,-1.4001,-0.4023,93,5.153,99,6.9647,-1.6287,-16.5875,-0.0623,-0.0368,-0.4085,63
5.732,110,-0.559,2.0171,-12.1859,0.1027,-0.2126,-0.675,85,5.055,97,2.0375,-3.2216,-11.3642,1.1872,0.4218,0.5161,90,5.415,104,12.6205,0.3966,-11.0252,-0.9326,-0.6632,-0.3279,93,5.204,100,8.099,-2.3248,-15.5172,0.2389,0.5588,-0.1069,63
5.784,111,1.1622,6.8621,-16.8522,0.6993,-0.8245,-1.1678,85,5.106,98,1.1985,-1.479,-10.9322,1.5382,0.4902,0.771,90,5.467,105,14.4767,1.1184,-11.1612,-1.0869,-0.9522,0.1376,93,5.256,101,8.3474,1.5454,-16.0475,-0.1214,1.0928,0.3852,63
5.836,112,4.261,10.3982,-20.0093,0.0933,-0.5351,-0.4329,85,5.158,99,4.6055,-0.4192,-9.9559,1.7944,-0.1805,1.2281,90,5.518,106,12.77,-2.1036,-12.2776,-1.4685,-0.0166,0.6816,93,5.308,102,7.7762,-2.5937,-12.9646,0.4851,1.4826,0.6365,63
5.888,113,6.3366,10.4419,-20.9304,-0.342,-0.3957,-0.2081,85,5.21,100,8.2807,2.5887,-11.4196,0.8438,0.3657,1.5617,90,5.57,107,9.3049,-1.6099,-16.3652,-1.1695,-0.4548,0.953,93,5.36,103,7.105,-2.0005,-11.388,1.0287,1.767,0.137,63
5.939,114,4.9149,8.9727,-19.8727,-0.593,0.2036,0.0096,85,5.262,101,10.9628,4.5026,-11.4851,0.3608,-0.115,0.4642,90,5.622,108,7.1372,0.1213,-16.682,-0.177,-1.0053,0.6683,93,5.411,104,7.4753,-3.2559,-12.5485,0.7519,1.9746,0.1632,63
5.991,115,2.932,5.0059,-20.5471,-0.3777,0.831,0.6836,85,5.314,102,11.8108,2.2557,-10.4038,0.2679,0.3938,-0.3302,90,5.674,109,5.6422,2.552,-16.0947,0.5473,-1.4071,0.626,93,5.463,105,5.0412,-2.709,-15.5043,-0.1283,1.9919,0.6743,63
6.043,116,-2.9844,2.6063,-17.2724,0.3107,1.289,1.146,85,5.366,103,6.2859,1.1434,-8.9083,-0.0702,0.8283,-0.4664,90,5.726,110,3.6352,2.485,-16.8757,1.0254,-1.7004,0.4651,93,5.515,106,4.3037,-1.0961,-18.8583,-0.7707,0.8452,1.1725,63
6.095,117,-3.2461,3.6084,-17.2483,0.9012,0.8002,1.0008,85,5.417,104,4.2778,-1.1471,-8.5139,-0.7312,-0.0682,-0.2477,90,5.777,111,2.2044,4.0295,-12.3443,0.3161,-1.4679,0.3177,93,5.567,107,3.8748,0.7537,-17.3717,-1.2396,0.8973,1.1953,63
6.146,118,-4.0494,4.4342,-15.0897,1.3321,0.2256,1.272,85,5.469,105,2.8347,-3.8682,-9.9728,-0.1531,0.2896,0.0241,90,5.829,112,1.9978,7.6312,-11.815,0.8853,-1.7448,0.0644,93,5.619,108,7.9453,-1.766,-17.5296,-1.1649,0.2064,0.8492,63
6.198,119,-3.425,4.7138,-14.3862,1.2715,-0.5047,1.1363,85,5.521,106,2.4144,-4.6888,-11.2302,0.2636,0.2656,0.3713,90,5.881,113,6.7238,2.0143,-14.4675,0.8467,-1.0792,-0.0537,93,5.67,109,8.2,-2.5279,-18.1014,-1.146,0.3479,0.3169,63
6.25,120,-2.4251,5.8592,-13.8224,0.8151,-1.0377,0.1547,85,5.573,107,2.369,-4.2229,-12.04,0.8641,0.5538,0.5622,90,5.933,114,9.6406,2.4063,-18.4984,-0.0562,-1.0622,0.3253,93,5.722,110,10.7266,0.768,-17.4448,-0.5377,0.9388,0.0147,63
6.302,121,3.2758,9.6663,-18.0847,0.9314,-1.4267,-0.5622,85,5.625,108,2.5636,-3.3096,-11.9907,1.3024,0.9263,0.8969,90,5.985,115,10.0558,-0.3936,-18.2156,-0.1104,-0.4215,0.1344,93,5.774,111,12.106,-0.6976,-16.2001,0.2823,1.3702,-0.4842,63
6.354,122,3.7216,12.4448,-21.1955,0.0309,-0.854,-0.2942,85,5.676,109,6.7903,-1.3779,-11.61,1.6095,0.6752,1.32,90,6.036,116,9.47,-0.8782,-16.5957,-0.1847,0.3707,-0.2682,93,5.826,112,8.7536,4.3958,-19.3661,0.8807,0.9851,-0.9622,63
6.406,123,4.6728,9.605,-23.2693,0.6053,0.0578,-0.8236,85,5.728,110,9.8751,1.6749,-12.7329,1.669,0.6399,1.5942,90,6.088,117,8.222,-0.1559,-16.243,-0.6403,0.8871,-0.0343,93,5.877,113,7.9935,1.7319,-13.5849,-0.0343,0.2485,-1.1235,63
6.458,124,2.9986,6.5455,-20.3064,0.4451,0.7122,-0.2249,85,5.78,111,12.1267,4.604,-10.6704,0.8464,-0.062,1.1337,90,6.14,118,8.9751,-1.867,-13.9699,-1.1425,0.85,0.6527,93,5.929,114,5.9453,0.4656,-9.552,0.1769,0.1288,-1.424,63
6.509,125,5.2568,2.0733,-15.4681,0.3807,0.804,0.51,85,5.832,112,13.7698,2.2933,-10.4468,1.1398,-0.257,0.141,90,6.192,119,8.0953,-0.1104,-8.4591,-1.5091,1.2987,1.1541,93,5.981,115,5.6986,1.9993,-10.6182,-0.054,0.0397,-1.4725,63
6.561,126,4.7741,-0.3449,-12.0312,0.479,1.2692,1.0489,85,5.884,113,9.146,3.501,-8.7616,1.3062,-0.0028,-0.5835,90,6.244,120,8.305,4.1312,-6.8014,-1.7766,1.6262,1.5177,93,6.033,116,2.768,-0.8942,-12.599,-0.7165,-0.1125,-1.0511,63
6.613,127,4.3611,-0.7484,-10.8128,0.0857,0.5536,1.1389,85,5.935,114,4.5859,6.0954,-6.6978,0.3812,-0.541,-0.8304,90,6.295,121,7.2463,6.3673,-10.4615,-0.6201,1.8653,0.6423,93,6.085,117,7.1375,-3.5218,-6.9793,-1.1959,-0.7489,-0.8794,63
6.665,128,5.1646,2.8406,-10.9368,-0.5846,0.2177,1.4489,85,5.987,115,2.414,7.0138,-6.7051,-0.4018,-0.6148,-0.7086,90,6.347,122,4.8583,6.1614,-15.6402,0.2239,0.951,-0.2053,93,6.136,118,9.4334,0.2041,-6.6155,-0.3078,-0.9135,-0.524,63
6.716,129,3.3491,3.5373,-11.9848,-0.8732,-0.0798,1.7341,85,6.039,116,2.104,6.5794,-7.3884,-0.9733,-0.3566,-0.2523,90,6.399,123,7.1134,1.7936,-17.8442,0.6382,0.1234,-0.2397,93,6.188,119,9.3977,0.1463,-10.7839,-0.0005,-0.0433,-0.2934,63
6.768,130,1.631,4.9725,-14.151,-1.1885,-0.4041,1.9423,85,6.091,117,3.1726,6.4646,-9.1036,-1.3904,0.4188,0.3059,90,6.451,124,3.0961,-0.675,-20.6283,0.2278,-0.0803,-0.5604,93,6.24,120,11.3249,0.9943,-11.0675,-0.1564,0.3389,0.1838,63
6.82,131,0.3788,6.4585,-15.3364,-1.1188,-0.9353,1.4439,85,6.143,118,3.8472,2.6163,-14.4833,-1.2557,0.9848,0.1294,90,6.503,125,6.2914,-0.368,-20.0948,0.0236,-0.0923,-0.2051,93,6.292,121,13.3048,1.7879,-10.0321,-0.7755,0.9323,0.8145,63
6.872,132,5.3333,10.1037,-18.7323,-0.9619,-0.634,0.3787,85,6.194,119,4.7401,-1.3745,-15.4502,-0.2448,0.129,-0.5919,90,6.554,126,9.8575,-1.6322,-18.6886,0.2371,0.5449,-0.4182,93,6.344,122,9.2524,2.8141,-15.3031,-1.0972,1.1475,0.1761,63
6.924,133,8.9493,10.8194,-21.6682,-1.0687,-0.3512,-0.091,85,6.246,120,8.3788,0.2022,-14.8781,-0.4936,-0.5376,-0.7888,90,6.606,127,10.2835,-3.6006,-16.2089,0.1709,0.934,-0.2968,93,6.395,123,5.994,2.0197,-17.2374,-1.1303,0.1859,0.0265,63
6.975,134,8.7704,9.6289,-19.7314,-0.4058,0.4261,-0.5341,85,6.298,121,11.0346,2.2888,-13.6885,-1.0403,-1.065,-1.0386,90,6.658,128,8.9768,-6.0012,-19.1705,-0.078,0.3254,0.4609,93,6.447,124,5.1692,-2.2081,-16.0756,-0.1981,-0.5311,0.1971,63
7.027,135,6.5156,3.2383,-19.2843,-0.2556,0.96,-0.0861,85,6.35,122,12.9729,3.3723,-9.9888,-1.4393,-1.3261,-0.701,90,6.71,129,6.1286,-4.0832,-13.9125,0.6196,0.3127,1.0137,93,6.499,125,5.9832,-3.1054,-12.2205,0.3609,-1.0544,0.8103,63
7.079,136,3.6299,0.8296,-17.2751,-0.2022,1.3831,0.6132,85,6.402,123,9.8807,-2.1979,-9.9948,-1.7305,-0.4062,-0.0984,90,6.762,130,6.1565,-0.3303,-12.4272,0.3788,0.9066,1.3902,93,6.551,126,6.3052,-1.6068,-9.0139,0.938,-1.4364,1.1536,63
7.131,137,0.8187,0.7146,-16.3183,-0.2265,0.9098,1.1018,85,6.454,124,6.7409,-2.5023,-10.6204,-0.5918,-0.9336,-0.1616,90,6.813,131,5.0596,2.0432,-14.7698,-0.3988,1.3058,1.6924,93,6.603,127,5.6983,1.6303,-14.5599,0.9022,-1.3063,0.7695,63
7.182,138,0.6983,0.3897,-14.6497,0.0446,-0.0052,1.0086,85,6.506,125,4.1241,-2.3178,-10.5884,0.1958,-1.3541,0.3283,90,6.865,132,4.0977,-0.6013,-18.7845,0.3855,0.2796,0.8452,93,6.654,128,9.2762,-3.7362,-17.5687,1.0405,-0.9246,0.4113,63
7.234,139,1.0136,-0.1796,-16.0323,0.485,-0.6731,0.5826,85,6.557,126,4.0928,-0.9707,-10.2242,0.7773,-1.6609,0.7605,90,6.917,133,8.2565,-5.6759,-12.8507,-0.1831,-0.4693,0.5517,93,6.706,129,6.7761,-3.2161,-18.0684,0.7486,-0.7604,0.1845,63
7.286,140,1.3391,0.001,-16.542,0.1819,-0.8676,0.4915,85,6.609,127,3.7024,0.964,-9.0138,1.239,-1.3979,0.9093,90,6.969,134,6.1145,-8.1699,-15.7399,-0.6817,-1.0083,0.4715,93,6.758,130,9.0345,-3.8433,-19.628,1.0404,-0.2347,-0.1102,63
7.338,141,6.0278,2.0234,-17.4177,-0.0095,-1.3025,-0.2002,85,6.661,128,1.5234,1.0591,-7.9103,1.576,-1.1369,0.9437,90,7.021,135,4.4611,-8.1732,-16.5826,-0.5022,-0.0575,0.2085,93,6.81,131,11.1734,-0.7077,-20.8198,1.434,0.5137,-0.1829,63
7.39,142,9.4562,4.8823,-20.7087,-0.5226,-0.827,0.3164,85,6.713,129,2.9219,2.9629,-6.0367,1.822,-0.8547,0.7768,90,7.072,136,8.5216,-8.7355,-13.7867,0.1923,0.6364,-0.1108,93,6.862,132,5.8344,2.8072,-23.1764,1.2818,0.4082,-0.4772,63
7.441,143,11.7906,7.3737,-21.4742,-0.7442,-0.0163,0.1327,85,6.765,130,7.0518,4.9267,-8.6862,0.6531,-1.075,0.5343,90,7.124,137,6.1132,-4.3098,-18.0671,0.8169,0.3201,-0.5502,93,6.913,133,7.8298,1.9193,-19.8056,0.2584,-0.3689,-0.7942,63
7.493,144,9.3072,4.714,-19.6205,-0.1548,0.6705,-0.0717,85,6.816,131,10.0661,3.5676,-13.0556,-0.2034,-0.1139,-0.2964,90,7.176,138,7.7941,-2.6016,-18.3396,0.5284,-0.4398,-0.6532,93,6.965,134,6.6392,0.2098,-16.1083,-0.4885,-0.936,-1.1978,63
7.545,145,6.5862,3.2833,-16.628,-0.5063,1.1718,-0.05,85,6.868,132,11.6185,1.6021,-14.0642,-0.3268,0.5959,-0.9027,90,7.228,139,9.907,-0.9102,-16.9665,-0.2896,-0.9944,-0.7332,93,7.017,135,5.8752,-2.6364,-14.3304,-1.0336,-0.7951,-0.9966,63
7.597,146,3.0357,-0.4427,-18.1972,-0.5743,1.5376,-0.6807,85,6.92,133,6.6894,-1.6897,-14.6102,-0.9054,1.1098,-1.3452,90,7.28,140,7.1619,-1.2061,-10.8165,-0.8866,-1.2708,-0.9528,93,7.069,136,6.5021,-3.1103,-11.2869,-0.5211,-0.0811,-1.0788,63
7.649,147,1.7623,-0.8224,-16.8791,-0.4872,1.2991,0.1798,85,6.972,134,5.4896,-4.8763,-15.7069,-0.627,0.7282,-1.2329,90,7.331,141,6.5095,-1.3786,-15.7672,-0.9193,-1.0392,-0.6586,93,7.12,137,1.1498,-1.921,-16.2189,0.2943,-0.3656,-1.2327,63
7.7,148,0.5564,-0.9176,-18.2892,0.0397,0.7019,-0.2178,85,7.024,135,4.5547,-6.0452,-14.6649,-0.6162,0.5595,-0.4829,90,7.383,142,9.7308,-2.8732,-12.0028,-0.1244,-0.7954,-0.8089,93,7.172,138,5.9565,-0.7914,-17.042,-0.2919,-0.6515,-0.8492,63
7.752,149,-0.1019,1.0522,-18.1276,0.0267,0.1747,-0.7731,85,7.075,136,3.2504,-5.8817,-14.1922,0.2194,0.5869,-0.1328,90,7.435,143,11.4845,-4.0702,-13.4023,-0.4103,-0.9953,-0.4484,93,7.224,139,9.4646,-2.8607,-19.2042,0.1006,-0.8307,-0.7897,63
7.804,150,-0.2773,3.063,-18.4388,-0.3075,-0.5418,-1.1988,85,7.127,137,2.7982,-4.8281,-12.7614,0.8318,0.8407,0.3492,90,7.487,144,10.5813,-2.5919,-16.0196,-0.8046,-0.5026,-0.1415,93,7.276,140,9.283,-3.4176,-17.1782,-0.2979,-0.4674,-0.3719,63
7.856,151,4.8544,7.6255,-21.198,0.0271,-1.0648,-1.55,85,7.179,138,2.2725,-3.9495,-11.2791,1.2788,1.1322,0.8106,90,7.538,145,12.9884,-1.1488,-16.0036,-0.3089,-0.2241,-0.2849,93,7.328,141,8.6851,-0.6711,-18.1202,0.2463,0.0379,-0.1449,63
7.908,152,6.8442,10.9553,-21.579,-0.6335,-1.4154,-1.7955,85,7.231,139,6.578,-0.8493,-10.1774,1.2252,0.4905,1.257,90,7.59,146,14.7453,-2.6311,-15.1189,-0.3908,-0.3184,0.2908,93,7.379,142,8.3007,-4.9311,-12.1001,0.6678,0.7126,0.0266,63
7.959,153,6.9137,8.4742,-20.4412,0.0808,-0.4083,-1.7314,85,7.283,140,9.7202,2.0704,-10.5964,0.217,0.6264,1.5828,90,7.642,147,11.4691,-0.2069,-17.2397,-0.5804,0.0786,0.5717,93,7.431,143,8.3981,-3.7724,-10.5432,1.1621,1.2051,-0.1735,63
8.011,154,5.6924,6.5883,-18.2969,-0.0963,0.3021,-1.0587,85,7.334,141,12.0136,1.4617,-9.3133,-0.2838,0.6057,0.9492,90,7.694,148,9.4036,1.6835,-12.2139,-1.0094,0.7341,1.0102,93,7.483,144,8.6022,-2.4858,-11.4604,0.7794,1.5645,-0.212,63
8.063,155,5.6267,2.5801,-15.2688,0.1392,0.9029,-0.0962,85,7.386,142,13.2479,0.997,-9.3663,-0.4042,0.7774,0.0064,90,7.746,149,8.1593,2.1839,-11.2851,-1.4119,1.2141,1.3487,93,7.535,145,7.4592,-1.7429,-13.7743,-0.1082,1.8129,0.2219,63
8.115,156,4.039,0.1511,-13.9473,0.6155,1.1956,0.1688,85,7.438,143,9.3793,0.862,-9.0899,0.3063,1.2465,-0.6094,90,7.797,150,6.4434,3.6661,-11.6611,-1.4109,1.5645,1.5645,93,7.587,146,6.3479,-0.0576,-18.0343,-0.7561,0.989,0.8423,63
8.167,157,2.4491,1.1995,-13.2022,0.4024,1.1339,0.4889,85,7.49,144,5.5492,1.5438,-9.2936,-0.176,1.1592,-0.3665,90,7.849,151,4.2892,2.306,-15.9754,-0.3532,1.56,0.5587,93,7.638,147,6.538,3.0378,-17.0666,-1.0478,0.3395,0.6368,63
8.218,158,0.964,1.9101,-13.367,-0.2127,0.5722,1.0334,85,7.542,145,3.2808,0.6848,-9.719,-0.8085,0.8344,-0.0353,90,7.902,152,6.171,7.0349,-9.0755,0.4025,0.6717,-0.0631,93,7.69,148,8.7382,-3.0586,-15.2188,-0.7867,-0.1104,0.3624,63
8.27,159,-0.0109,3.2469,-13.556,-0.628,0.0876,1.4309,85,7.593,146,2.4554,-0.407,-10.4273,-0.5389,1.0727,0.2285,90,7.953,153,9.7696,7.2798,-11.1913,0.4167,-0.1832,-0.4447,93,7.742,149,9.5763,-3.9464,-16.8503,-0.6498,0.0321,0.258,63
8.322,160,-0.5895,3.0279,-13.9233,-0.2631,0.7464,0.3692,85,7.645,147,1.6417,-1.0489,-11.3986,-0.3662,1.0654,0.2169,90,8.005,154,12.396,6.3667,-11.5387,0.9216,-0.8071,-0.6355,93,7.794,150,9.5861,-2.0757,-16.2775,-0.2544,0.7084,0.3413,63
8.374,161,1.9238,7.5998,-18.1583,0.4824,-0.1246,-0.3513,85,7.697,148,1.2927,-2.128,-11.265,-0.0741,0.9054,-0.0614,90,8.057,155,13.2647,5.2334,-12.0899,0.0517,0.0893,-0.6721,93,7.846,151,10.8663,0.3086,-15.4579,0.1956,1.202,0.4677,63
8.425,162,5.2949,10.9366,-19.8601,-0.1924,0.3902,-0.4796,85,7.749,149,5.1765,-0.4291,-11.0559,0.282,0.0347,-0.7001,90,8.108,156,12.4239,0.2316,-13.1638,-0.4469,0.7435,-0.1456,93,7.898,152,7.9838,0.0579,-19.263,0.8174,1.281,0.4164,63
8.477,163,8.3794,9.4353,-20.15,0.1582,0.8429,-1.0234,85,7.801,150,8.6975,-0.2821,-10.8063,0.0501,0.2009,-1.1968,90,8.16,157,7.5436,-2.8693,-17.6124,-0.4445,0.0824,0.2155,93,7.949,153,4.9035,-2.9361,-15.8842,0.7787,0.5541,0.3087,63
8.529,164,6.0955,4.739,-18.1155,-0.0903,0.9548,-0.6018,85,7.853,151,11.2672,2.039,-9.6678,0.3681,-0.3191,-1.4479,90,8.212,158,8.9782,-0.7384,-19.2599,0.3521,-0.6133,0.5299,93,8.001,154,4.2639,-2.1475,-14.1249,0.455,-0.2624,0.6657,63
8.581,165,3.687,1.0145,-15.7745,-0.4488,0.7564,0.1561,85,7.904,152,10.3713,1.8749,-8.0697,-0.4113,-0.3633,-0.9884,90,8.264,159,9.4174,1.5246,-16.5215,0.3538,-1.121,0.8115,93,8.053,155,4.4145,-2.7967,-13.1151,-0.2429,-0.8583,0.6588,63
8.633,166,2.3836,0.2783,-14.6245,-0.3006,0.9185,0.5644,85,7.956,153,6.0112,-1.3681,-6.9942,0.249,-0.0512,-0.6057,90,8.316,160,3.6944,5.5375,-12.3231,0.0772,-0.6239,0.5372,93,8.105,156,5.352,-1.9175,-7.7537,0.4903,-0.9452,0.0206,63
8.684,167,1.4213,0.8604,-14.6084,-0.1376,1.3528,0.8722,85,8.008,154,3.7964,-1.9065,-8.4894,0.8534,-0.1089,-0.3954,90,8.367,161,5.9061,0.9162,-9.6131,0.7329,-0.5081,-0.1286,93,8.157,157,9.0234,-1.6018,-10.3308,-0.0971,-0.3428,-0.5597,63
8.736,168,0.4955,1.3118,-14.4093,0.2988,1.4677,1.2433,85,8.06,155,3.4884,-0.8755,-8.0051,1.1579,0.3522,-0.0194,90,8.419,162,0.9129,-1.246,-13.1033,0.316,-0.7064,0.0397,93,8.208,158,4.1454,-1.712,-14.1142,-0.3979,-0.1822,-0.133,63
8.788,169,-0.0008,5.0131,-15.2421,0.6397,0.7151,0.6727,85,8.112,156,3.372,-1.8822,-9.1215,1.1359,0.1194,0.4421,90,8.471,163,3.9366,-2.5448,-14.6724,0.0063,-0.0828,0.3075,93,8.26,159,6.708,-2.2365,-15.9975,0.037,0.5507,-0.145,63
8.84,170,5.0562,9.0487,-13.9206,0.9879,-0.1474,-0.166,85,8.164,157,3.463,-1.6497,-8.8941,1.1791,0.3831,0.847,90,8.523,164,5.7453,-1.9937,-16.1406,-0.4878,0.4347,0.0816,93,8.312,160,10.0131,-3.6583,-15.0082,-0.0992,0.9005,-0.1457,63
8.892,171,5.7751,11.0293,-14.6196,0.0436,-0.6254,-0.5173,85,8.216,158,7.4467,0.7633,-8.9568,0.9262,-0.3694,1.2835,90,8.575,165,7.9994,-2.5164,-16.5441,-0.6263,0.6241,0.0193,93,8.364,161,10.7937,1.4069,-15.7405,0.5695,1.2848,-0.3548,63
8.943,172,6.8815,8.4047,-14.3351,0.0454,0.1477,-0.5063,85,8.267,159,10.3514,3.071,-8.7252,-0.0041,-0.4384,1.6022,90,8.626,166,5.5232,-2.3109,-20.0795,-0.6144,-0.1275,0.0619,93,8.416,162,7.3783,5.3142,-18.8326,-0.2372,0.6466,-0.4605,63
8.995,173,5.2893,7.3177,-13.3504,-0.0791,0.7225,0.0192,85,8.319,160,12.4743,2.3308,-8.43,-0.5047,-0.5028,1.0505,90,8.678,167,5.4968,-2.3402,-18.2589,0.2281,-0.7664,-0.1329,93,8.467,163,6.2849,2.1223,-17.2894,-0.8502,0.0157,-0.9065,63
9.047,174,3.1424,4.9171,-12.9165,-0.5403,1.2096,0.476,85,8.371,161,11.3628,0.8459,-7.9652,0.2005,-0.2688,0.4201,90,8.73,168,2.7001,0.6173,-11.7649,0.7047,-1.0065,0.0699,93,8.519,164,4.6445,0.3061,-17.7242,-0.1397,-0.4578,-1.2582,63
9.099,175,1.4738,3.6393,-12.6089,-0.8276,1.4535,1.0218,85,8.423,162,6.741,1.1905,-7.4288,0.8181,0.2096,0.2894,90,8.782,169,2.3217,0.934,-11.7399,0.7053,-0.6524,0.0239,93,8.571,165,6.3675,-5.0734,-15.1139,0.5727,-0.8984,-1.207,63
9.151,176,-0.1763,3.9982,-13.4103,-1.1112,1.2878,1.3569,85,8.475,163,3.6002,0.7699,-7.2081,1.0274,0.1033,-0.0615,90,8.833,170,2.7913,1.8359,-13.5923,1.1837,0.1145,0.1061,93,8.623,166,9.7646,-4.3863,-14.3083,-0.1613,-1.3225,-0.4339,63
9.203,177,-0.6091,3.1079,-13.3974,-0.8039,0.6577,0.4701,85,8.526,164,2.6179,0.8816,-7.7133,1.4215,0.0671,-0.4277,90,8.885,171,7.303,-0.5012,-14.3856,0.5693,-0.1005,0.1056,93,8.675,167,6.719,-3.0063,-13.5591,0.1515,-0.7568,-0.2698,63
9.254,178,0.3817,4.4383,-17.0717,-0.4095,-0.1893,-0.332,85,8.578,165,1.4191,0.5992,-8.0863,1.7092,0.2179,-0.7015,90,8.937,172,7.6422,-0.3438,-15.9423,0.3193,-0.3355,0.2526,93,8.726,168,5.3981,-2.3009,-12.7208,0.7829,-0.191,-0.754,63
9.306,179,5.3354,8.6292,-20.4562,-0.3384,0.2461,0.0142,85,8.63,166,2.3094,1.6113,-8.5773,1.9192,-0.0401,-0.9182,90,8.989,173,7.4051,-1.2897,-16.939,0.0374,-0.1454,0.2597,93,8.778,169,5.8049,-1.1263,-11.6962,-0.0142,0.5455,-0.9654,63
9.358,180,8.9508,9.3691,-20.9893,-0.8906,-0.4061,-0.1509,85,8.682,167,6.6047,2.756,-10.2869,1.3279,-0.6969,-0.8386,90,9.041,174,6.0307,-0.5145,-17.3222,0.097,0.3273,0.1582,93,8.83,170,5.8126,-0.75,-12.4895,-0.6874,1.0831,-0.7073,63
9.41,181,8.472,7.7042,-19.8366,-0.0387,-0.0465,-0.3502,85,8.734,168,9.7398,2.3462,-10.7232,0.6339,-0.561,-1.1146,90,9.093,175,4.4901,-1.2477,-15.6133,0.0364,0.7443,0.1015,93,8.882,171,5.3641,-0.9924,-13.087,-1.1546,1.4755,-0.2978,63
9.461,182,6.9238,7.2308,-17.2687,-0.2758,0.13,-0.168,85,8.785,169,11.8413,2.009,-10.5096,0.3039,-0.5714,-1.3461,90,9.144,176,3.1864,0.5412,-15.7489,-0.6487,1.1591,-0.1027,93,8.934,172,3.8892,0.31,-14.4623,-0.7278,1.302,-0.1179,63
9.513,183,4.7217,4.7115,-16.0948,-0.6271,-0.0874,0.0897,85,8.837,170,10.835,1.0287,-9.3903,0.1618,-0.213,-1.2471,90,9.196,177,1.5768,0.3574,-15.5062,0.0412,0.6815,-0.4417,93,8.985,173,5.5032,-0.3521,-18.5364,-0.7954,0.471,-0.0881,63
9.565,184,3.1925,3.4569,-14.1401,-0.9031,-0.2204,0.2707,85,8.889,171,8.6985,0.6183,-8.6365,0.2584,0.1712,-0.9168,90,9.248,178,-0.9029,-4.7073,-19.1497,0.7066,0.2395,-0.7112,93,9.037,174,7.0961,3.193,-10.9209,-0.2216,0.2654,-0.688,63
9.617,185,2.0346,2.3334,-13.2714,-0.9663,0.0859,0.3712,85,8.941,172,5.6907,0.4011,-8.261,0.1776,0.4856,-0.5524,90,9.3,179,3.6672,-2.6764,-21.0524,-0.1137,-0.1607,-0.4077,93,9.089,175,10.2963,1.9502,-8.3607,-0.8388,0.7657,-0.3941,63
9.669,186,1.021,3.8066,-13.6369,-1.1416,0.3886,0.7032,85,8.993,173,3.1667,0.4004,-8.6591,0.1934,0.8711,-0.376,90,9.352,180,4.9319,-2.3614,-21.3936,-0.0909,-0.3608,-0.3739,93,9.141,176,10.3483,2.1951,-10.3107,-0.4737,0.3914,-0.1449,63
9.72,187,0.9972,8.1682,-15.4794,-0.2245,-0.297,-0.1619,85,9.044,174,1.3666,2.0136,-9.1405,0.6118,0.9119,-0.5796,90,9.403,181,8.8653,-1.7992,-21.7618,-0.1977,0.2174,-0.2061,93,9.192,177,9.844,2.2482,-11.6714,-0.1236,0.3728,-0.047,63
9.772,188,5.7846,11.3514,-14.0728,-0.2598,-0.5403,-0.0108,85,9.096,175,5.2352,5.1734,-8.8923,0.7452,-0.002,-1.0804,90,9.455,182,11.736,-1.7748,-16.748,-0.1595,0.0065,-0.0107,93,9.244,178,10.1984,1.6546,-12.257,0.2664,0.6505,0.1115,63
9.824,189,6.1493,12.3346,-13.6723,-0.8665,-0.7349,-0.2432,85,9.148,176,8.7403,8.3916,-9.363,-0.0866,-0.1037,-1.3158,90,9.507,183,9.2653,-2.469,-17.6458,-0.7908,0.1219,0.2546,93,9.296,179,10.6799,1.6394,-12.0691,0.3843,0.8891,0.2636,63
9.876,190,7.365,9.3003,-13.2487,-0.0596,-0.3431,-0.0022,85,9.2,177,11.2983,9.7215,-10.84,-0.1313,-0.2643,-1.4072,90,9.559,184,9.4052,-0.6342,-14.2701,-0.9383,0.2342,0.6132,93,9.348,180,9.8525,1.625,-11.8689,0.7896,1.2432,0.0432,63
9.928,191,5.5832,7.0432,-12.3646,0.2186,0.1566,0.1751,85,9.252,178,11.8163,10.4923,-10.2091,-0.7552,-0.4341,-1.1826,90,9.61,185,7.7459,1.953,-10.3027,-1.36,0.8493,1.1219,93,9.4,181,8.3994,1.6564,-13.096,0.9657,0.5166,-0.5395,63
9.979,192,4.0119,3.9726,-11.442,0.5854,0.2016,0.4941,85,9.304,179,7.1038,6.22,-10.1106,-1.2312,0.2123,-0.466,90,9.662,186,7.7919,5.3325,-10.42,-1.6678,1.2982,1.4823,93,9.452,182,6.6992,2.6184,-11.3322,0.0277,0.0258,-0.6548,63
10.031,193,2.5052,3.2491,-11.1751,0.4879,0.1305,1.0009,85,9.355,180,1.8822,5.3065,-10.3768,-1.5786,-0.2668,0.321,90,9.714,187,5.9911,6.2639,-14.621,-0.5407,1.3713,0.4287,93,9.503,183,4.7011,-0.3482,-10.4054,0.5896,-0.2199,-0.384,63
10.083,194,1.4139,2.8396,-10.6428,0.4857,0.3815,1.1927,85,9.407,181,0.4555,2.5759,-10.0257,-1.5509,-0.7275,0.6507,90,9.766,188,4.7029,9.9235,-18.6759,0.2819,0.4474,-0.2643,93,9.555,184,7.3804,5.0001,-7.8546,-0.2467,-0.8272,-0.1464,63
10.135,195,0.6146,3.545,-11.3603,0.2705,0.4609,1.5471,85,9.459,182,0.6145,1.5417,-10.6817,-1.6122,-0.9468,1.0951,90,9.818,189,8.6982,10.3609,-11.0464,0.5896,-0.066,-0.5627,93,9.607,185,10.5038,-1.6475,-9.5952,0.2444,-0.6258,0.1559,63
10.187,196,-1.2966,4.5416,-12.0803,0.1513,0.8885,1.8058,85,9.511,183,2.7776,-1.3962,-10.9422,-1.1629,-1.0701,1.4647,90,9.869,190,8.1787,2.3248,-14.5799,0.0506,-0.7142,-0.4783,93,9.659,186,7.6107,-2.061,-12.4036,-0.2662,0.221,0.0721,63
10.238,197,-1.4589,6.5274,-13.5836,0.1613,-0.0209,0.6827,85,9.563,184,1.7081,-2.3949,-11.36,-1.4867,-0.9954,1.7343,90,9.921,191,9.2447,2.42,-15.8159,0.0404,-0.0474,-0.5532,93,9.71,187,10.0875,-2.6649,-11.7275,0.442,0.8463,-0.0704,63
10.29,198,3.992,10.1539,-17.7102,0.6062,0.3293,-0.1768,85,9.615,185,3.7031,-3.9806,-10.4701,-1.3483,-1.3888,1.9312,90,9.973,192,12.013,-0.5033,-11.6804,-0.2155,-0.708,-0.4314,93,9.762,188,8.8555,-1.903,-16.5404,0.8942,0.6156,0.1342,63
10.342,199,7.7894,12.3492,-19.4816,0.1437,-0.429,-0.4421,85,9.666,186,7.6219,-2.8803,-11.9717,-0.3123,-1.6176,1.8236,90,10.025,193,11.4036,-1.5752,-11.3318,-0.6379,-0.0356,0.0756,93,9.814,189,7.8512,-4.712,-15.4053,0.2536,-0.2175,0.2483,63
10.394,200,6.9322,9.813,-18.9266,0.613,0.3693,-0.4631,85,9.718,187,10.4821,-0.2688,-12.0983,-0.7387,-1.7842,1.0233,90,10.077,194,10.5628,-5.6431,-14.1579,-0.1278,-0.6797,0.7231,93,9.866,190,6.8605,-5.184,-11.6752,0.8598,-0.8255,0.4987,63
