right_hand_timestamp,right_hand_index,right_hand_accel_x,right_hand_accel_y,right_hand_accel_z,right_hand_gyro_x,right_hand_gyro_y,right_hand_gyro_z,right_hand_battery_percentage,left_hand_timestamp,left_hand_index,left_hand_accel_x,left_hand_accel_y,left_hand_accel_z,left_hand_gyro_x,left_hand_gyro_y,left_hand_gyro_z,left_hand_battery_percentage,right_leg_timestamp,right_leg_index,right_leg_accel_x,right_leg_accel_y,right_leg_accel_z,right_leg_gyro_x,right_leg_gyro_y,right_leg_gyro_z,right_leg_battery_percentage,left_leg_timestamp,left_leg_index,left_leg_accel_x,left_leg_accel_y,left_leg_accel_z,left_leg_gyro_x,left_leg_gyro_y,left_leg_gyro_z,left_leg_battery_percentage
0.561,10,7.8284,-1.3986,-10.4404,0.2268,-0.0733,0.2116,73,0.178,3,5.8946,0.435,-8.0802,-1.6955,0.6928,-0.4037,88,0.261,5,9.5642,-1.8696,-9.7839,0.1255,0.6582,0.1104,70,0.014,0,8.6663,-2.6595,-12.4082,-0.1462,-0.3807,-0.14,40
0.613,11,8.365,-1.3676,-10.4998,0.3535,-0.3086,-0.0085,73,0.23,4,3.4851,-1.1722,-7.9562,-1.9174,0.4756,-0.4775,88,0.312,6,8.9446,-2.1678,-8.7766,-0.0613,0.6864,0.0152,70,0.065,1,8.4754,-2.9862,-12.2693,-0.0116,-0.1922,-0.2536,40
0.664,12,9.0468,-1.5676,-10.2038,0.2342,-0.3484,-0.1375,73,0.282,5,7.463,-1.908,-9.9425,-1.8176,0.256,-0.262,88,0.364,7,9.0881,-1.9519,-8.4373,-0.0983,0.4925,-0.0016,70,0.117,2,8.5574,-2.5239,-12.2815,-0.1615,-0.1147,-0.2893,40
0.716,13,9.8296,-1.5843,-9.9673,0.1963,-0.1804,-0.115,73,0.334,6,10.3662,-0.6342,-11.7199,-0.6653,0.2082,0.2716,88,0.416,8,9.1405,-2.1192,-8.2688,0.0783,0.2436,0.029,70,0.169,3,8.4862,-2.1691,-12.3011,-0.056,-0.0903,-0.2101,40
0.768,14,9.7371,-2.064,-9.5449,0.1298,0.1591,0.1288,73,0.385,7,12.4817,0.7164,-12.6767,0.1861,0.1439,0.2168,88,0.468,9,9.1215,-2.1407,-8.0777,0.0351,0.0355,-0.0445,70,0.221,4,8.5127,-2.2259,-12.2917,0.0179,-0.085,-0.0956,40
0.82,15,9.1426,-2.2312,-8.8664,0.1559,0.415,0.1704,73,0.437,8,6.7098,1.0529,-11.7399,0.7056,0.7833,0.3306,88,0.52,10,8.9929,-2.1391,-7.8221,-0.1534,-0.2451,-0.1071,70,0.272,5,8.3839,-1.7518,-12.1876,0.0008,-0.185,0.1402,40
0.871,16,6.4148,-1.2979,-8.5321,0.2813,0.9853,0.4012,73,0.489,9,2.4236,0.6833,-11.8803,1.1514,-0.069,0.7337,88,0.571,11,9.2678,-2.2451,-8.0648,-0.2158,-0.8523,-0.2144,70,0.324,6,8.6948,-2.2657,-12.2644,-0.1865,-0.5264,0.6719,40
0.923,17,2.9517,0.8332,-8.6524,0.1997,0.994,0.3475,73,0.541,10,1.8524,1.7921,-11.2791,1.3817,-0.6269,0.9902,88,0.623,12,9.2729,-1.0934,-9.8198,0.226,-1.2954,-0.3579,70,0.376,7,7.6128,-1.7901,-11.0562,-0.3713,-0.5562,1.0245,40
0.975,18,7.2109,-2.3392,-11.1782,-0.3829,0.0561,0.1473,73,0.593,11,1.4273,1.5107,-10.6794,1.6467,-0.8062,1.2345,88,0.675,13,6.3072,0.2275,-8.417,0.631,-1.537,-0.6087,70,0.428,8,7.3443,-0.5982,-11.5937,-0.2913,-1.0728,1.0925,40
1.027,19,10.3195,-2.9734,-12.212,-0.8347,0.3553,0.2925,73,0.644,12,2.6092,2.279,-9.7908,1.2283,-0.9946,1.4383,88,0.727,14,8.4469,0.3118,-12.4893,0.8261,-1.3364,-0.3078,70,0.48,9,6.1336,-2.795,-14.2376,-0.2511,-0.8546,0.9125,40
1.079,20,10.6837,-4.8432,-11.8252,-1.2866,0.8737,0.5597,73,0.696,13,3.1692,0.9576,-9.0564,0.222,-1.0046,1.3565,88,0.779,15,9.1192,-0.7538,-16.1813,0.6984,-0.6503,-0.3312,70,0.531,10,7.1599,-4.5599,-15.8421,-0.0375,-0.4363,0.476,40
1.13,21,5.3783,-4.6145,-10.4279,-0.5469,1.32,0.3741,73,0.748,14,7.2325,-3.2907,-13.3371,-0.402,-1.0775,0.7638,88,0.83,16,11.9213,-4.924,-15.014,-0.0246,0.2038,-0.3986,70,0.583,11,10.3429,-3.3802,-18.1226,0.4019,-0.0783,-0.324,40
1.182,22,1.4719,-3.0639,-11.1418,-0.2158,0.3312,0.1099,73,0.8,15,10.198,-5.307,-13.5617,-0.0638,-0.4876,0.0215,88,0.882,17,9.9416,-4.8889,-16.9286,-0.6932,0.6649,0.3285,70,0.635,12,7.0066,-2.0233,-18.6604,0.968,0.1624,-0.9079,40
1.234,23,1.259,-2.8035,-11.2905,-0.5739,-0.4276,-0.0728,73,0.852,16,9.2557,-3.9159,-12.3946,0.6251,0.3229,-0.6663,88,0.934,18,9.5004,-6.0534,-14.4546,-1.1811,0.0485,0.5733,70,0.687,13,8.8911,-1.6301,-11.4163,0.03,-0.5337,0.0177,40
1.286,24,1.2394,-2.3272,-10.785,-0.3325,0.0055,-0.0913,73,0.904,17,3.2152,-1.9432,-10.9683,-0.1809,0.7805,-0.6387,88,0.986,19,8.388,-3.8524,-10.315,-0.1855,-0.638,0.5867,70,0.739,14,5.8761,-1.0266,-12.9373,0.3361,0.2954,-0.6585,40
1.338,25,1.1369,-2.1701,-10.5698,-0.5619,0.0647,-0.0594,73,0.955,18,1.9046,-0.2016,-9.6569,-0.8078,0.4338,-0.3728,88,1.037,20,5.2425,-1.8497,-6.3781,-0.1279,-0.457,0.7212,70,0.79,15,0.5438,-2.5779,-10.2853,0.059,-0.1727,-1.152,40
1.389,26,1.9777,-3.3537,-11.2163,-0.823,-0.5682,0.0686,73,1.007,19,1.8255,0.1375,-9.3734,-1.2696,0.7607,-0.1911,88,1.089,21,2.5896,-0.2537,-12.6599,-0.7456,0.2904,0.6997,70,0.842,16,-0.0389,-4.8036,-11.5018,-0.634,-0.3435,-0.1953,40
1.441,27,6.5,-5.4829,-16.1827,0.0737,-0.0702,-0.6162,73,1.059,20,2.3397,-0.5366,-8.5614,-1.6066,1.1819,0.0077,88,1.141,22,7.1558,-1.8565,-14.5899,0.1324,-0.2774,0.7075,70,0.894,17,5.0889,1.7863,-11.1682,-0.6089,-0.9175,0.5378,40
1.493,28,9.8007,-3.9886,-15.8083,0.7282,-0.6108,-0.8338,73,1.111,21,2.5452,-1.8459,-8.0108,-1.8526,1.5362,0.3077,88,1.193,23,10.4883,0.0933,-17.8946,0.1066,-0.0673,0.5305,70,0.946,18,6.7255,-3.8375,-13.028,-1.0473,0.0153,1.0729,40
1.545,29,6.6864,-0.3528,-12.938,1.2058,0.2366,-0.4049,73,1.163,22,6.777,-3.4093,-8.6003,-1.7865,0.999,0.3781,88,1.245,24,12.9206,1.3912,-17.0972,0.6016,0.5937,0.2156,70,0.998,19,10.0258,-2.2247,-13.2241,-0.1954,-0.4696,0.1116,40
1.596,30,-0.6523,3.7604,-14.2769,0.2098,0.8551,-0.8971,73,1.215,23,9.8656,-1.0562,-10.9625,-1.2164,1.2217,0.0119,88,1.296,25,11.3886,0.2981,-15.0411,0.4911,1.0586,-0.0579,70,1.049,20,8.337,-3.0365,-12.6012,0.1614,0.3422,0.4734,40
1.648,31,-0.1636,3.7464,-13.3427,0.3573,-0.0452,-1.2791,73,1.266,24,10.9936,-2.2047,-9.2154,-0.2348,1.5307,-0.6777,88,1.348,26,8.2277,1.8369,-16.3215,1.0349,0.2558,-0.52,70,1.101,21,6.4119,-2.9903,-11.1391,-0.5593,-0.4052,0.3412,40
1.7,32,0.9455,6.9972,-13.3164,-0.4166,0.5725,-1.1643,73,1.318,25,2.3536,0.9347,-12.5137,0.4703,1.7962,-0.7116,88,1.4,27,7.5969,2.9462,-14.0418,0.0801,0.026,-0.9678,70,1.153,22,3.3284,-3.1785,-10.9786,-0.7259,0.3503,0.9293,40
1.752,33,1.7432,6.6246,-11.9674,-0.9815,0.4775,-1.03,73,1.37,26,1.7304,1.5656,-8.8368,0.7602,0.6383,-0.587,88,1.452,28,7.172,1.4987,-12.9042,0.1747,-0.2442,-1.3309,70,1.205,23,2.1142,-2.9196,-11.4016,-0.5795,-0.2517,1.3127,40
1.804,34,2.2609,1.9579,-15.2565,-1.3937,0.6626,-0.5391,73,1.422,27,0.7479,2.5228,-8.3241,1.2266,0.1329,-0.8647,88,1.504,29,4.4817,0.742,-10.3283,0.8038,-0.2037,-1.6159,70,1.257,24,1.6062,-1.5538,-10.8258,0.1104,-0.62,1.6384,40
1.856,35,6.7067,-2.1686,-15.3417,-0.7291,-0.0549,-1.0686,73,1.474,28,2.8669,4.6937,-8.0064,0.5329,-0.1287,-1.3105,88,1.556,30,2.1237,-1.3961,-15.543,0.6885,-0.6581,-1.8274,70,1.308,25,2.3961,1.5748,-9.658,0.545,-0.7401,1.8449,40
1.907,36,9.9515,-3.413,-17.3711,-0.5676,-0.5793,-1.3965,73,1.525,29,4.5174,4.1856,-7.4894,-0.0146,0.1406,-1.6429,88,1.607,31,6.8157,-1.1134,-11.4515,0.5608,-0.9949,-1.0812,70,1.36,26,6.866,1.2766,-9.8483,0.3554,-1.2069,0.6751,40
1.959,37,9.4379,-3.1651,-13.6112,0.2601,0.2049,-1.2522,73,1.577,30,6.6421,5.3931,-7.8842,0.2089,0.1787,-1.8854,88,1.659,32,8.5368,-3.8582,-15.0242,0.4775,-0.1036,-1.2361,70,1.412,27,6.8584,0.7621,-15.1689,0.5563,-0.1959,-0.0332,40
2.011,38,5.2849,-0.694,-13.4442,0.6731,0.832,-1.0192,73,1.629,31,9.7671,4.9514,-9.3469,0.5487,0.066,-1.6503,88,1.711,33,11.4963,-3.5827,-11.7492,-0.3267,0.6027,-0.3761,70,1.464,28,6.2102,-3.1917,-19.0522,1.0807,-0.2679,-0.6956,40
2.063,39,3.3134,-0.0198,-12.9974,-0.1862,-0.0621,-0.8534,73,1.681,32,12.0479,4.6673,-8.0617,-0.2795,-0.6245,-0.5417,88,1.763,34,9.7424,-4.8992,-16.58,-0.9137,0.174,0.4032,70,1.515,29,5.1745,-1.1195,-16.1553,1.4634,-0.8623,0.0562,40
2.115,40,5.2639,0.3396,-10.9739,-0.7959,-0.7147,-0.3805,73,1.733,33,8.9906,2.5587,-8.0246,-0.884,0.0572,0.1474,88,1.815,35,7.1998,-6.6087,-16.1136,-1.342,-0.5132,0.972,70,1.567,30,7.5438,-1.4741,-12.4628,0.391,-1.0665,0.7214,40
2.166,41,4.3206,0.5253,-9.8205,-0.9119,-0.1628,-0.4151,73,1.784,34,6.6658,-3.3933,-9.8481,-0.1019,-0.6309,0.7408,88,1.866,36,4.0435,-1.776,-13.5931,-0.3029,-1.0479,1.3806,70,1.619,31,4.7736,-1.6593,-9.381,-0.2508,-0.0935,1.2068,40
2.218,42,4.6026,0.0119,-8.2994,-1.0057,-0.1388,-0.3964,73,1.836,35,5.9953,-2.6485,-10.0697,0.5262,-0.3824,1.1633,88,1.918,37,2.7382,2.6488,-10.7815,-0.2198,-0.8518,1.3549,70,1.671,32,1.3425,2.5201,-5.6843,0.467,0.0356,0.7777,40
2.27,43,5.6974,-1.6806,-8.3159,-0.0596,-0.4958,-0.8511,73,1.888,36,4.8321,-3.1353,-11.3407,1.0373,-0.3901,1.5144,88,1.97,38,2.7847,6.0265,-10.1464,0.5161,-0.3514,0.6058,70,1.723,33,0.6366,-3.4575,-12.1299,0.4662,0.711,-0.1038,40
2.322,44,9.2148,2.1636,-14.0658,0.6308,0.2691,-1.0432,73,1.94,37,3.9994,-0.5991,-13.2281,1.2252,-0.6345,1.7707,88,2.022,39,7.2982,-0.8387,-4.8213,1.0532,-0.5117,0.5585,70,1.774,34,1.3649,-2.7733,-16.8341,0.0659,0.2103,-0.5426,40
2.373,45,10.9863,3.9733,-12.4776,0.9618,0.1754,-0.6261,73,1.992,38,5.5032,3.27,-12.2627,0.5761,-1.1358,1.9577,88,2.074,40,7.7219,-1.8777,-8.8675,0.5169,0.1845,0.6276,70,1.826,35,3.9162,-5.8134,-18.6304,0.3571,0.8385,0.2844,40
2.425,46,7.6933,2.1996,-11.8506,0.0246,0.8104,-0.4306,73,2.043,39,8.9359,3.2137,-13.3115,-0.2593,-1.5016,1.7946,88,2.125,41,10.9016,-0.133,-8.628,0.5836,0.6919,0.3408,70,1.878,36,4.5528,-1.3628,-17.9041,0.9353,0.1779,-0.227,40
2.477,47,2.388,0.5004,-10.7071,0.5804,1.2739,0.0383,73,2.095,40,11.4412,1.4978,-15.556,0.4825,-1.3944,0.6234,88,2.177,42,8.7424,1.4091,-10.2929,1.1025,0.5057,-0.2807,70,1.93,37,4.4796,-3.2431,-17.8245,0.8906,0.8148,0.0652,40
2.529,48,1.6529,0.1971,-10.1684,0.8042,0.2604,0.1182,73,2.147,41,11.0007,-0.1101,-11.5832,0.368,-0.3523,0.1054,88,2.229,43,9.2141,2.586,-11.5011,0.8878,-0.1315,-0.8778,70,1.982,38,2.6977,-4.2806,-18.1555,0.7885,1.0631,0.3736,40
2.581,49,1.8147,0.1362,-9.4569,0.7497,-0.3761,0.1976,73,2.199,42,2.3588,-1.3772,-13.2208,0.9403,0.422,0.1951,88,2.281,44,7.4657,1.7137,-10.8641,0.2906,-0.3811,-1.3147,70,2.033,39,0.8812,-4.0613,-16.5316,1.2502,1.4608,0.598,40
2.632,50,1.9197,1.2463,-8.2662,0.7638,0.375,-0.038,73,2.251,43,2.6421,-1.2619,-13.39,1.358,-0.3647,0.0551,88,2.333,45,5.9098,1.6172,-10.3464,0.8886,-0.7367,-1.6335,70,2.085,40,2.4418,-3.2998,-13.8251,1.5871,0.7991,0.2723,40
2.684,51,1.0003,3.851,-8.6473,0.051,0.9561,-0.626,73,2.302,44,0.9007,0.3577,-13.11,1.6629,0.0654,-0.3462,88,2.384,46,5.3155,0.4426,-9.5255,1.1164,-0.8228,-1.8372,70,2.137,41,2.4526,-2.524,-12.8944,1.2098,1.0311,0.6453,40
2.736,52,5.7867,7.1313,-14.3077,-0.5562,0.0285,0.0984,73,2.354,45,2.2764,0.8573,-12.7309,1.3873,-0.243,-0.4972,88,2.436,47,6.4616,2.8839,-10.1799,0.8383,-0.8445,-2.0149,70,2.188,42,3.3369,2.8967,-17.3921,1.2197,0.0858,-0.1347,40
2.788,53,8.4057,7.5406,-12.8262,0.2506,0.7032,0.0007,73,2.406,46,2.3707,0.9097,-12.5399,0.9119,-0.3531,-0.5939,88,2.488,48,9.9817,-1.0332,-7.1657,0.2535,-0.949,-1.4814,70,2.24,43,7.5527,-3.0888,-20.6747,1.227,0.4246,0.582,40
2.84,54,9.4962,4.8893,-12.7836,-0.36,0.4876,0.235,73,2.458,47,4.6624,-0.9732,-11.6859,0.128,-0.9304,-0.6516,88,2.54,49,12.0196,-1.0538,-10.1748,0.686,-0.0195,-1.1504,70,2.292,44,4.1169,-2.667,-21.1425,0.7485,0.9949,0.5708,40
2.891,55,5.6619,1.7676,-12.731,-0.1789,1.0383,-0.4428,73,2.51,48,8.3222,1.115,-15.9092,-0.5866,-0.8013,0.1687,88,2.592,50,12.6842,-2.9577,-12.2225,-0.1745,0.6641,-0.2968,70,2.344,45,8.122,-7.2433,-19.7351,0.7641,0.0593,0.5123,40
2.943,56,3.7771,0.6158,-9.9356,0.0308,0.0884,-0.5059,73,2.562,49,9.9361,-1.9844,-16.3559,-1.1081,-0.3544,0.7885,88,2.643,51,10.5855,-5.8152,-12.8128,-0.8026,-0.022,0.2758,70,2.396,46,5.6973,-2.8876,-22.3848,1.2324,0.3829,-0.2796,40
2.995,57,3.4632,-1.1779,-8.8015,0.3303,-0.0498,-0.4444,73,2.613,50,6.037,-2.6856,-14.5364,-1.0133,0.4147,0.7304,88,2.695,52,9.5436,-5.3413,-15.354,0.0908,-0.6895,0.4587,70,2.447,47,5.0346,-1.5254,-20.0925,1.5741,-0.3873,-0.8755,40
3.047,58,2.1949,-2.1973,-7.8927,0.6514,0.3697,-0.1644,73,2.665,51,3.2674,-3.0224,-11.4115,-1.4196,-0.0101,0.8811,88,2.747,53,7.3852,-0.8406,-12.5202,0.7428,-1.158,0.7521,70,2.499,48,6.3064,-0.828,-14.4607,0.6161,-0.3378,-0.1673,40
3.099,59,2.2492,-2.3612,-7.5859,0.9497,0.5327,0.2573,73,2.717,52,2.5337,-2.5421,-9.8114,-1.7161,-0.1492,1.2988,88,2.799,54,6.8969,1.5141,-10.1342,0.1371,-0.3252,1.1113,70,2.551,49,2.3844,-1.9575,-7.9463,0.836,0.4309,0.5489,40
3.15,60,6.6982,-2.9034,-10.9951,0.9792,-0.2806,0.8644,73,2.769,53,2.4889,-2.9368,-9.4902,-1.4706,-0.0852,1.6133,88,2.851,55,9.0736,6.457,-15.4012,-0.5729,-0.7484,0.9398,70,2.603,50,1.6477,-4.5294,-7.9003,0.4717,0.4975,0.0765,40
3.202,61,9.9453,0.8382,-14.5453,1.389,0.4777,1.3075,73,2.821,54,1.9376,-2.0829,-9.1953,-0.7923,-0.067,1.8428,88,2.903,56,11.8881,-0.5245,-11.7068,-0.8763,-0.7918,1.0277,70,2.655,51,6.3199,1.9864,-13.7472,-0.3328,0.9056,-0.3426,40
3.254,62,9.9716,1.6415,-14.4947,1.6881,0.8597,0.8781,73,2.872,55,2.372,-4.3082,-10.9107,-1.2583,-0.1506,2.0103,88,2.954,57,13.9422,-1.1457,-14.4268,-1.0082,-0.0425,0.6851,70,2.706,52,6.3228,-3.794,-15.2103,-0.3109,1.3459,-0.5167,40
3.306,63,5.4371,6.5879,-15.6732,1.3044,1.3099,0.0461,73,2.924,56,6.6506,-3.2687,-15.8973,-0.3775,-0.7826,1.9334,88,3.006,58,15.4414,1.9502,-12.1676,-0.2737,0.5456,0.3758,70,2.758,53,9.7319,-4.1921,-9.9377,-0.8168,1.2728,0.0277,40
3.357,64,4.158,6.042,-16.0705,0.2747,0.2867,-0.4558,73,2.976,57,9.7733,-3.6482,-15.7651,0.0732,-0.144,0.7605,88,3.058,59,11.099,1.3348,-11.858,0.4766,0.2702,-0.1448,70,2.81,54,8.096,-3.3061,-10.0796,-1.2504,1.6139,0.7005,40
3.409,65,3.5275,6.6585,-13.9712,0.6549,0.0217,-0.9946,73,3.028,58,7.811,-4.6302,-13.686,0.7251,0.574,-0.1314,88,3.11,60,12.2046,4.1732,-11.2721,-0.0959,-0.3568,-0.6995,70,2.862,55,5.7132,-4.1609,-11.9781,-1.5896,1.647,1.1535,40
3.461,66,1.9207,6.1777,-11.8618,-0.0423,-0.35,-1.401,73,3.08,59,2.2023,-1.4322,-11.4843,-0.0311,0.7792,-0.4197,88,3.161,61,8.5596,2.7884,-10.7019,-0.7452,0.2307,-1.1322,70,2.914,56,3.4659,-4.5476,-12.1499,-0.8607,1.8585,1.5222,40
3.513,67,4.1093,5.4898,-10.7027,-0.7082,-0.9248,-1.6976,73,3.131,60,1.9231,-1.7511,-9.4167,0.2619,0.6603,-0.1893,88,3.213,62,7.4599,2.3149,-10.6504,0.1326,0.5028,-1.4167,70,2.965,57,3.4436,-2.918,-11.8169,0.0461,1.1459,1.6214,40
3.565,68,8.039,-1.191,-10.7596,-1.1943,-0.3816,-1.7234,73,3.183,61,2.9455,0.5996,-8.4923,0.1,0.6712,-0.1241,88,3.265,63,6.0157,-0.2284,-11.5537,0.2943,0.4381,-1.708,70,3.017,58,3.6202,-3.4551,-12.7219,0.1208,1.3342,1.8637,40
3.616,69,10.9238,0.3701,-14.6159,-0.1973,-0.9479,-0.6679,73,3.235,62,3.9134,0.7226,-7.5842,-0.6071,1.169,-0.6083,88,3.317,64,9.3842,-5.4037,-11.9662,0.779,-0.3537,-1.155,70,3.069,59,6.7343,2.7705,-17.2662,-0.5889,0.3084,1.7683,40
3.668,70,13.0293,3.3801,-14.351,0.5304,-0.5533,-0.1921,73,3.287,63,5.938,0.9745,-7.5214,-0.6818,1.5323,-1.1303,88,3.369,65,12.1147,1.408,-15.3275,0.937,-0.631,-1.4757,70,3.121,60,7.0662,-3.2748,-16.4199,-0.2104,0.8956,1.2521,40
3.72,71,9.791,5.0135,-12.4792,0.2676,0.1197,0.1893,73,3.339,64,9.2532,0.9742,-9.3365,-0.7479,1.1346,-1.4776,88,3.42,66,14.1076,3.1666,-16.1984,1.3523,0.1179,-1.0756,70,3.172,61,7.8926,-4.9363,-17.1672,-0.3118,1.3386,0.9243,40
3.772,72,4.705,5.5248,-12.8773,-0.3695,0.7698,0.8148,73,3.39,65,11.6728,-0.3969,-11.2992,0.1259,1.4348,-1.6147,88,3.472,67,10.0326,-2.6329,-15.0615,0.3117,0.7644,-0.2845,70,3.224,62,7.1686,-3.1033,-20.5106,0.4471,0.458,0.0032,40
3.824,73,2.7403,4.2883,-11.6077,-0.8614,-0.1075,0.6974,73,3.442,66,12.0185,-2.5058,-11.7875,-0.5881,1.2087,-1.0046,88,3.524,68,8.626,-2.3815,-17.6958,-0.4477,0.293,0.4575,70,3.276,63,6.3788,-3.4982,-19.0065,0.1895,-0.3325,0.2619,40
3.875,74,2.669,2.2261,-8.9569,-0.99,-0.7478,0.3246,73,3.494,67,8.0751,-7.0896,-13.7582,-0.7194,0.5246,-0.2882,88,3.576,69,6.6134,-4.3321,-15.1521,-1.002,-0.4121,1.0117,70,3.328,64,6.395,-3.5101,-16.0898,-0.2594,-0.9095,0.8437,40
3.927,75,7.0046,0.4968,-6.359,-0.0482,-1.1814,-0.1943,73,3.546,68,5.6197,-6.1583,-12.336,-0.2058,-0.2898,0.4549,88,3.628,70,4.6435,-2.4554,-13.1023,-0.45,-0.9742,1.4161,70,3.38,65,5.8214,-2.0391,-12.3759,-0.8657,-1.3285,1.1645,40
3.979,76,4.4322,3.2424,-4.9435,0.6392,-0.1799,-0.0209,73,3.598,69,5.3516,-6.8645,-12.0377,0.2274,-0.8842,0.9974,88,3.679,71,3.1554,0.8283,-11.2412,0.3481,-1.1039,1.7047,70,3.431,66,3.9741,-1.5726,-7.4571,-1.126,-0.5122,1.4245,40
4.031,77,8.2915,4.131,-11.5417,-0.2109,-0.8006,0.2468,73,3.65,70,6.0554,-6.031,-11.457,0.7996,-1.318,1.3933,88,3.731,72,0.5675,-4.2673,-16.2092,-0.4212,-0.9349,1.4279,70,3.483,67,1.1214,-5.0976,-13.4237,-1.2089,-0.7027,1.3821,40
4.083,78,9.6475,3.9637,-13.5782,-0.4395,0.0981,0.5151,73,3.702,71,7.0709,-4.5236,-10.5093,1.2553,-1.6334,1.6823,88,3.783,73,5.6799,1.7059,-15.8383,0.1613,-0.5539,0.7991,70,3.535,68,5.9357,-0.0578,-17.7784,-1.4388,-1.1797,0.6348,40
4.134,79,11.5839,2.6142,-12.5429,0.0082,0.3123,0.0748,73,3.753,72,7.4353,-3.4857,-9.0354,0.7219,-1.7058,1.8932,88,3.835,74,7.4913,-2.5116,-16.7857,-0.3592,-0.0741,0.7022,70,3.587,69,3.7219,-5.1778,-18.9369,-0.9369,-0.2391,0.2649,40
4.186,80,6.4846,2.8561,-10.9756,0.6803,0.9104,-0.4611,73,3.805,73,10.346,-3.5028,-10.6901,0.7066,-1.9177,2.0364,88,3.887,75,10.7332,-1.8591,-13.8874,-0.2076,0.5855,0.1465,70,3.638,70,7.1884,-6.4128,-17.4377,-0.7262,0.4677,0.5398,40
4.238,81,3.6303,1.3144,-9.9563,-0.1577,-0.0049,-0.8646,73,3.857,74,12.4704,-5.1229,-12.6613,-0.1643,-1.3173,0.8302,88,3.938,76,9.8749,2.0503,-12.8084,0.4846,0.6773,-0.5267,70,3.69,71,6.6693,-4.5642,-15.7213,-1.2047,0.6681,0.5148,40
4.29,82,3.9131,-1.7495,-9.2293,-0.5908,-0.2172,-0.4186,73,3.909,75,10.3416,-5.3674,-13.4841,0.2163,-0.5324,-0.0805,88,3.99,77,10.2968,0.5598,-14.251,0.9298,-0.1791,-1.0518,70,3.742,72,4.1319,-6.4713,-13.5274,-0.2046,1.1726,0.4589,40
4.341,83,2.5832,-0.8436,-8.8529,-0.125,0.5239,0.0757,73,3.961,76,6.7257,-5.7286,-12.55,0.4945,-0.3575,-0.7451,88,4.042,78,7.0334,0.5112,-12.5374,0.7645,-0.3866,-1.4417,70,3.794,73,4.2827,-3.2657,-13.2266,0.5254,0.4085,-0.0182,40
4.393,84,1.6672,0.041,-9.0069,-0.4036,0.7165,0.425,73,4.013,77,4.1472,-4.5782,-11.2428,1.0326,-0.9336,-1.1195,88,4.094,79,5.3321,-1.8278,-12.6906,1.2345,-0.4853,-1.7262,70,3.846,74,3.3466,-1.6031,-13.6173,1.0581,0.9594,-0.2559,40
4.445,85,4.3917,1.331,-8.3504,-0.0649,-0.1433,0.4057,73,4.064,78,3.8499,-3.2215,-10.1925,0.6462,-1.3178,-1.0789,88,4.145,80,5.1478,-6.5699,-12.2804,1.5556,-1.0276,-1.6028,70,3.898,75,2.2695,0.9156,-15.2644,0.6515,0.9631,0.1474,40
4.497,86,8.2619,2.0734,-12.5415,0.1418,-0.1218,0.9688,73,4.116,79,3.5593,-3.164,-8.261,-0.2042,-1.3767,-0.9594,88,4.197,81,6.2513,-5.293,-8.6652,0.4636,-0.9791,-0.8911,70,3.949,76,1.4915,0.1826,-15.6275,-0.2016,0.0385,-0.2956,40
4.549,87,11.0865,1.0641,-10.7333,-0.3193,0.0324,0.7069,73,4.168,80,2.4339,-6.0522,-7.2408,-0.6133,-0.9989,-0.9724,88,4.249,82,7.0962,-7.6285,-12.3661,0.3796,-0.7355,-0.612,70,4.001,77,6.2059,-5.1635,-11.8594,-0.4497,0.2385,0.4646,40
4.601,88,7.7106,-2.2243,-6.7041,-0.5408,0.6709,0.4259,73,4.22,81,6.6957,-7.462,-9.1389,0.2241,-1.4017,-0.9872,88,4.301,83,9.6522,-3.8364,-14.5343,0.3362,0.1179,-0.5305,70,4.053,78,9.6466,-2.4147,-12.5222,-0.1704,0.6305,0.2824,40
4.652,89,0.0952,-3.5544,-6.0405,-0.0919,0.8956,0.4005,73,4.272,82,9.8063,-6.5501,-9.8268,0.8353,-0.344,-1.4069,88,4.353,84,9.749,-6.9121,-14.7885,-0.1744,0.7644,-0.035,70,4.105,79,8.9866,-2.0339,-15.9573,0.5503,0.1659,-0.4653,40
4.704,90,1.5378,-6.6503,-2.9316,0.2248,-0.0157,0.4175,73,4.323,83,10.1976,-6.8727,-11.2861,1.2814,0.428,-1.7132,88,4.405,85,9.2909,-4.8535,-15.3577,-0.8025,0.2896,0.5338,70,4.157,80,5.99,0.0033,-19.065,1.0763,-0.4607,-0.8414,40
4.756,91,3.5425,-5.9982,-3.3469,0.8362,0.671,0.9574,73,4.375,84,8.0257,-3.2942,-10.0005,1.4104,0.7033,-1.4703,88,4.456,86,6.843,-7.4399,-14.7516,-1.2609,-0.462,0.7928,70,4.208,81,7.4408,1.461,-15.6466,0.2323,-1.003,-0.5681,40
4.808,92,5.3886,-5.713,-4.4507,0.1072,1.157,1.3754,73,4.427,85,4.9175,-3.2213,-10.1438,0.7008,0.9887,-0.8241,88,4.508,87,4.9814,-3.9772,-10.7042,-0.2437,-1.0106,1.033,70,4.26,82,5.3585,0.0643,-11.558,-0.5075,-0.8492,-0.4423,40
4.86,93,7.6897,-5.9228,-5.6877,-0.2843,1.4643,1.6805,73,4.479,86,4.1314,-1.7097,-9.9582,-0.1686,0.614,-0.2646,88,4.56,88,4.1175,-1.5444,-6.8022,0.4986,-0.6267,1.1042,70,4.312,83,4.8955,-4.1393,-7.7986,-1.0475,-0.4479,0.051,40
4.911,94,10.6689,-6.0397,-7.9733,0.1846,0.4029,1.9031,73,4.531,87,2.6833,-0.8796,-9.898,-0.8031,0.7461,0.0148,88,4.612,89,8.2708,4.0973,-3.4959,-0.0743,-0.4633,0.7554,70,4.364,84,2.9085,-5.1712,-13.673,-1.4411,-0.6016,0.3865,40
4.963,95,9.8099,-3.9262,-8.1873,0.8032,0.6211,2.0111,73,4.582,88,1.2844,-2.6908,-9.9602,-1.192,0.8703,0.144,88,4.664,90,11.3022,-2.2467,-8.3661,-0.1735,-0.3279,1.0302,70,4.415,85,7.2401,-4.7603,-13.2106,-0.6331,-1.0589,0.1462,40
5.015,96,8.5056,-0.6209,-8.3927,1.0876,-0.216,1.333,73,4.634,89,5.8568,-3.1746,-11.6502,-0.9251,0.1435,0.0965,88,4.715,91,10.6339,-2.9767,-11.4718,-0.5293,0.029,0.4103,70,4.467,86,6.0579,-5.409,-14.3414,-0.2734,-0.5803,-0.053,40
5.067,97,6.2868,1.6183,-8.9586,0.1164,-0.827,0.3326,73,4.686,90,9.194,-5.2018,-11.4223,-0.6162,0.6869,-0.5958,88,4.767,92,11.483,-1.1498,-12.4606,0.2902,0.2,-0.1898,70,4.519,87,7.7846,-6.9243,-13.4626,-0.127,0.2615,0.3135,40
5.119,98,5.9363,1.6048,-10.4544,-0.5843,-1.2729,-0.2342,73,4.738,91,10.2342,-4.971,-9.6463,-0.7019,0.7166,-0.949,88,4.819,93,10.0352,-1.4573,-11.3745,0.8883,0.0607,-0.727,70,4.571,88,5.8045,-6.6528,-12.261,-0.282,0.8757,0.7961,40
5.17,99,7.1071,4.324,-8.8369,-0.8143,-1.3468,-0.843,73,4.79,92,2.9245,-1.1135,-7.8952,0.1594,0.608,-0.9987,88,4.871,94,10.3235,1.1341,-10.3866,0.7288,-0.3468,-1.1885,70,4.623,89,5.5646,-6.073,-13.6207,-0.8829,0.9038,1.0875,40
5.222,100,8.7768,3.0026,-6.9515,-1.2717,-1.6523,-1.2903,73,4.841,93,0.8671,0.7896,-6.5317,-0.5637,-0.0762,-0.9605,88,4.922,95,8.6127,2.449,-9.1415,-0.1433,0.1211,-1.5257,70,4.674,90,3.9667,-4.9229,-12.7151,-0.3603,0.7615,1.474,40
5.274,101,8.4842,-1.0414,-7.2909,-1.6055,-0.5566,-0.9986,73,4.893,94,1.1481,1.0133,-6.076,-1.0914,-0.4054,-1.0208,88,4.974,96,6.7005,0.9965,-9.7302,0.4107,0.5822,-1.6379,70,4.726,91,3.1754,-3.875,-12.1345,-0.2403,1.0266,1.7562,40
5.326,102,11.2488,-3.1743,-13.107,-1.8492,-1.075,-0.6513,73,4.945,95,2.4172,1.8418,-5.8368,-0.9406,0.0379,-1.3807,88,5.026,97,4.7741,0.6789,-15.1064,0.4174,0.1638,-1.8627,70,4.778,92,5.7231,2.464,-16.8375,-0.8524,0.2761,0.9482,40
5.377,103,13.2665,-3.881,-16.6422,-0.6752,-0.7495,-1.1505,73,4.997,96,3.3754,2.1116,-5.6446,-0.776,0.4553,-1.6941,88,5.078,98,8.7501,-1.5042,-17.5428,0.5085,-0.4395,-1.244,70,4.83,93,6.7665,-3.4985,-13.4341,-0.6571,0.8287,1.3724,40
5.429,104,11.5911,-3.0679,-14.3587,0.1816,0.0733,-1.4793,73,5.049,97,5.1031,1.8546,-6.4841,-0.9256,0.6847,-1.9006,88,5.13,99,11.0311,-3.3921,-18.4612,0.182,-0.0017,-1.2304,70,4.881,94,6.087,-3.092,-17.786,-0.0575,0.1688,0.8998,40
5.481,105,7.6419,-3.1971,-15.0298,0.7784,0.7359,-1.1088,73,5.101,98,8.6439,3.562,-8.8555,-0.0394,0.2698,-1.6139,88,5.181,100,13.3167,0.9414,-14.4997,0.1057,0.6116,-0.6014,70,4.933,95,7.4484,-4.8507,-17.5866,0.6253,0.543,0.0104,40
5.533,106,2.1111,-2.0094,-14.7064,0.1811,-0.0162,-0.7203,73,5.152,99,11.2281,3.6292,-8.9747,0.2881,-0.4652,-1.0636,88,5.233,101,10.8467,-2.7317,-13.8061,-0.5981,0.7603,0.2038,70,4.985,96,4.6698,-2.7194,-19.8118,1.131,-0.1907,-0.0455,40
5.584,107,1.7889,-1.9139,-13.6245,-0.5452,-0.6811,-0.003,73,5.204,100,9.7309,1.7819,-6.5249,-0.4131,-0.3044,-0.6273,88,5.285,102,10.9271,-5.302,-13.7517,-1.1117,0.4182,0.8241,70,5.037,97,6.8816,-1.3311,-19.7944,0.2288,-0.806,0.2667,40
5.636,108,3.9155,-2.3123,-12.4905,-1.0631,-1.1657,0.2293,73,5.256,101,5.4005,-0.6484,-7.2624,-0.9815,-0.49,-0.4482,88,5.337,103,7.897,-4.7316,-12.473,-0.8618,-0.3467,1.2792,70,5.089,98,4.8809,-1.1281,-15.3697,-0.5101,-0.6813,0.6333,40
5.688,109,2.9513,-1.6367,-10.6497,-1.223,-0.3818,0.3883,73,5.308,102,3.3389,-3.6355,-8.1995,-0.0446,-0.6365,0.0931,88,5.389,104,3.8106,-0.7183,-10.8692,0.0476,-0.4698,1.6113,70,5.14,99,4.7856,-1.4393,-10.1261,-0.6379,-0.3733,0.3355,40
5.74,110,4.1281,-3.7555,-9.8843,-0.373,-0.8489,0.257,73,5.36,103,3.1784,-3.7497,-8.1444,0.4249,-0.4799,0.7333,88,5.44,105,3.0902,2.9866,-14.2137,0.5767,0.0207,1.6445,70,5.192,100,2.6643,-6.3473,-15.3717,0.037,0.4047,-0.2059,40
5.792,111,8.0695,0.9148,-15.1475,0.4021,0.0628,-0.2027,73,5.411,104,2.6832,-4.0025,-8.9706,0.6534,-0.3158,1.2006,88,5.492,106,7.5211,0.2888,-8.793,1.0975,-0.497,1.2008,70,5.244,101,-0.14,-9.9293,-19.2001,0.3562,0.5147,0.5301,40
5.843,112,10.168,1.1644,-16.0386,-0.3839,-0.3976,0.4991,73,5.463,105,3.2688,-3.1913,-8.9548,0.7558,-0.3177,1.5416,88,5.544,107,7.2466,5.5627,-11.8838,1.172,0.0692,1.3037,70,5.295,102,5.0151,-12.4097,-20.2623,0.3552,0.8988,0.9872,40
5.895,113,7.2928,-0.3836,-13.8765,-0.9576,0.3915,0.489,73,5.515,106,7.3051,-3.802,-10.8436,0.027,-0.9045,1.7905,88,5.596,108,10.5546,2.5214,-12.4382,1.1328,0.5853,0.971,70,5.348,103,6.057,-9.6852,-18.4835,0.934,0.4874,0.7078,40
5.947,114,1.7971,-4.179,-13.9854,-0.9374,0.9682,0.9693,73,5.567,107,10.251,-2.3663,-12.9311,0.4637,-1.1777,1.9722,88,5.648,109,8.9283,1.5669,-11.1484,1.5033,0.4897,0.1559,70,5.399,104,8.4689,-3.8038,-17.3919,0.0046,1.0407,1.1957,40
5.999,115,0.886,-3.3166,-13.3341,-0.2111,0.0373,0.7534,73,5.619,108,10.9281,-1.0115,-10.4298,0.6229,-0.6822,1.4901,88,5.699,110,8.4225,3.2177,-12.5295,1.7737,-0.2856,-0.5114,70,5.451,105,4.4794,-5.937,-16.8916,0.2347,1.2337,1.0825,40
6.051,116,1.2301,-2.7897,-12.3466,-0.3385,-0.6421,0.8353,73,5.67,109,2.4483,2.0628,-11.513,1.1263,0.1812,0.703,88,5.751,111,7.0206,4.3672,-12.027,1.105,-0.8234,-1.0095,70,5.503,106,4.4114,-4.9464,-13.7525,0.846,0.3939,0.8042,40
6.102,117,1.0515,-1.9288,-10.9307,-0.299,0.1405,0.7482,73,5.722,110,3.144,-0.3451,-12.9857,1.3165,-0.5404,-0.0768,88,5.803,112,6.8521,3.9857,-11.6463,0.4887,-1.195,-1.4108,70,5.555,107,4.0277,-4.4748,-12.5665,0.7449,0.419,1.091,40
6.154,118,0.4511,-1.4941,-10.427,0.4349,0.5163,0.6811,73,5.774,111,1.4851,-0.1579,-13.4143,1.6326,-0.4283,-0.5142,88,5.855,113,6.7549,3.4031,-10.8249,-0.2871,-1.3746,-1.7037,70,5.606,108,2.4948,-4.3109,-11.6206,0.6776,0.6732,1.4519,40
6.206,119,5.3859,2.2277,-15.6066,-0.215,0.7207,0.9504,73,5.826,112,2.5976,0.0921,-11.6233,1.8632,-0.9853,-0.5964,88,5.907,114,5.5032,-1.3105,-15.8539,0.467,-1.616,-1.9174,70,5.658,109,6.2617,2.1459,-14.2744,-0.1825,0.0427,1.5601,40
6.258,120,8.9875,0.6579,-18.3919,-0.8343,-0.1433,1.2012,73,5.878,113,2.2677,-1.6708,-8.7073,2.0316,-1.2198,-0.477,88,5.959,115,9.2822,-5.5682,-12.6493,-0.0488,-1.3772,-1.11,70,5.71,110,9.6874,-3.7307,-13.6735,-0.7156,0.437,1.819,40
6.31,121,8.7184,-0.5113,-19.3068,-1.2863,0.0909,1.5533,73,5.93,114,4.8963,-1.3802,-9.3184,2.1545,-1.55,-0.0916,88,6.01,116,12.0403,-6.5879,-14.8577,0.0103,-0.5478,-0.7979,70,5.762,111,12.1876,-3.224,-14.6577,-0.552,0.2502,1.2024,40
6.361,122,4.9171,-3.4522,-20.1962,-1.6161,0.7488,0.6207,73,5.981,115,8.493,-2.8014,-12.5568,2.2277,-1.3631,-0.2638,88,6.062,117,14.0533,-3.1598,-11.9953,-0.4708,0.2785,-0.1801,70,5.813,112,10.2935,-3.6573,-15.069,0.2718,-0.3735,0.2062,40
6.413,123,0.5484,-4.6215,-19.1403,-1.4662,-0.0985,0.6208,73,6.033,116,11.0709,-2.366,-11.171,2.2383,-0.5201,-0.5603,88,6.114,118,12.0629,-5.1642,-13.8974,-1.0189,-0.0142,0.4668,70,5.865,113,10.5307,0.0915,-15.4381,0.873,-0.9394,-0.5209,40
6.465,124,-0.8633,-7.0711,-19.7255,-0.4281,0.0625,0.7196,73,6.085,117,10.0704,-0.5347,-10.2429,2.2974,-0.0779,-0.9996,88,6.166,119,10.6694,-6.842,-14.6181,-1.4188,-0.6838,0.9977,70,5.917,114,10.1034,3.8105,-13.2378,1.3119,-1.3524,-1.0516,40
6.517,125,0.0246,-5.7073,-20.5968,0.3619,-0.6237,1.1964,73,6.137,118,6.9436,1.9446,-9.3901,2.213,-0.1036,-1.4159,88,6.217,120,8.4776,-4.3508,-12.8682,-1.0792,-1.1725,1.3035,70,5.969,115,9.3369,3.1044,-11.198,0.3616,-1.1342,-1.4389,40
6.569,126,3.4569,-4.5585,-20.4759,0.9385,-1.1245,1.5311,73,6.189,119,5.125,3.7533,-8.0814,0.9484,-0.2638,-1.7198,88,6.269,121,6.8942,-2.7655,-9.955,-0.3373,-1.2942,1.5563,70,6.021,116,5.3569,-0.1617,-8.8689,-0.4131,-0.1428,-1.7216,40
6.62,127,7.5796,-4.2611,-22.9407,0.9028,-1.4901,1.7941,73,6.24,120,4.2379,2.533,-9.2024,0.0121,0.1558,-1.9415,88,6.321,122,5.8474,-1.3491,-11.2712,0.1619,-0.786,1.6143,70,6.072,117,1.1998,-5.4148,-14.4541,0.184,0.1422,-1.1112,40
6.672,128,10.5886,-4.6131,-23.9801,1.3321,-1.7568,1.3146,73,6.292,121,3.9481,3.7265,-8.1677,-0.6488,0.3669,-2.1034,88,6.373,123,9.5334,4.3673,-11.6319,-0.0805,-0.6468,1.2102,70,6.124,118,2.6654,-2.1121,-18.5305,-0.5229,-0.1611,-1.0262,40
6.724,129,9.6066,-3.3787,-19.7529,1.6466,-1.1553,0.3138,73,6.344,122,7.8009,3.3745,-9.3266,-1.1535,0.9469,-1.6767,88,6.425,124,12.2237,1.7749,-14.5927,0.4651,-1.067,0.8868,70,6.176,119,1.7318,-4.243,-20.1218,-0.4893,0.5674,-0.8384,40
6.776,130,7.1927,-2.5074,-15.523,0.5244,-0.4142,0.1538,73,6.396,123,10.6128,4.6427,-10.1193,-1.5219,1.3702,-0.5583,88,6.476,125,13.9274,0.9218,-14.1927,-0.275,-0.7292,0.4068,70,6.228,120,6.3812,-5.2535,-19.55,-0.4608,0.46,-0.7287,40
6.828,131,4.5065,-4.0812,-13.0336,-0.1056,0.3801,0.2458,73,6.448,124,12.6651,0.8768,-6.4288,-1.1343,1.1377,-0.2258,88,6.528,126,9.7187,3.4195,-12.6883,0.4758,-0.4215,-0.2621,70,6.279,121,6.9426,-6.6136,-16.4297,0.1867,0.4648,-0.6285,40
6.879,132,3.2801,-3.4165,-11.945,0.0315,0.3046,0.0637,73,6.499,125,7.0423,5.9668,-8.9534,-1.2215,0.6163,-0.4767,88,6.58,127,8.0804,4.492,-11.2403,0.3265,-0.107,-0.8596,70,6.331,122,5.336,-6.4318,-13.5406,-0.4182,0.4012,0.0055,40
6.931,133,3.4351,-4.5904,-11.5496,-0.4748,0.8515,0.117,73,6.551,126,2.6379,2.6673,-8.8758,-1.5716,-0.2229,-1.0343,88,6.632,128,6.5123,1.7602,-10.404,-0.2301,0.5921,-1.2788,70,6.383,123,2.1712,-7.5953,-12.1815,-0.1062,0.8069,0.6844,40
6.983,134,2.0407,-5.7158,-11.8076,-1.0239,1.1385,0.6048,73,6.603,127,1.3644,6.7731,-6.2126,-1.7717,-0.8353,-1.3174,88,6.684,129,5.3889,2.2487,-10.2234,0.5086,0.6802,-1.6056,70,6.435,124,3.4843,-7.8035,-10.7893,0.3153,0.4785,1.1798,40
7.035,135,4.5284,-7.7239,-14.1895,-0.9639,0.1616,1.1181,73,6.655,128,3.5633,5.8973,-7.4391,-1.9731,-0.071,-1.3308,88,6.736,130,5.529,-1.5437,-15.4664,0.8612,-0.0681,-1.8458,70,6.487,125,2.4965,-7.0162,-10.7508,0.1476,0.8417,1.5414,40
7.086,136,8.1255,-9.351,-17.9838,-0.1626,0.8004,1.1423,73,6.707,129,5.3766,4.9232,-7.8243,-2.1023,0.6068,-1.6009,88,6.787,131,9.301,-6.3637,-13.6337,1.2906,-0.7231,-0.794,70,6.538,126,6.9394,0.1714,-15.8276,-0.5693,0.5801,0.639,40
7.138,137,9.2864,-8.2989,-18.1893,0.5557,1.2666,0.1586,73,6.759,130,6.8554,3.4613,-7.1805,-1.8197,1.1077,-1.8548,88,6.839,132,8.8083,-4.9801,-17.1929,0.2675,-0.4841,-1.1495,70,6.59,127,1.2739,-5.1717,-17.4045,-1.0875,1.1083,0.1965,40
7.19,138,7.7557,-5.5482,-15.5201,1.0799,1.5622,-0.5594,73,6.811,131,9.9228,2.7663,-6.6683,-1.7957,1.4618,-2.0365,88,6.891,133,10.9649,-0.7446,-17.4454,0.8717,0.0968,-1.3924,70,6.642,128,6.047,-5.3804,-17.437,-0.9365,1.1797,0.0636,40
7.242,139,4.5929,-0.86,-14.2739,0.2476,1.8226,-1.0456,73,6.862,132,12.1615,-0.7206,-8.4884,-0.9036,1.5463,-1.9414,88,6.943,134,12.153,-2.4998,-14.6406,-0.0315,0.746,-0.6989,70,6.694,129,6.0902,1.0142,-20.7075,-0.0088,0.1942,-0.625,40
7.294,140,4.0712,-2.0699,-14.7553,-0.4967,0.9092,-1.0166,73,6.914,133,11.5361,-0.4266,-6.949,-0.3955,0.8584,-1.3232,88,6.994,135,10.954,-5.9303,-14.039,-0.6333,0.3351,0.129,70,6.745,130,5.2201,-1.4941,-19.3818,-0.0936,-0.525,-0.6548,40
7.345,141,3.3904,-1.5458,-14.2012,-1.0324,1.346,-0.824,73,6.966,134,7.0155,-3.5514,-8.6312,-0.4907,0.4232,-0.5855,88,7.046,136,8.9414,-4.8301,-11.7664,0.0491,0.3595,0.7719,70,6.797,131,4.9465,-0.7374,-16.117,-0.7451,-1.0494,-0.1873,40
7.397,142,3.0857,-1.8894,-14.0081,-1.4309,1.4114,-0.6571,73,7.018,135,6.3978,-3.9032,-10.4019,0.3136,-0.3638,0.2381,88,7.098,137,7.2693,-3.9479,-11.8412,-0.6394,0.9407,1.2411,70,6.849,132,2.752,0.4524,-12.1038,-1.2209,-0.8802,-0.1726,40
7.449,143,4.9467,-2.4051,-12.8643,-0.6601,1.7125,-0.7797,73,7.069,136,6.2936,-3.3484,-10.1138,-0.035,-0.9382,0.8391,88,7.15,138,4.3816,1.0796,-12.0958,-1.1419,1.3649,1.5835,70,6.901,133,1.0188,-2.3869,-14.8079,-1.5614,0.0408,-0.092,40
7.501,144,8.6669,-3.4725,-14.2029,-0.2207,0.9052,-0.9944,73,7.121,137,6.7032,-2.449,-9.4156,-0.6829,-1.3574,1.2778,88,7.202,139,3.604,6.1398,-16.8329,-0.8027,0.4666,1.3221,70,6.953,134,-1.4275,-7.0388,-13.3491,-1.1685,0.5142,-0.0861,40
7.553,145,11.3821,-5.9536,-16.063,-0.5023,1.3086,-1.3492,73,7.173,138,6.6802,-1.4444,-13.4798,0.1734,-0.9306,0.2522,88,7.254,140,7.8961,-0.7559,-11.325,-1.1238,0.2546,1.0158,70,7.005,135,4.0754,0.1549,-17.7239,-0.6354,-0.2915,-0.7342,40
7.604,146,9.8834,-7.4695,-15.2042,-0.0344,1.135,-1.4353,73,7.225,139,9.7918,0.8591,-11.7492,-0.2156,-0.4281,-0.3917,88,7.305,141,5.8797,-3.4286,-12.8509,-1.3819,0.7989,0.7819,70,7.056,136,3.0804,-5.1837,-15.9818,-0.2005,0.4722,-0.044,40
7.656,147,5.5191,-8.2423,-13.2808,0.6492,1.4954,-0.6878,73,7.277,140,12.0659,3.9404,-15.69,-0.8374,-0.6007,0.2263,88,7.357,142,9.557,-0.9437,-12.0424,-0.7322,1.2204,0.771,70,7.108,137,7.3655,0.4993,-18.1106,-0.037,0.2957,-0.3719,40
7.708,148,3.2906,-5.8367,-13.5336,0.963,0.4221,-0.0446,73,7.328,141,12.8098,1.9402,-14.6162,-0.9856,-0.4462,0.7058,88,7.409,143,8.6535,-1.2369,-11.7999,0.1421,1.0656,0.1589,70,7.16,138,4.309,-2.6414,-19.1974,-0.5171,0.9008,0.4089,40
7.76,149,2.9555,-4.2346,-11.174,0.9551,-0.249,0.2002,73,7.38,142,5.4067,2.1443,-13.8852,-0.7634,0.3534,0.7121,88,7.461,144,8.4991,-1.7138,-14.3609,0.434,0.1043,-0.3674,70,7.212,139,3.8991,-1.3705,-14.5743,0.2973,0.4211,-0.0198,40
7.812,150,1.4276,-3.1869,-9.8821,1.3715,0.5007,-0.4113,73,7.432,143,3.5838,2.6907,-13.1727,0.1145,-0.4147,0.5535,88,7.512,145,6.3987,1.3754,-13.0205,-0.3585,-0.5255,-0.9421,70,7.264,140,4.3378,-2.2683,-12.7618,0.8067,0.8382,-0.2031,40
7.863,151,1.2514,-3.9528,-10.7173,1.6753,0.8222,-0.9753,73,7.484,144,1.8722,2.3847,-11.9863,0.2875,-0.0801,0.4015,88,7.564,146,4.7007,1.2977,-12.2657,-0.6033,-0.5542,-1.3616,70,7.316,141,3.5652,-1.1798,-12.9362,0.6968,1.2811,-0.0027,40
7.915,152,5.97,2.505,-12.0583,1.8971,-0.0693,-1.3869,73,7.536,145,1.9035,2.0962,-11.0361,0.1538,-0.2689,0.267,88,7.616,147,2.0655,-4.2899,-14.7012,0.2362,-1.0259,-1.6678,70,7.367,142,1.8928,-2.3707,-17.4226,-0.168,1.62,0.1718,40
7.967,153,9.4138,3.4524,-14.0899,0.782,0.1658,-0.4565,73,7.587,146,2.1567,1.3543,-10.3807,0.0954,-0.5265,0.1261,88,7.668,148,6.7733,-6.322,-11.9264,-0.0437,-1.0373,-0.5395,70,7.419,143,5.9619,2.7797,-20.697,-0.7965,0.5169,-0.4389,40
8.019,154,10.4249,2.4301,-12.4598,-0.0691,0.2061,0.3434,73,7.639,147,3.825,0.3364,-9.7644,-0.5157,-0.9751,0.1564,88,7.72,149,4.1716,-7.8339,-16.5249,0.3111,-0.5745,-0.5238,70,7.471,144,6.712,-0.4158,-20.8217,0.0857,-0.007,-0.6365,40
8.07,155,6.8259,1.9193,-12.1487,-0.2849,0.8328,0.8786,73,7.691,148,7.7111,-0.9392,-13.4984,-0.1042,-0.6258,-0.2007,88,7.772,150,8.3104,-7.4008,-15.0338,-0.3943,0.2591,-0.2503,70,7.523,145,7.9046,-2.0153,-19.6453,0.645,0.1462,-1.0278,40
8.122,156,3.585,0.9597,-11.3347,-0.8853,1.0767,0.8511,73,7.743,149,10.5473,-1.7788,-13.1183,0.5957,-0.1863,-0.8329,88,7.823,151,6.9934,-9.707,-18.7033,-0.963,-0.1361,0.4918,70,7.575,146,7.9614,2.6921,-19.9469,1.1454,-0.5601,-1.4215,40
8.174,157,2.3538,-0.3513,-10.6945,-1.3235,0.2426,0.8969,73,7.795,150,7.7569,-0.6812,-10.7418,1.1065,0.5431,-1.0022,88,7.875,152,6.5396,-10.3829,-18.3524,-1.3781,-0.7728,0.976,70,7.626,147,8.9157,3.9648,-17.8425,1.5107,-1.0756,-1.7089,40
8.226,158,2.3574,-1.5733,-10.382,-1.4047,-0.2302,1.1565,73,7.847,151,3.6679,-0.0194,-8.9517,1.3777,0.5302,-0.8018,88,7.927,153,5.4164,-5.05,-14.3727,-0.3292,-1.2374,1.3282,70,7.678,148,6.9749,1.3871,-13.679,0.4255,-0.8132,-1.3986,40
8.278,159,2.273,-1.8639,-10.1884,-1.0395,-0.4448,1.4914,73,7.898,152,1.4305,0.8471,-8.8545,0.9588,0.7597,-0.4551,88,7.979,154,5.0492,-2.7422,-10.9996,0.005,-0.7426,1.4999,70,7.73,149,3.5352,-2.355,-10.5498,-0.3497,-0.5047,-1.3134,40
8.329,160,5.7129,-2.8422,-10.9063,-0.6112,-0.9939,1.6392,73,7.95,153,0.7708,1.2451,-8.8156,0.228,0.817,-0.1586,88,8.031,155,4.3345,-2.2455,-13.7194,-0.1357,-0.145,1.5844,70,7.782,150,1.8955,-7.0155,-15.6809,-0.5018,0.0588,-1.0466,40
8.381,161,9.2262,-3.3779,-14.3232,0.2097,-0.1791,1.0482,73,8.002,154,0.2271,1.7061,-6.6544,-0.5136,0.7893,-0.1131,88,8.082,156,8.4293,1.3392,-17.5609,-0.6199,-0.6597,1.6054,70,7.834,151,6.5007,0.1719,-19.4258,-1.0433,-0.6159,-1.3854,40
8.433,162,11.7903,-2.8378,-12.4539,0.8274,0.0937,0.0899,73,8.054,155,5.0851,-0.321,-6.2601,-1.0549,0.1546,-0.2158,88,8.134,157,11.4178,-0.6561,-17.9787,0.0211,-0.6133,1.1797,70,7.885,152,3.253,-3.6592,-21.2891,-0.7872,0.2355,-1.3646,40
8.485,163,8.2052,-0.4103,-9.3587,0.0176,0.7508,0.0645,73,8.106,156,8.6308,0.6456,-8.9932,-1.4443,0.6426,0.0581,88,8.186,158,12.2158,-0.3477,-16.8793,-0.0283,-0.0732,0.5034,70,7.937,153,7.4915,-6.8883,-21.1254,-0.8952,0.7317,-0.9549,40
8.536,164,3.5109,-2.3117,-9.0861,-0.6191,1.2304,-0.0602,73,8.158,157,11.2185,-1.2372,-9.0476,-0.5451,1.0585,-0.2199,88,8.238,159,10.7804,1.3776,-15.8747,0.6559,0.0902,-0.2838,70,7.989,154,7.4615,-5.73,-16.7239,-0.3569,0.8828,-0.551,40
8.588,165,2.5862,-2.2238,-8.5133,-0.0677,0.7005,-0.2507,73,8.209,158,6.9903,3.1356,-9.258,0.1118,1.4516,-0.1902,88,8.289,160,9.5811,2.081,-16.3,1.0104,-0.4463,-0.8734,70,8.041,155,5.2997,-6.5724,-13.8762,-0.6768,1.3245,0.2365,40
8.64,166,2.5491,-2.04,-8.9999,-0.6246,0.8121,-0.0369,73,8.261,159,2.4707,4.1676,-11.1454,0.6316,0.3989,-0.4175,88,8.341,161,7.194,2.3174,-13.9219,0.0716,-0.3855,-1.3114,70,8.093,156,3.2798,-7.7589,-14.1725,-1.171,1.6517,0.8529,40
8.692,167,1.7205,-2.6124,-9.4246,-1.0727,1.2138,0.3761,73,8.313,160,1.9173,6.5327,-10.8827,0.2899,-0.3815,-0.5588,88,8.393,162,6.9752,2.3902,-12.5265,-0.5358,0.0402,-1.5575,70,8.144,157,0.9657,-6.1362,-13.2302,-0.9402,0.9115,1.3029,40
8.744,168,4.6934,-4.5069,-10.6252,-0.7794,0.2167,0.4636,73,8.365,161,4.901,6.7088,-11.1233,-0.4549,-0.5458,-0.8997,88,8.445,163,4.5041,2.0307,-17.0838,0.2714,-0.0125,-1.715,70,8.196,158,2.241,-3.558,-13.7899,-1.1609,1.1819,1.6312,40
8.795,169,8.4821,-4.6031,-13.59,-0.083,0.6864,0.2297,73,8.417,162,6.9966,5.9616,-11.0665,-0.5056,-0.5536,-1.343,88,8.497,164,8.261,-3.7549,-16.2598,0.6315,-0.6212,-1.1208,70,8.248,159,6.7529,-0.1616,-9.8458,-0.9198,0.1958,0.5191,40
8.847,170,11.2472,-4.5361,-12.5261,0.6138,-0.0307,-0.5074,73,8.468,163,7.9713,5.3657,-10.0041,-0.6881,-0.4359,-1.6666,88,8.548,165,10.9743,2.0968,-19.2097,0.527,-0.5486,-1.4645,70,8.3,160,1.7403,-4.573,-13.209,-0.8046,0.8279,0.8091,40
8.899,171,8.3195,-2.8032,-10.7583,0.4016,0.66,-0.9711,73,8.52,164,10.7372,4.5149,-11.2398,-1.0972,-0.9307,-1.9027,88,8.6,166,13.2753,6.0527,-17.5793,1.0612,0.1242,-1.0977,70,8.352,161,6.3874,-8.1407,-16.6576,-0.5028,1.2892,0.5584,40
8.951,172,0.6101,-0.6395,-12.5671,0.0312,1.1641,-0.7869,73,8.572,165,12.4475,2.6391,-10.8592,-1.4694,-0.9723,-1.6546,88,8.652,167,13.4971,-0.543,-13.4826,0.0993,0.702,-0.3569,70,8.403,162,8.0528,-0.6493,-20.1386,0.3077,0.2741,-0.2639,40
9.003,173,0.8222,-0.4984,-12.7031,-0.6546,0.1803,-1.1882,73,8.624,166,12.3128,0.4325,-8.7709,-1.7525,-1.3823,-0.5427,88,8.704,168,13.2478,-3.2052,-14.6418,-0.6028,-0.0463,0.3797,70,8.455,163,6.2619,-1.5653,-19.796,0.7129,-0.4667,-0.6604,40
9.055,174,3.9882,-1.1814,-12.118,-1.1551,0.6274,-0.8063,73,8.676,167,8.4635,-2.3092,-7.5796,-1.6441,-1.4392,0.1982,88,8.756,169,10.8236,-3.7707,-12.6428,-0.1018,-0.4881,0.9548,70,8.507,164,6.1786,-0.5764,-15.0554,-0.1567,-0.4114,0.0738,40
9.107,175,2.561,-2.724,-11.5757,-1.5204,1.1071,-0.6386,73,8.728,168,7.1543,-4.0648,-8.1241,-0.5282,-1.6828,0.7927,88,8.808,170,6.7093,-2.1762,-11.7355,0.3171,-0.0219,1.3746,70,8.559,165,3.0446,-1.1098,-10.6241,-0.7915,0.2994,-0.0488,40
9.158,176,1.8309,-4.3931,-10.2637,-0.9566,0.8124,-0.6482,73,8.779,169,6.0465,-3.9388,-8.299,0.2281,-1.5258,1.2439,88,8.859,171,4.9985,3.0773,-12.2481,-0.0217,0.5833,1.5614,70,8.61,166,4.2785,-3.8294,-8.1879,-0.0521,0.2969,-0.6991,40
9.21,177,6.3929,-3.7,-15.4184,-0.0238,-0.0764,-0.8908,73,8.831,170,5.9092,-3.4626,-8.3297,0.8382,-1.2083,1.5732,88,8.911,172,8.9138,7.5978,-6.3551,0.66,-0.2477,0.6109,70,8.662,167,8.0825,-8.0917,-3.3681,0.2987,0.2002,-0.6186,40
9.262,178,9.7224,-3.4555,-15.0013,0.3081,0.4793,-0.4178,73,8.883,171,7.2504,-1.9943,-9.3025,1.2835,-0.7746,1.7873,88,8.963,173,11.7715,8.2422,-12.6431,0.9624,-0.4934,-0.0675,70,8.714,168,11.0163,-0.9603,-10.4394,0.6623,-0.5207,-1.1229,40
9.314,179,10.106,-3.1888,-13.7872,0.2035,0.9641,-0.2559,73,8.935,172,10.2111,-0.3342,-11.3711,0.9643,-0.4091,1.8071,88,9.015,174,12.5149,2.0602,-14.2452,0.3926,0.0094,0.0096,70,8.766,169,9.5311,-3.7663,-12.8391,1.0268,-0.2412,-0.9792,40
9.365,180,6.5871,-2.9616,-12.0236,0.1351,1.386,0.1299,73,8.987,173,12.3719,1.309,-12.6052,0.6194,-0.6475,1.8809,88,9.067,175,14.127,3.6728,-13.2838,0.5318,0.6325,-0.2936,70,8.818,170,9.1828,-4.9054,-12.287,0.7071,0.5089,-0.3009,40
9.417,181,2.1763,-2.5455,-12.3646,0.1782,1.694,0.49,73,9.038,174,13.949,1.8582,-11.5575,0.7934,-1.0723,1.6385,88,9.118,176,11.5138,4.31,-12.9799,1.0647,0.2235,-0.8297,70,8.869,171,6.0667,-4.2188,-12.8897,0.4023,0.6506,0.0433,40
9.469,182,1.4989,-2.6913,-11.8499,0.0007,0.567,0.5814,73,9.09,175,10.173,1.4586,-9.3154,1.2508,-0.94,1.1714,88,9.17,177,10.48,3.603,-12.7632,0.6093,-0.5024,-1.1508,70,8.921,172,3.5071,-5.4074,-11.5677,0.8775,0.8454,0.4362,40
9.521,183,2.643,-3.1034,-10.1975,0.3381,0.1199,0.629,73,9.142,176,5.2635,2.4754,-8.8139,1.5846,-1.2219,0.8892,88,9.222,178,8.253,2.4497,-11.6322,-0.2305,-0.9334,-1.4549,70,8.973,173,4.6803,-3.6685,-10.5498,1.3151,0.4775,0.3639,40
9.573,184,2.0638,-2.1503,-9.5496,0.3716,0.7699,1.0046,73,9.194,177,4.1299,2.2984,-8.5421,1.7014,-1.0776,0.4797,88,9.274,179,6.5261,0.0148,-10.4241,0.3227,-1.1461,-1.6378,70,9.025,174,3.5913,-3.9671,-10.5555,1.5439,0.5799,0.5976,40
9.624,185,5.0831,-5.7976,-5.4231,-0.3024,0.064,0.7762,73,9.246,178,3.5587,0.5868,-7.3391,1.8767,-0.5865,0.1259,88,9.326,180,7.9309,-0.1025,-5.0239,0.912,-1.5099,-1.8647,70,9.076,175,2.5546,-6.1357,-15.685,1.0748,0.9817,1.0261,40
9.676,186,8.7665,-3.7576,-8.2753,0.4537,0.3912,0.4104,73,9.297,179,0.8959,1.0098,-10.6661,2.0414,-0.2399,-0.1908,88,9.377,181,11.0541,-0.518,-5.9739,0.2055,-1.5124,-0.9915,70,9.128,176,6.8211,0.814,-19.4288,0.1669,0.2982,0.3869,40
9.728,187,7.9007,-3.6399,-9.8169,0.8362,0.9552,0.2699,73,9.349,180,4.6225,4.0295,-8.7815,2.1616,-0.5603,-0.794,88,9.429,182,11.4503,-5.6151,-11.1581,-0.3211,-1.013,-0.8415,70,9.18,177,4.4869,-3.239,-21.7279,0.4809,0.3454,0.1587,40
9.78,188,6.0601,-4.1402,-11.3973,1.2846,0.3417,-0.1465,73,9.401,181,8.2931,4.8473,-10.7577,2.2494,-1.0816,-1.2659,88,9.481,183,13.6227,-4.723,-11.2106,-0.8473,-0.061,-0.5022,70,9.232,178,4.8374,-7.5282,-21.8196,-0.2741,0.9371,0.1566,40
9.832,189,4.6824,-1.0672,-10.6158,1.612,-0.4199,0.0969,73,9.453,182,10.9721,4.9741,-12.4831,1.5935,-0.7255,-1.1438,88,9.533,184,8.0841,-8.6841,-13.871,-1.2936,0.4728,0.2755,70,9.284,179,7.8437,-3.7006,-20.3796,0.4746,0.5743,-0.5568,40
9.883,190,2.5499,-0.2463,-11.4238,0.5103,0.3238,-0.0985,73,9.505,183,8.3838,4.872,-13.0721,0.483,0.1469,-0.6776,88,9.585,185,7.6393,-9.9125,-14.4752,-1.6193,-0.3283,0.8788,70,9.335,180,4.605,-2.4858,-22.0227,1.0211,0.0457,-1.0778,40
9.935,191,-0.3998,-3.0274,-11.3698,0.6055,-0.2503,-0.3594,73,9.556,184,1.7107,3.2116,-15.5277,-0.3275,0.4566,-0.6815,88,9.636,186,7.0974,-6.8864,-13.4414,-0.5053,-0.913,1.1731,70,9.387,181,6.1396,-0.2524,-19.2062,1.062,-0.6334,-1.458,40
9.987,192,0.7705,-2.2828,-10.1471,0.8976,-0.852,-0.6437,73,9.608,185,2.9419,3.8417,-16.1852,-0.9191,-0.3274,-0.3614,88,9.688,187,5.6914,-3.4753,-11.2508,0.143,-0.8951,1.3274,70,9.439,182,4.7482,-0.9705,-15.422,0.294,-0.5987,-1.5707,40
10.039,193,3.1739,-3.6817,-9.8825,1.1206,-0.6532,-0.193,73,9.66,186,3.2547,2.5553,-17.8867,-1.3508,0.2208,-0.4531,88,9.74,188,5.8978,-0.135,-9.3926,0.7044,-0.3381,1.3694,70,9.491,183,2.242,-3.6548,-9.6363,0.7912,-0.9004,-1.2931,40
10.091,194,7.3731,-0.5725,-13.6799,1.2657,-1.1461,0.5358,73,9.712,187,2.5328,1.6052,-16.8565,-1.6659,0.8402,-0.936,88,9.792,189,9.5702,5.2534,-6.2105,-0.0135,-0.1727,0.9943,70,9.542,184,6.7536,-5.9003,-4.4253,-0.0996,-1.241,-0.6928,40
10.142,195,9.8239,2.3468,-13.1576,1.5981,-0.2338,0.4632,73,9.764,188,4.0297,-1.3467,-15.306,-1.8959,0.8731,-1.1231,88,9.844,190,12.2392,-1.2348,-10.3202,0.4169,-0.1658,1.102,70,9.594,185,6.8769,-8.9139,-7.5775,0.1153,-0.2216,0.1671,40
10.194,196,8.7279,6.028,-10.3533,1.4718,0.4096,-0.2192,73,9.816,189,7.8604,-1.1354,-17.2222,-0.7799,1.0693,-1.0727,88,9.895,191,14.1984,-1.566,-11.1529,0.0489,0.5572,0.6573,70,9.646,186,10.1364,-6.4067,-9.7306,0.3502,0.1968,0.0814,40
10.246,197,3.1025,7.0072,-12.182,0.4493,0.9814,-0.8191,73,9.867,190,10.6563,-4.3399,-14.9119,0.1025,1.1357,-1.2964,88,9.947,192,12.1257,-0.1747,-10.3645,0.7122,0.6419,0.1255,70,9.698,187,8.7032,-7.1993,-8.9134,-0.1923,0.8286,0.618,40
10.298,198,3.5684,6.5801,-10.6067,-0.3495,0.0469,-0.5297,73,9.919,191,8.5624,-5.4945,-14.0153,0.7466,1.4762,-1.1812,88,9.999,193,10.4665,2.9228,-11.9722,1.1963,-0.2049,-0.5431,70,9.75,188,5.7579,-8.6857,-13.1978,-0.8174,1.2897,1.1314,40
10.35,199,4.4728,2.8433,-9.9214,-0.9324,0.5194,-0.5404,73,9.971,192,0.5792,-2.2828,-12.6694,1.2166,1.2093,-0.1967,88,10.051,194,9.283,3.7689,-10.8689,0.1979,-0.3969,-1.0684,70,9.802,189,2.7166,-9.4178,-12.236,-1.0951,1.539,1.5061,40
10.401,200,4.0192,2.8509,-9.6165,-0.6447,1.0615,-0.6514,73,10.023,193,0.0098,0.2411,-10.303,1.5597,0.2739,0.5218,88,10.103,195,7.3069,2.1586,-9.6341,0.0095,-0.1533,-1.4025,70,9.853,190,2.8705,-7.4196,-11.0498,-0.3776,0.4564,1.7796,40
10.453,201,5.584,1.8213,-8.8379,-1.114,0.8727,-0.5584,73,10.075,194,2.3402,5.5028,-11.3301,0.5386,-0.0053,1.0033,88,10.154,196,6.3809,0.6581,-10.04,-0.152,0.2322,-1.6313,70,9.905,191,2.4483,-7.382,-13.6015,-0.5855,0.3411,1.9792,40
10.505,202,9.1321,1.1618,-13.8314,-1.4904,1.3194,0.0475,73,10.126,195,3.779,6.417,-13.4095,-0.287,0.5363,0.6319,88,10.206,197,9.9228,-4.7568,-5.1679,0.1598,-0.5027,-0.8713,70,9.957,192,6.9041,-2.8146,-17.9082,-1.1044,-0.2753,1.0224,40
10.557,203,11.6583,-1.0249,-12.805,-1.7652,1.1311,0.0652,73,10.178,196,3.1916,3.1183,-11.5176,-0.7289,1.0705,-0.0543,88,10.258,198,12.5079,1.8802,-11.1049,0.2207,-0.6221,-1.1883,70,10.009,193,4.97,-7.351,-17.3439,-0.8686,0.484,0.8587,40
10.608,204,9.4458,-2.3187,-12.0981,-1.9423,1.339,-0.4199,73,10.23,197,7.2487,2.9602,-9.8648,-1.1865,0.4138,-0.7176,88,10.31,199,14.3223,-0.4737,-12.873,0.7496,-0.0096,-1.0229,70,10.06,194,5.0302,-8.6675,-18.3064,-0.6676,1.0382,0.9268,40
10.66,205,5.9845,-2.6032,-12.2959,-1.0166,1.6597,-0.9812,73,10.282,198,10.2099,2.0543,-9.8271,-1.5153,0.3175,-1.0919,88,10.362,200,11.9106,-2.9756,-11.4937,-0.1281,0.6713,-0.2049,70,10.112,195,8.0667,-3.7713,-21.342,0.1874,0.0909,0.005,40
10.712,206,2.6331,-1.3545,-11.3991,-0.7667,0.542,-1.016,73,10.334,199,8.1755,-2.6628,-10.5035,-0.5916,0.3875,-0.9661,88,10.413,201,10.8687,-5.4077,-13.0595,-0.7687,0.3264,0.5174,70,10.164,196,3.9699,-3.5673,-22.2627,0.8115,-0.2691,-0.5447,40
10.764,207,2.5802,-0.9717,-11.9943,-1.2035,-0.2738,-0.4992,73,10.385,200,2.2186,-5.5848,-10.5787,-0.5091,0.0319,-0.2585,88,10.465,202,10.0926,-6.2314,-13.316,-0.0381,-0.4352,1.0554,70,10.216,197,5.8696,-1.458,-19.4966,0.008,-0.8632,0.029,40
10.816,208,3.6001,-1.3503,-10.7875,-1.2142,0.2515,-0.5026,73,10.437,201,4.2493,-6.099,-11.1613,0.3001,-0.3021,0.4503,88,10.517,203,4.869,-0.5372,-11.1381,-0.4683,-0.1316,1.448,70,10.268,198,4.6295,-2.0135,-14.5616,-0.6712,-0.0717,0.5977,40
10.867,209,2.7294,-2.4257,-9.9351,-1.3774,0.3344,-0.6471,73,10.489,202,3.3695,-6.2076,-10.799,0.259,-0.3873,0.994,88,10.569,204,4.1077,2.2118,-10.3682,0.1831,0.3729,1.4287,70,10.319,199,4.074,-3.4304,-9.0334,-1.138,0.17,0.3056,40
10.919,210,7.0487,-3.1161,-10.4048,-1.0243,-0.4253,-0.3464,73,10.541,203,3.6181,-5.3948,-10.5473,0.8473,-0.327,1.3909,88,10.62,205,8.2637,6.8794,-4.9831,0.8101,-0.0956,0.4601,70,10.371,200,8.0907,-7.8004,-3.9852,-1.5076,-0.2231,-0.1952,40
10.971,211,10.2011,-6.1765,-10.0711,-1.1727,-0.9479,0.1969,73,10.593,204,4.9233,-4.8097,-10.0229,1.2902,-0.2447,1.6805,88,10.672,206,11.297,6.1739,-10.6263,1.187,-0.4408,0.4103,70,10.423,201,11.0222,-2.2624,-10.8898,-0.8165,-0.8296,-0.8139,40
11.023,212,9.3905,-5.9783,-10.1946,-0.1815,-0.2896,0.0999,73,10.644,205,8.5126,-2.4915,-9.9248,1.6133,-0.8488,1.7294,88,10.724,207,12.5611,0.6811,-12.2116,0.2123,0.1501,0.6066,70,10.475,202,8.0682,-6.2479,-12.347,-0.5194,0.0795,-0.237,40
11.075,213,5.9912,-3.9491,-8.7564,0.5419,0.4711,-0.0277,73,10.696,206,11.1323,0.4103,-10.66,1.8492,-1.0108,0.753,88,10.776,208,11.1487,0.277,-11.3269,0.0727,0.7879,0.299,70,10.526,203,7.2195,-7.2503,-12.5168,-1.029,0.743,0.5063,40
11.126,214,2.0835,-4.1072,-9.6077,0.19,1.0262,0.1853,73,10.748,207,10.8155,0.3747,-10.5224,0.6696,-1.2545,-0.0444,88,10.828,209,10.171,1.7193,-11.9112,0.7296,0.2126,-0.2971,70,10.578,204,4.9232,-7.4222,-14.6198,-1.1969,0.715,0.9977,40
11.178,215,1.4355,-3.2936,-9.7255,0.3184,0.1987,0.5563,73,10.8,208,4.5988,-0.7744,-11.1094,0.9893,-0.2365,-0.7188,88,10.879,210,8.3657,2.6395,-11.5447,0.1137,-0.2741,-0.8868,70,10.63,205,4.6557,-7.3551,-12.837,-0.5797,-0.1427,1.1356,40
11.23,216,4.4071,-3.497,-9.1039,0.011,-0.4851,0.9079,73,10.852,209,3.3359,-0.6189,-10.4044,0.0948,-0.8453,-1.1969,88,10.931,211,6.5257,3.1521,-11.675,0.7589,-0.7377,-1.3212,70,10.682,206,3.763,-4.5071,-10.8406,0.2516,-0.5362,0.7837,40
11.282,217,4.5548,-2.8165,-9.0228,-0.6164,0.3284,1.3393,73,10.904,210,7.0031,-5.7125,-4.9458,-0.368,-1.1645,-1.0932,88,10.983,212,4.6206,2.6066,-10.8912,1.2122,-1.158,-1.6383,70,10.733,207,2.0583,-5.5493,-11.0723,0.8583,-0.1519,0.5171,40
11.333,218,8.381,-5.0716,-11.3146,-0.9363,-0.4297,1.6541,73,10.955,211,5.1792,-3.529,-6.51,0.4031,-1.5225,-0.6703,88,11.035,213,3.7909,-3.3347,-10.1638,1.2284,-1.2488,-1.2658,70,10.785,208,4.2231,0.9681,-16.0623,0.9632,-0.4663,-0.1919,40
11.385,219,8.8112,-6.2723,-11.6974,-0.2958,-0.0775,0.8241,73,11.007,212,4.4035,-2.5239,-7.6727,0.966,-0.5536,-0.3173,88,11.087,214,6.3072,2.9181,-15.4229,0.7853,-0.4587,-1.1005,70,10.837,209,8.1995,-4.5902,-19.5379,0.258,0.1928,0.5403,40
11.437,220,6.9963,-5.3073,-10.8322,-0.066,-0.2162,0.0418,73,11.059,213,7.6124,-1.2439,-8.813,0.5057,-0.7774,0.3227,88,11.138,215,7.9683,0.9042,-17.8644,1.2497,0.2524,-1.0409,70,10.889,210,10.1819,-2.4431,-18.02,0.0025,0.4603,0.6458,40
11.489,221,4.3133,-5.1866,-12.3801,-0.3756,0.5247,-0.5422,73,11.111,214,10.4753,-0.6477,-13.5963,0.1239,-0.0867,0.8869,88,11.19,216,8.8552,-4.4663,-16.3448,0.2369,0.8625,-0.3147,70,10.941,211,10.1543,-3.5996,-18.6517,0.6765,-0.2379,-0.2,40
11.54,222,1.5262,-4.6986,-13.9183,-0.5064,-0.1945,-0.8626,73,11.162,215,11.1125,-0.6577,-13.4807,0.2481,0.1596,1.0501,88,11.242,217,8.3992,-3.6135,-15.8369,-0.5023,0.1231,0.3445,70,10.992,212,8.1258,-1.9105,-18.3916,1.0096,-0.8404,-0.7631,40
11.592,223,1.7776,-4.5208,-16.2998,-1.0129,-0.8113,-0.6788,73,11.215,216,7.9593,1.1925,-10.7283,0.4776,0.68,0.8957,88,11.294,218,7.7474,-4.9077,-15.3035,-0.6387,-0.5836,0.7056,70,11.044,213,8.152,-0.013,-15.736,1.0751,-1.2801,-1.1935,40
11.644,224,2.9922,-4.4725,-15.8146,-0.0682,-1.2614,-0.8031,73,11.266,217,4.1785,2.6859,-9.5892,-0.3023,0.3523,0.7346,88,11.346,219,6.7824,-1.8935,-12.7428,-0.2798,-1.0993,0.9842,70,11.096,214,5.9454,0.1548,-10.8201,0.5943,-1.4986,-1.4339,40
11.696,225,3.2426,-5.1198,-18.1681,0.6246,-1.59,-0.3794,73,11.318,218,3.2046,3.6778,-8.8778,-0.9006,0.6134,0.4258,88,11.397,220,4.3655,-0.0134,-8.1258,0.4362,-0.8578,1.2273,70,11.148,215,4.0059,-3.2206,-6.6796,-0.2143,-0.4762,-1.1299,40
11.748,226,7.4232,-5.5665,-20.0353,1.1302,-1.8298,-0.1195,73,11.37,219,2.7198,3.0198,-8.058,-1.3373,0.8977,0.2457,88,11.449,221,3.6475,-1.4172,-13.9354,0.4158,-1.1165,1.4812,70,11.2,216,3.1964,-3.7453,-6.6789,-0.8335,-0.6764,-0.4147,40
11.799,227,10.4056,-6.2645,-20.3044,0.7826,-1.4329,-0.1201,73,11.422,220,1.9165,0.9538,-7.2158,-1.6561,1.3342,0.4105,88,11.501,222,7.9279,-3.9965,-13.4125,-0.3718,-1.2456,1.0037,70,11.251,217,7.4502,-3.252,-2.2668,-0.2715,-1.1605,-0.9741,40
11.851,228,9.2151,-8.325,-15.9433,-0.1062,-0.3634,-0.7168,73,11.474,221,3.7344,-1.5364,-7.3658,-1.7523,1.0661,0.9646,88,11.553,223,10.1368,1.9948,-15.8106,0.211,-0.6984,0.8499,70,11.304,218,6.7035,-1.3566,-8.5321,0.3366,-0.9313,-1.0454,40
11.903,229,8.6533,-6.3273,-13.7056,0.5969,0.3678,-1.1983,73,11.525,222,7.6449,-4.82,-11.3963,-0.6126,1.1908,0.1193,88,11.605,224,12.0071,0.8722,-16.0203,0.3666,-0.0256,0.3107,70,11.355,219,8.7266,-4.811,-9.9294,0.448,0.0052,-0.6439,40
11.955,230,7.3658,-4.0265,-11.923,-0.2417,0.9508,-1.2727,73,11.577,223,10.499,-5.3058,-11.4244,-0.995,0.8552,-0.2641,88,11.657,225,9.905,1.7033,-14.795,0.9441,0.0594,-0.3305,70,11.407,220,8.1907,-4.4561,-9.4183,-0.1762,0.6888,0.1296,40
12.007,231,6.1959,-3.5763,-11.9888,-0.5307,1.3764,-1.4007,73,11.629,224,7.194,-2.7411,-12.7584,-0.0545,1.3029,-0.6698,88,11.708,226,8.677,1.6929,-15.4964,0.9911,-0.3861,-0.8445,70,11.459,221,5.2254,-5.0122,-12.3039,-0.8057,1.1877,0.7737,40
12.059,232,5.921,-2.4378,-11.4874,-0.3567,1.687,-1.4936,73,11.681,225,5.1675,2.2989,-11.0505,0.2026,0.2783,-0.3198,88,11.76,227,7.3016,2.6719,-13.2028,0.0481,-0.3324,-1.2272,70,11.51,222,2.8385,-6.1982,-11.9349,-0.7757,1.524,1.245,40
12.11,233,5.6321,-1.9644,-11.5817,-0.5073,1.9136,-1.4194,73,11.733,226,3.3831,4.5536,-10.5736,-0.5319,0.0302,-0.6275,88,11.812,228,6.1844,1.7615,-11.3088,-0.4004,-0.0593,-1.4701,70,11.562,223,3.2372,-4.4737,-10.3784,0.1086,0.602,1.5077,40
12.162,234,8.544,-2.5623,-12.0815,-0.0393,1.8575,-1.711,73,11.784,227,3.6019,6.0581,-9.8345,0.0405,-0.3337,-1.1444,88,11.864,229,4.3852,1.86,-16.2586,-0.73,0.0759,-1.6552,70,11.614,224,5.7463,2.0271,-15.5558,-0.5978,-0.0548,0.7604,40
12.214,235,11.2924,-2.4773,-15.7839,0.5088,2.0381,-1.9239,73,11.836,228,6.4858,6.8128,-10.4484,-0.6278,-0.5711,-1.5216,88,11.915,230,6.1207,-3.8795,-14.1864,0.1438,-0.4652,-1.3996,70,11.666,225,9.3112,0.5597,-19.3345,-0.8187,-0.5128,0.4961,40
12.266,236,12.334,-2.8126,-14.2186,0.1688,1.404,-1.6613,73,11.888,229,9.653,5.435,-10.4404,-0.456,-0.7419,-1.7969,88,11.967,231,9.7329,2.5205,-17.1738,0.3007,-0.5659,-1.5102,70,11.718,226,4.4729,-2.5245,-21.4681,-0.2924,-0.0204,0.3244,40
12.317,237,9.0046,-3.2491,-14.0794,0.0727,1.699,-1.5223,73,11.94,230,11.9646,2.2234,-13.4662,-1.0038,-0.9456,-1.9978,88,12.019,232,12.3692,0.4852,-16.4762,0.896,-0.3186,-1.3272,70,11.769,227,7.0225,-5.683,-19.8007,0.0517,0.6701,0.6149,40
12.369,238,4.0817,-3.2429,-13.2513,0.4641,1.9224,-0.664,73,11.992,231,13.38,0.3213,-12.8376,-1.0122,-1.0302,-1.2431,88,12.071,233,11.5782,-2.4735,-14.2998,-0.0213,0.1584,-0.3745,70,11.821,228,8.6713,-3.1878,-21.8322,0.4501,-0.106,-0.149,40
12.421,239,2.6906,-2.3373,-11.0836,0.2259,0.7337,-0.1789,73,12.043,232,12.2123,-1.0977,-11.6794,-1.2832,-0.9158,-0.2419,88,12.123,234,10.9286,-5.2761,-14.7765,-0.6907,-0.086,0.3356,70,11.873,229,6.8988,-1.2474,-20.9364,-0.3369,-0.6314,-0.3188,40
12.473,240,2.7625,-1.3769,-9.0022,0.3522,-0.1338,-0.2094,73,12.095,233,8.592,-2.5213,-9.1887,-1.6166,-0.7776,0.4888,88,12.175,235,8.0499,-4.6936,-12.9668,-0.9266,0.1573,0.9226,70,11.925,230,5.7184,-1.1301,-17.185,-0.8473,-0.7936,-0.468,40
12.525,241,5.5298,-1.8854,-7.5049,-0.4204,-0.5417,-0.397,73,12.147,234,6.9793,-5.1086,-9.2933,-1.7414,-0.9625,1.0222,88,12.226,236,5.5027,-3.9875,-11.9971,-1.3515,0.719,1.3511,70,11.977,231,4.4458,-0.5135,-11.5077,-0.4159,-1.196,-0.823,40
12.576,242,5.4442,-4.3924,-4.4243,-0.8769,0.2871,0.1788,73,12.199,235,6.6282,-5.2178,-9.3988,-0.5992,-1.0489,1.4114,88,12.278,237,4.3691,0.9594,-11.0738,-1.6583,1.2018,1.6638,70,12.028,232,2.6571,-1.1906,-5.9507,-0.9403,-0.188,-1.1481,40
12.628,243,9.03,-0.7272,-10.9354,0.0344,-0.4598,0.73,73,12.251,236,6.7227,-3.5436,-8.7944,0.2344,-0.8969,1.6955,88,12.33,238,8.4545,5.9875,-8.2516,-0.7001,0.899,0.8558,70,12.08,233,0.4994,-6.1658,-11.0458,-0.3654,0.4487,-0.2346,40
12.68,244,9.6959,3.4026,-10.8619,0.2639,0.3468,1.2077,73,12.303,237,7.5146,-2.0139,-8.679,0.7985,-0.6341,1.9028,88,12.382,239,11.4362,6.6521,-13.9917,0.1656,0.1986,0.7043,70,12.132,234,5.4818,-5.6655,-15.0973,-0.2635,0.7812,0.1712,40
12.732,245,10.8419,3.048,-9.2877,-0.4848,0.6796,1.0084,73,12.355,238,10.4039,-0.7579,-10.3019,1.0771,-1.051,2.0541,88,12.433,240,12.8052,-0.3821,-13.7868,-0.1513,0.5582,0.6809,70,12.184,235,5.7596,-4.2196,-17.0989,0.4823,0.3278,-0.0871,40
12.784,246,7.122,1.3879,-11.7008,-0.5321,1.1784,0.7002,73,12.406,239,12.5126,0.2653,-12.2849,0.8424,-0.0963,2.1637,88,12.485,241,13.488,0.9819,-11.3143,0.322,1.0439,0.0117,70,12.235,236,4.3338,-6.6338,-17.0642,-0.325,0.9242,0.6168,40
12.835,247,3.1701,1.2415,-11.4711,-0.9182,0.3691,0.3414,73,12.458,240,10.8735,-0.0148,-9.5204,0.6581,0.1544,1.5436,88,12.537,242,11.9605,2.5348,-11.9995,0.9115,0.2573,-0.5842,70,12.287,237,2.2387,-9.004,-20.0981,-0.5163,0.8865,0.7234,40
12.887,248,2.5646,0.3327,-11.0121,-1.3476,-0.4,0.5415,73,12.51,241,3.7892,3.7229,-9.1834,1.152,0.6064,0.88,88,12.589,243,9.6445,2.4963,-12.59,0.0183,-0.3884,-1.0927,70,12.339,238,2.2939,-5.0442,-18.6001,0.2979,0.0365,0.8436,40
12.939,249,2.7408,-0.7013,-10.3686,-1.6609,-0.4761,1.0611,73,12.562,242,4.0111,3.8797,-9.4762,1.3751,-0.2295,-0.0441,88,12.641,244,5.4683,6.5167,-12.0629,0.6899,-0.5536,-1.4715,70,12.391,239,2.0347,-4.2068,-15.7092,0.8523,-0.4758,0.7156,40
12.991,250,2.3971,-2.2177,-10.1279,-1.4077,0.0023,1.4511,73,12.614,243,2.8784,2.962,-8.5884,1.6691,-0.0735,-0.7186,88,12.692,245,2.9671,2.9416,-11.3944,1.1801,-0.6352,-1.748,70,12.443,240,1.5976,-3.5885,-14.9801,1.2967,-0.1846,0.9369,40
13.042,251,5.9464,-4.2818,-12.5972,-1.1527,-0.6677,1.6969,73,12.665,244,4.0134,3.997,-7.2635,1.7793,-0.1942,-1.2108,88,12.744,246,5.0396,-3.0902,-14.9611,0.9241,-1.0262,-1.7846,70,12.494,241,1.9037,2.331,-18.9143,0.3796,0.4171,0.8869,40
13.094,252,9.394,-6.2157,-13.1153,-1.3569,0.1951,0.9024,73,12.717,245,5.5287,6.1846,-6.2971,0.9059,-0.0454,-1.5701,88,12.796,247,8.9439,0.5905,-15.2651,1.2,-1.1337,-1.5607,70,12.546,242,6.5067,-3.5955,-13.9759,-0.3707,0.6286,1.2695,40
13.146,253,8.2785,-8.48,-13.9935,-0.3462,-0.4783,-0.0165,73,12.769,246,8.9545,5.5436,-6.5082,-0.0189,-0.0227,-1.8323,88,12.848,248,11.5128,-2.3443,-17.2644,0.8522,-0.1499,-1.1971,70,12.598,243,9.8662,-0.6434,-17.9251,0.4041,-0.208,0.7221,40
13.198,254,6.8341,-3.5607,-13.0074,0.4217,-0.5974,-0.5959,73,12.821,247,11.4548,3.9693,-5.7925,-0.6938,0.6625,-1.3968,88,12.9,249,13.6683,-2.0545,-14.5661,-0.0532,0.569,-0.3449,70,12.65,244,9.7874,-5.6442,-16.1474,0.8541,-0.2937,-0.0715,40
13.25,255,4.8544,-3.8532,-8.2394,-0.3696,-0.0805,-0.8723,73,12.873,248,11.7884,4.1306,-6.0775,-0.6685,0.4977,-1.2699,88,12.952,250,9.0944,-2.0956,-17.4693,-0.7141,0.325,-0.0442,70,12.702,245,7.3559,-2.2603,-17.7224,1.2981,-0.872,-0.7217,40
13.302,256,1.2171,-4.2152,-6.8708,0.2622,0.1472,-0.7057,73,12.924,249,7.2011,4.7155,-7.3784,-1.031,0.9286,-1.0442,88,13.004,251,8.0264,-4.0083,-18.0184,0.1554,-0.4362,-0.0199,70,12.753,246,7.8958,1.443,-17.3567,1.6221,-1.3032,-1.1935,40
13.353,257,2.2722,-5.1507,-5.6637,0.7869,-0.5619,-0.8226,73,12.976,250,0.5411,2.2681,-8.4483,-1.4325,0.1102,-0.9822,88,13.055,252,7.0195,-0.4881,-13.1463,0.7899,-0.9918,0.3468,70,12.805,247,3.6391,1.0571,-12.842,0.5068,-0.2662,-1.1729,40
13.405,258,3.552,-4.9279,-5.9992,0.9791,0.1223,-0.6293,73,13.028,251,1.1867,3.8261,-7.1039,-0.6883,-0.5262,-0.5116,88,13.107,253,5.934,1.0661,-9.6189,0.0262,-0.5887,0.6119,70,12.857,248,2.2802,-1.8537,-13.7036,0.2676,-0.2023,-0.9883,40
13.457,259,4.9476,-6.7554,-6.5242,0.6008,-0.3491,0.2173,73,13.08,252,0.8312,3.9686,-6.0161,-0.6203,-0.2733,-0.4586,88,13.159,254,2.5078,2.7309,-15.0252,-0.4188,-0.6952,1.1117,70,12.909,249,4.3066,-6.6497,-9.6776,-0.4818,-0.7515,-0.6863,40
13.509,260,8.6676,-5.829,-9.7731,1.0568,0.4277,0.8353,73,13.132,253,2.2543,3.513,-4.4525,-1.1327,0.4672,-0.8724,88,13.211,255,7.0961,-3.2439,-12.0363,-0.661,-0.6126,1.3294,70,12.961,250,8.2604,-1.6473,-15.0443,-0.1622,-1.2152,-1.1723,40
13.56,261,8.7219,-2.0173,-8.3604,1.4086,0.9836,0.0568,73,13.183,254,6.3339,3.3848,-3.0057,-1.1927,1.02,-1.2801,88,13.263,256,9.4224,-0.6475,-14.2522,-0.8321,-0.0987,0.9233,70,13.012,251,6.8598,-6.1982,-15.8911,-0.3729,-0.3899,-0.8892,40
13.612,262,5.9825,-1.1863,-7.1003,0.7249,1.4003,-0.6337,73,13.235,255,9.5422,2.6529,-2.0887,-1.1094,1.1284,-1.3186,88,13.314,257,12.1427,2.6165,-12.8984,-0.1265,0.4848,0.4762,70,13.064,252,9.0905,-7.6908,-14.4869,-0.0218,0.399,-0.5698,40
13.664,263,3.1661,0.6519,-7.7122,1.2034,1.7044,-0.4767,73,13.287,256,10.1407,5.3369,-1.5098,-0.1379,0.2515,-1.428,88,13.366,258,9.2314,0.8127,-14.302,0.4801,0.5891,-0.0101,70,13.116,253,6.547,-8.3513,-12.4228,-0.3792,0.9762,0.2579,40
13.716,264,2.4768,2.0738,-8.0041,0.3727,0.6202,-0.5933,73,13.339,257,4.5085,1.4421,-1.998,0.3818,0.4141,-1.2269,88,13.418,259,9.6547,2.6983,-12.9248,0.8715,-0.2434,-0.6112,70,13.168,254,7.1967,-8.5061,-10.9378,-0.3985,0.8043,0.6884,40
13.768,265,6.357,2.0801,-7.8347,-0.4053,0.2337,-0.6779,73,13.391,258,-1.0039,0.7124,-5.0786,0.9504,-0.3705,-0.3239,88,13.47,260,8.9047,3.1752,-10.6011,0.1073,-0.7854,-1.0621,70,13.219,255,4.334,-7.288,-12.1149,0.1626,0.0957,1.1763,40
13.819,266,4.9799,0.8586,-7.8671,-0.9732,0.853,-0.3954,73,13.442,259,-2.0845,3.6665,-3.8126,0.0742,-0.9377,0.2918,88,13.521,261,6.0991,3.1014,-8.8798,0.1735,-0.607,-1.4205,70,13.271,256,3.1138,-5.3297,-11.8692,0.1863,0.1831,1.5388,40
13.871,267,4.6133,-0.592,-9.3624,-1.3877,0.9401,-0.311,73,13.494,260,-0.6175,1.2738,-1.8861,-0.6259,-1.0503,0.5415,88,13.573,262,3.3745,0.9072,-8.481,0.0699,0.1185,-1.6819,70,13.323,257,7.3899,1.4023,-6.0549,0.4727,-0.4305,0.7896,40
13.923,268,8.4236,-3.0783,-13.4501,-1.6902,0.234,-0.4076,73,13.546,261,1.4003,0.4379,-2.2155,-1.1368,-0.6667,0.2685,88,13.625,263,5.5536,-4.5749,-9.0691,0.7269,0.2886,-1.5478,70,13.375,258,10.5108,-4.2733,-10.184,-0.2085,-0.9242,0.4301,40
13.975,269,9.913,-7.3107,-13.7222,-1.9109,0.6217,-0.9726,73,13.598,262,3.8099,1.5272,-0.8954,-0.159,0.1925,-0.1835,88,13.677,264,9.319,2.0129,-14.5494,1.0491,0.103,-1.7851,70,13.427,259,10.0938,-1.8324,-15.4139,0.5225,-1.2906,0.4004,40
14.026,270,6.0462,-5.232,-15.17,-2.0721,1.1362,-0.7813,73,13.65,263,7.7001,4.6307,1.9944,0.2444,0.3794,0.0207,88,13.729,265,11.988,2.7263,-12.515,1.3911,0.7415,-0.8766,70,13.478,260,6.553,-6.6341,-13.8198,0.932,-0.257,0.0871,40
14.078,271,1.5638,-7.3533,-16.0815,-1.8492,0.2552,-0.9069,73,13.702,264,7.9365,5.9579,1.0941,0.8493,0.7794,0.108,88,13.78,266,8.1818,-1.949,-12.2628,0.3401,1.2156,-0.1268,70,13.53,261,5.283,-2.1927,-18.0675,1.3549,-0.8543,-0.6078,40
14.13,272,1.5359,-4.9583,-16.6552,-0.736,-0.4831,-0.8678,73,13.753,265,3.017,3.8606,-6.44,1.0874,0.5887,0.1029,88,13.832,267,8.8402,-2.2428,-12.8409,-0.427,0.8725,0.526,70,13.582,262,6.4241,0.1616,-16.8482,0.9005,-1.2903,-0.3739,40
14.182,273,1.7127,-4.9443,-16.6251,-1.2145,-1.0219,-0.1671,73,13.805,266,0.6975,3.1964,-10.4424,0.1136,-0.243,0.7161,88,13.884,268,6.8383,-4.2183,-12.5775,-0.9869,0.4807,1.0616,70,13.634,263,4.7235,-0.9351,-14.8428,-0.0198,-0.3603,0.4075,40
14.234,274,2.1172,-6.6367,-17.2059,-0.9252,-1.4152,-0.3795,73,13.857,267,-0.5722,-1.2635,-11.8857,-0.5971,-0.85,0.87,88,13.936,269,5.5789,-3.6647,-11.7281,-0.4503,0.0028,1.4526,70,13.686,264,3.4132,-0.3233,-11.3504,-0.6916,0.4215,0.91,40
14.285,275,3.6215,-7.8355,-17.8247,-0.0009,-1.7022,-0.3197,73,13.909,268,4.5018,-5.0107,-12.1278,0.2359,-0.5826,1.0979,88,13.988,270,1.9099,1.9363,-10.0895,-0.0003,0.1446,1.6977,70,13.737,265,1.2307,-1.8431,-14.0941,-1.0863,0.9684,1.2195,40
14.337,276,7.6998,-10.9164,-20.7168,0.6617,-1.7917,-0.4922,73,13.961,269,8.205,-1.5345,-11.4006,0.8439,-0.7133,0.7826,88,14.039,271,6.6597,0.9108,-4.7797,0.6763,0.0051,1.4083,70,13.789,266,0.4261,-6.6419,-18.2677,-1.132,0.3977,0.4483,40
14.389,277,7.9502,-10.1948,-21.6989,1.078,-0.6499,-0.9111,73,14.012,270,6.1594,-3.9566,-10.6016,0.7351,-0.5945,0.527,88,14.091,272,8.8799,4.1389,-11.4933,1.1291,-0.532,1.061,70,13.841,267,5.4283,-5.5849,-17.9197,-0.6776,0.0379,0.4366,40
14.441,278,6.1824,-8.0142,-20.4825,1.4611,0.2081,-1.3401,73,14.064,271,8.9458,-2.5694,-12.3686,1.0357,-1.0948,0.5433,88,14.143,273,11.7467,1.6968,-12.3656,1.1752,0.1249,0.9508,70,13.893,268,7.0737,-3.5214,-17.7007,0.1801,-0.2905,0.4937,40
14.493,279,0.0233,-5.2315,-22.5553,1.7408,0.8343,-1.2761,73,14.116,272,11.4484,-1.8746,-15.505,0.0759,-0.7336,0.7083,88,14.195,274,8.1958,1.3842,-11.5093,0.9629,0.7695,0.4993,70,13.945,269,3.6587,-5.8341,-16.8525,0.7576,0.4729,0.6406,40
14.544,280,-0.9292,-3.3974,-18.2665,1.9449,-0.0604,-1.549,73,14.168,273,12.4307,-2.0974,-14.4471,-0.6247,0.0946,0.7987,88,14.247,275,9.6585,4.3428,-14.265,1.3792,-0.1118,-0.2861,70,13.996,270,3.4115,-6.0438,-17.0797,1.0474,-0.1408,0.5599,40
14.596,281,-1.1652,-3.3798,-12.3634,2.0938,-0.7134,-1.717,73,14.22,274,3.4025,-6.4619,-18.4839,-0.17,0.7481,0.4808,88,14.299,276,7.7931,5.1245,-12.4464,0.3313,-0.6451,-0.8828,70,14.048,271,1.5494,-6.8917,-15.09,1.4391,-0.3136,0.6611,40
14.648,282,1.0799,-0.8211,-7.7357,2.1207,-1.19,-1.4314,73,14.271,275,7.1643,-4.4154,-18.2976,0.5477,-0.1266,0.2469,88,14.35,277,5.116,5.0324,-10.0419,0.6947,-0.521,-1.3184,70,14.1,272,0.7449,-5.6385,-13.575,1.725,0.0997,0.7805,40
14.7,283,2.8885,0.0958,-5.815,0.8728,-0.1861,-0.7704,73,14.323,276,2.7997,-4.5239,-17.3595,1.049,0.5867,0.3812,88,14.402,278,4.5601,2.1955,-10.0667,1.1836,-0.3328,-1.6362,70,14.152,273,1.8762,-3.831,-13.7752,1.9337,0.0389,0.7762,40
14.752,284,7.1648,0.8569,-6.8315,-0.0404,-0.8052,0.0868,73,14.375,277,4.99,-3.675,-16.5155,1.4373,-0.2445,0.7991,88,14.454,279,6.9382,-3.6347,-8.0601,1.5385,-0.9163,-1.4067,70,14.204,274,1.9756,2.4376,-18.035,0.7944,-0.0069,0.3636,40
14.804,285,10.2858,-2.5514,-10.7091,0.157,-0.404,0.2257,73,14.427,278,4.2457,-2.5006,-15.8726,0.949,-0.8268,1.2486,88,14.506,280,8.7852,2.6991,-13.8875,0.8893,-0.966,-1.5397,70,14.256,275,4.2923,-3.5177,-10.555,-0.0973,0.4044,0.9457,40
14.855,286,9.474,-1.8538,-8.7369,0.789,-0.1456,0.0026,73,14.479,279,7.3638,-2.9605,-15.366,0.0126,-1.2761,1.572,88,14.558,281,11.6776,-1.0602,-16.5133,0.5109,-0.0969,-1.1729,70,14.307,276,8.25,-1.7447,-11.4099,0.3998,0.0586,0.9275,40
14.907,287,5.5678,-2.835,-7.7588,-0.1009,0.5761,-0.6691,73,14.531,280,10.2938,-2.5436,-14.9953,-0.6708,-0.6348,1.4298,88,14.609,282,11.8292,-4.6245,-14.0707,-0.3024,0.6077,-0.4115,70,14.359,277,10.3802,-4.4822,-12.6342,0.9016,-0.1419,0.1873,40
14.959,288,-0.8087,-2.767,-8.3778,0.6007,0.0698,-0.5889,73,14.582,281,9.9286,-7.1172,-14.639,-0.6914,0.2157,0.7489,88,14.661,283,9.3262,-4.849,-15.4814,-0.8959,0.3652,0.1574,70,14.411,278,8.8347,-0.3419,-14.7305,1.3327,-0.4035,-0.5347,40
15.011,289,0.3599,-3.2946,-5.8633,0.66,-0.6184,-0.7897,73,14.634,282,6.6109,-6.0429,-12.8273,0.1671,0.7268,0.1914,88,14.713,284,7.4433,-8.5705,-15.5293,-1.2852,-0.4068,0.5926,70,14.463,279,7.2735,0.7107,-18.6187,1.6474,-0.9613,-1.0617,40
15.062,290,2.9361,-3.8873,-5.6944,-0.1957,0.099,0.0255,73,14.686,283,4.6215,-3.7478,-10.5279,-0.0219,1.1411,0.0552,88,14.765,285,7.0894,-4.2668,-13.1638,-0.2615,-0.9703,1.0778,70,14.515,280,7.5348,1.31,-15.4139,0.5318,-0.9766,-0.9145,40
15.114,291,2.828,-5.4997,-6.2566,-0.6739,0.7546,0.6953,73,14.738,284,5.5187,-4.2127,-8.7956,-0.5489,1.483,0.4569,88,14.817,286,4.607,-2.2998,-10.2781,-0.0298,-0.6996,1.4231,70,14.567,281,2.6552,-2.3645,-11.9157,-0.289,-0.5214,-0.8282,40
15.166,292,7.1206,-5.9379,-7.552,-0.6116,-0.0795,1.1841,73,14.79,285,4.8147,-4.5098,-8.6691,-0.5977,1.7614,0.818,88,14.868,287,3.0995,-1.0304,-14.2288,0.1944,-0.0494,1.5633,70,14.618,282,0.8439,-4.4413,-16.6778,0.3304,-0.2087,-0.755,40
15.218,293,10.2536,-4.4135,-8.2505,0.228,-0.2162,0.8945,73,14.841,286,5.4821,-4.9225,-9.5764,-0.2756,1.9647,1.2579,88,14.92,288,7.5279,-1.2058,-14.647,-0.4883,-0.5143,1.2131,70,14.67,283,5.7332,-4.7411,-20.1534,-0.2146,-0.7745,-1.1296,40
15.27,294,9.5152,-1.3512,-7.0707,0.8399,-0.3888,0.252,73,14.893,287,8.9205,-4.1282,-12.7674,-0.788,1.8227,1.5835,88,14.972,289,10.7599,3.5869,-18.0292,0.3201,-0.6563,0.9883,70,14.722,284,6.6566,-7.3396,-20.0757,-0.1142,-0.738,-1.0444,40
15.321,295,6.9039,0.7234,-5.9172,0.2351,-0.394,-0.2,73,14.945,288,11.4299,-3.6809,-16.674,-1.2552,1.894,1.4209,88,15.024,290,11.7623,0.1592,-16.5883,0.7853,-0.1533,0.3109,70,14.774,285,8.9855,-6.905,-17.9189,-0.0783,0.0832,-0.6201,40
15.373,296,4.2135,2.5728,-5.7244,0.1921,0.1813,-0.8011,73,14.997,289,12.2876,-6.6064,-17.9838,-0.9137,1.9639,0.3507,88,15.075,291,9.1038,3.4813,-15.9437,1.2497,-0.2476,-0.2495,70,14.825,286,5.0932,-7.5659,-15.5858,-0.0554,0.7457,0.0451,40
15.425,297,3.1856,2.9456,-5.3617,-0.422,-0.537,-1.2598,73,15.049,290,7.6996,-5.3095,-16.2683,0.0048,1.2972,-0.4304,88,15.127,292,8.8675,4.9737,-13.702,0.8782,-0.6377,-0.8553,70,14.877,287,7.8282,-6.9789,-13.2691,-0.6986,0.4275,0.3062,40
15.477,298,3.9997,0.7619,-5.1239,-0.6228,-0.8143,-1.5946,73,15.101,291,5.4201,-4.3335,-13.9304,0.1392,0.4303,-0.722,88,15.179,293,8.1984,4.2395,-12.3537,0.1249,-0.8296,-1.2915,70,14.929,288,3.7295,-7.1859,-12.6267,-0.5516,0.1434,0.9038,40
15.529,299,3.5078,-0.3461,-4.8946,-0.8136,0.0881,-1.601,73,15.153,292,3.6831,-4.4582,-12.3823,0.072,-0.1029,-0.8011,88,15.231,294,6.2842,3.4992,-10.886,-0.0723,-0.6293,-1.6012,70,14.981,289,3.8026,-6.3323,-12.1468,-0.2862,0.1919,1.34,40
15.58,300,7.1486,-2.6351,-6.2389,-1.0371,-0.5456,-1.468,73,15.204,293,3.3617,-3.4851,-11.0164,0.0426,-0.6224,-0.7119,88,15.283,295,4.697,-2.2895,-15.95,0.0935,-0.797,-1.8318,70,15.033,290,7.4289,0.6706,-13.4232,-0.3729,-0.5083,0.6445,40
15.632,301,10.274,-4.1874,-8.6967,-1.0967,-0.6717,-1.6063,73,15.256,294,5.5892,-3.2225,-9.9836,-0.2265,-1.0277,-0.3927,88,15.335,296,8.6939,-5.2628,-14.5974,-0.3781,-1.1155,-0.9501,70,15.084,291,10.5393,1.6638,-17.7781,-0.4684,-0.3121,0.3898,40
15.684,302,11.2235,-4.633,-6.9101,-0.1751,-0.5676,-1.6689,73,15.308,295,8.9987,-3.0055,-10.053,0.1038,-1.0105,-0.1616,88,15.386,297,10.0747,-5.2694,-17.0053,-0.2181,-0.742,-1.2271,70,15.136,292,6.5657,-2.8161,-19.1094,0.0021,-0.5567,0.3419,40
15.736,303,7.3552,-3.5039,-6.4423,0.5428,0.2681,-1.0549,73,15.36,296,10.3286,-3.9431,-9.5701,0.7475,-0.531,-0.7494,88,15.438,298,12.6187,0.1036,-15.3417,0.2968,0.0126,-1.0021,70,15.188,293,4.8489,-7.3521,-17.3545,-0.602,0.2787,0.6654,40
15.787,304,3.9059,-1.6262,-6.1892,-0.2117,0.2504,-0.5087,73,15.412,297,8.2471,-5.2517,-9.3674,1.2173,-0.066,-1.2026,88,15.49,299,9.1307,-2.0319,-15.1414,-0.0701,0.5387,-0.4293,70,15.24,294,6.4949,-2.5373,-17.4869,0.2353,-0.4619,-0.1858,40
15.839,305,2.5709,-2.1627,-6.4955,-0.8319,-0.4691,-0.075,73,15.464,298,7.2695,-3.555,-9.3135,1.5602,-0.2806,-1.2036,88,15.542,300,6.7152,-2.8551,-12.0729,-0.7264,0.9799,0.2171,70,15.291,295,3.5513,-1.4217,-15.914,0.4746,-0.9579,-0.8024,40
15.891,306,3.1751,-2.3117,-6.7903,-0.3518,-1.0117,0.2347,73,15.515,299,8.3025,-0.0023,-9.0039,1.8008,-0.3613,-1.3085,88,15.593,301,5.9332,-1.7531,-12.4382,-0.0588,1.1678,0.3961,70,15.343,296,2.3662,-5.2848,-15.016,0.168,-0.2846,-0.5473,40
15.943,307,6.9473,-1.2203,-8.1007,0.2603,-1.0815,0.5418,73,15.567,300,10.3472,2.065,-9.1415,0.6343,0.1601,-1.3282,88,15.645,302,8.3237,1.444,-11.3739,-0.7182,0.7858,0.671,70,15.395,297,3.9193,-8.0709,-11.0873,0.6234,-0.6971,-0.6425,40
