right_hand_timestamp,right_hand_index,right_hand_accel_x,right_hand_accel_y,right_hand_accel_z,right_hand_gyro_x,right_hand_gyro_y,right_hand_gyro_z,right_hand_battery_percentage,left_hand_timestamp,left_hand_index,left_hand_accel_x,left_hand_accel_y,left_hand_accel_z,left_hand_gyro_x,left_hand_gyro_y,left_hand_gyro_z,left_hand_battery_percentage,right_leg_timestamp,right_leg_index,right_leg_accel_x,right_leg_accel_y,right_leg_accel_z,right_leg_gyro_x,right_leg_gyro_y,right_leg_gyro_z,right_leg_battery_percentage,left_leg_timestamp,left_leg_index,left_leg_accel_x,left_leg_accel_y,left_leg_accel_z,left_leg_gyro_x,left_leg_gyro_y,left_leg_gyro_z,left_leg_battery_percentage
0.515,9,8.2161,1.5462,-10.2122,0.3184,-0.2276,0.0223,75,0.098,1,0.3997,2.9565,-11.5909,1.5194,0.6445,-0.5315,88,0.441,8,11.5709,-0.2538,-16.8467,-0.6213,-0.0296,-0.033,70,0.015,0,8.2002,-0.9169,-10.5555,-0.235,-0.3474,-0.0192,40
0.567,10,5.6736,2.4228,-9.3667,-0.4284,-0.1423,0.0382,75,0.15,2,-0.3985,3.4808,-11.6463,0.9923,0.3188,-0.4981,88,0.493,9,10.495,-2.0865,-13.7357,-1.1032,0.6567,-0.2209,70,0.067,1,9.349,-1.2383,-10.8702,-0.7893,-0.9203,0.0044,40
0.618,11,5.152,2.3931,-7.6754,-0.3324,-0.1341,-0.1634,75,0.201,3,-0.4175,2.4479,-11.0392,0.7643,0.0834,-0.6298,88,0.544,10,7.7681,-4.6866,-16.6887,-1.4804,0.5896,0.3172,70,0.119,2,6.8659,-5.9336,-14.8179,-1.1122,-1.036,0.0966,40
0.67,12,8.8172,-0.8358,-13.5983,-0.1162,-0.1139,-0.7881,75,0.253,4,-0.6418,2.4497,-10.1864,0.4636,0.0873,-0.7877,88,0.596,11,6.2208,-3.8341,-15.4976,-0.4039,0.214,0.7153,70,0.17,3,3.9946,-4.611,-18.1033,-0.6978,-1.1207,-0.4745,40
0.722,13,11.4923,0.1083,-16.3007,-0.2175,-0.3782,-0.8451,75,0.305,5,1.4371,4.3753,-9.9796,-0.2153,-0.5864,-0.8025,88,0.648,12,4.6259,-0.5732,-13.7177,0.3817,0.2388,0.881,70,0.222,4,0.7681,-1.8201,-20.6167,0.1654,-0.133,-0.1538,40
0.774,14,10.2803,-0.4194,-15.4449,0.4923,0.1586,-0.5226,75,0.357,6,5.9688,7.9964,-12.9164,-0.8371,-0.3249,-0.0554,88,0.7,13,4.5089,2.6398,-15.1292,0.9299,0.0597,0.7459,70,0.274,5,5.6779,-2.9077,-19.8886,0.6999,0.541,0.1577,40
0.826,15,4.7271,0.8183,-13.5117,0.8391,0.3086,-0.1328,75,0.409,7,9.2762,7.8458,-13.4155,-1.0807,-0.5646,0.4313,88,0.752,14,3.5296,2.699,-18.3144,0.8497,-0.1573,0.6551,70,0.326,6,2.5884,3.17,-22.4967,1.1855,1.0798,0.0004,40
0.877,16,2.7927,1.0586,-12.6931,0.2041,-0.0027,-0.0251,75,0.46,8,6.2765,6.1899,-11.8347,-1.4687,0.0506,0.7084,88,0.804,15,7.8418,4.2315,-16.677,0.9461,0.2256,0.5791,70,0.378,7,4.2454,3.162,-19.9995,0.3532,0.1213,-0.6046,40
0.929,17,2.2618,0.5597,-11.1995,0.2108,-0.1405,-0.3133,75,0.512,9,2.7146,2.6896,-12.7679,-1.2586,0.2015,0.5469,88,0.855,16,10.989,6.6659,-19.8321,0.8701,-0.0729,0.2683,70,0.429,8,3.1081,2.0436,-16.689,-0.4193,-0.3139,-0.3475,40
0.981,18,1.8434,0.9704,-10.4722,-0.1305,-0.0318,-0.3519,75,0.564,10,1.8685,1.8722,-12.3445,-0.2469,0.5064,0.2904,88,0.907,17,12.5601,6.0932,-18.935,0.155,0.6171,-0.095,70,0.481,9,2.4041,-0.353,-15.099,-0.9831,-0.2726,-0.4327,40
1.033,19,1.1747,0.665,-10.3414,-0.3987,-0.0353,-0.2538,75,0.616,11,1.115,1.7547,-11.6746,0.4901,0.5996,0.1764,88,0.959,18,9.7825,4.8652,-19.645,-0.5612,0.5546,-0.5406,70,0.533,10,3.3416,-4.6042,-13.6745,-0.0428,-0.4011,-0.976,40
1.085,20,2.2905,0.6704,-10.2322,-0.5907,-0.1636,-0.2923,75,0.668,12,-0.3189,1.2547,-10.9832,0.4641,0.4853,0.2448,88,1.011,19,7.4667,3.7638,-17.9589,0.1934,0.7444,-1.0686,70,0.585,11,2.7752,-5.6526,-17.9614,0.6432,-0.8265,-1.3285,40
1.136,21,6.7288,0.4545,-15.4644,-0.0065,-0.7831,-0.6898,75,0.72,13,-0.2085,0.7687,-9.9427,0.4747,0.2516,0.3859,88,1.063,20,5.216,2.0214,-16.6636,-0.534,0.3528,-1.2576,70,0.637,12,7.1428,0.6474,-14.3999,-0.14,-1.2398,-1.3493,40
1.188,22,9.9681,2.2842,-17.3684,0.3028,-0.1525,0.1095,75,0.771,14,4.7677,5.1862,-13.3202,0.96,-0.489,0.5084,88,1.114,21,3.4564,-0.126,-17.1503,0.0597,-0.1823,-1.5245,70,0.688,13,10.3304,-1.771,-16.6715,0.3596,-0.4852,-0.7187,40
1.24,23,8.5199,2.4753,-16.365,-0.2537,0.5322,0.7566,75,0.823,15,8.3996,6.4144,-15.5914,1.3535,-0.5268,0.7962,88,1.166,22,3.0369,0.2155,-14.8701,0.7201,-0.8065,-1.6076,70,0.74,14,11.7317,-5.1747,-15.3485,0.731,0.3295,-0.2636,40
1.292,24,1.5449,1.901,-12.8051,0.4892,0.9584,0.7771,75,0.875,16,9.1958,5.94,-12.3089,1.5,0.1555,0.6815,88,1.218,23,6.2209,2.991,-8.8425,1.2021,-1.262,-1.7578,70,0.792,15,9.7376,-0.0208,-13.55,1.2082,-0.3366,-0.1109,40
1.343,25,0.8195,2.6032,-10.3439,1.0314,0.3503,0.0626,75,0.927,17,1.61,3.3856,-12.2563,0.9321,0.4989,0.5163,88,1.27,24,9.806,-0.0703,-11.4247,0.2744,-0.8014,-1.1396,70,0.844,16,9.2474,-2.0714,-10.0319,0.4334,-0.7618,0.5003,40
1.395,26,1.2648,2.4726,-9.9509,0.5786,-0.0599,-0.4344,75,0.979,18,1.8283,2.355,-11.8554,1.1519,0.5732,0.3243,88,1.322,25,12.4226,0.0383,-15.0158,0.0523,-0.0624,-1.0486,70,0.896,17,6.7042,0.2817,-9.326,0.4902,-0.282,1.0426,40
1.447,27,1.3888,2.0977,-9.7292,-0.0302,0.2818,-0.6086,75,1.03,19,-0.0562,1.8772,-12.2752,1.4518,0.8369,0.2428,88,1.373,26,13.9881,-0.7372,-15.1129,-0.637,0.6328,-0.2,70,0.948,18,5.5282,0.1663,-9.7769,-0.2734,0.3866,1.433,40
1.499,28,1.2628,1.8177,-10.1742,-0.6915,0.6592,-0.1682,75,1.082,20,-0.2765,1.3847,-11.3623,1.2411,0.6403,0.1486,88,1.425,27,6.9634,-4.1884,-15.7965,-1.1402,1.1265,0.4337,70,0.999,19,4.0061,2.2683,-15.1168,-0.7166,0.8776,1.4951,40
1.551,29,5.9788,1.7409,-13.5927,-1.1412,-0.0505,0.4387,75,1.134,21,0.1803,0.9664,-11.7351,1.1378,0.2291,0.1376,88,1.477,28,8.3954,-4.137,-15.088,-0.5291,0.1488,0.9832,70,1.052,20,6.1989,6.9476,-17.2241,-0.2501,0.3116,0.49,40
1.603,30,9.4207,0.389,-16.7168,-1.3006,-0.0031,0.8842,75,1.186,22,4.8593,2.8391,-12.2401,1.5021,-0.5032,0.1574,88,1.529,29,6.3129,-0.3009,-13.5175,0.2904,-0.0467,1.3169,70,1.103,21,9.6415,6.2803,-19.8586,-0.4624,-0.4148,0.1154,40
1.654,31,11.0922,-0.1827,-14.4544,-1.1926,-0.5165,0.7278,75,1.238,23,8.4664,5.2966,-13.7011,0.7211,-0.2577,0.5912,88,1.581,30,6.0506,3.0356,-11.1884,0.5386,-0.2055,1.3943,70,1.155,22,8.1611,4.3398,-19.5126,-0.0724,0.3214,0.0996,40
1.706,32,6.1576,-1.2711,-11.4266,-0.2138,-0.3724,0.0602,75,1.289,24,10.6251,6.1056,-12.3768,-0.0368,-0.2818,0.2642,88,1.632,31,5.3694,5.2835,-11.9413,-0.2539,0.2593,1.5154,70,1.207,23,7.9156,5.3785,-16.4159,0.6219,0.9196,-0.5717,40
1.758,33,4.8214,-1.3014,-9.0723,0.5184,-0.7949,-0.6255,75,1.341,25,6.9271,4.5023,-9.897,-0.7069,0.0257,-0.2927,88,1.684,32,8.9863,-1.3607,-16.6801,0.2179,0.8618,1.3829,70,1.259,24,4.9317,5.0667,-19.4658,1.1285,0.8962,-1.0887,40
1.81,34,4.2937,-1.2568,-7.291,0.6763,-0.847,-0.8947,75,1.393,26,3.5198,3.9659,-10.3737,-1.196,-0.6431,-0.5753,88,1.736,33,11.8243,-0.4267,-18.5564,0.2325,0.5637,0.7247,70,1.31,25,4.6876,5.4702,-16.6201,0.8241,-0.0127,-1.3965,40
1.862,35,4.1896,-1.1311,-7.1597,1.168,-0.3841,-1.0124,75,1.445,27,2.5881,2.9185,-10.4236,-1.5529,-0.5516,-0.3182,88,1.788,34,11.6241,2.1643,-18.1398,-0.4936,0.9606,0.6752,70,1.362,26,4.2202,1.2189,-15.6853,-0.0756,-0.676,-0.6903,40
1.913,36,3.6667,0.3951,-6.9696,1.5028,0.3813,-0.8191,75,1.497,28,1.4689,1.9357,-10.7638,-1.6324,-0.1492,-0.1341,88,1.84,35,10.5122,0.4558,-17.2398,-0.4032,0.3232,0.3377,70,1.414,27,4.0587,-4.2931,-12.8292,-0.7323,-0.9687,0.1429,40
1.965,37,6.3019,2.2418,-7.8455,0.4791,0.956,-0.2544,75,1.548,29,0.8819,1.1901,-11.4379,-1.0342,0.2226,-0.4347,88,1.891,36,8.8994,4.6732,-13.9231,-0.0427,-0.2905,-0.4274,70,1.466,28,1.0883,2.1589,-17.3445,-0.1154,-0.022,0.3824,40
2.017,38,9.6565,3.9106,-13.7225,-0.3277,1.3798,0.247,75,1.6,30,3.2574,-0.654,-10.8607,-0.6842,-0.4403,-0.6922,88,1.943,37,6.0695,3.1218,-12.2633,-0.7064,0.4663,-0.9698,70,1.517,29,5.9116,0.2383,-19.8479,-0.0154,0.1907,0.1303,40
2.069,39,11.7422,4.0476,-14.4798,0.2701,0.7084,-0.2953,75,1.652,31,7.2973,3.2616,-14.1762,-0.5393,-0.0188,-0.9889,88,1.995,38,6.3315,0.9475,-13.2899,-0.3819,1.0187,-1.3818,70,1.569,30,9.4318,0.2934,-17.8682,-0.2442,0.8192,0.5794,40
2.12,40,9.5413,3.521,-13.7058,0.2439,0.2788,-0.6349,75,1.704,32,10.2458,6.9581,-11.4933,0.0397,-0.1837,-0.6708,88,2.047,39,4.097,-4.4377,-15.7314,0.3978,0.7179,-1.6825,70,1.621,31,8.8528,-5.0826,-17.1206,-0.0506,1.2425,0.8824,40
2.172,41,5.07,2.758,-14.0389,-0.4993,-0.094,-0.5131,75,1.756,33,8.0971,8.5126,-10.1657,0.2251,0.4352,-0.0064,88,2.099,40,8.2559,2.1131,-8.8974,-0.0408,-0.1495,-0.7543,70,1.673,32,6.7348,-1.5077,-17.5401,-0.714,1.1765,1.32,40
2.224,42,3.9736,0.8756,-13.6606,-1.0418,-0.5198,-0.4955,75,1.808,34,1.7563,7.0024,-9.8603,0.8306,0.7294,0.227,88,2.15,41,11.2913,6.8941,-14.4986,-0.2716,-0.3469,-1.199,70,1.725,33,5.4234,-4.1712,-15.9578,-1.1982,0.1919,1.3926,40
2.276,43,3.0012,0.1202,-12.3767,-1.3495,-0.9201,-0.6687,75,1.859,35,0.6131,5.8814,-8.978,0.2569,-0.0999,0.6065,88,2.202,42,10.8179,7.7078,-17.4673,0.2568,0.4252,-1.2279,70,1.776,34,4.7923,-3.2422,-14.1729,-0.1998,-0.5267,1.3564,40
2.328,44,2.8267,-0.4757,-10.1796,-1.6255,-1.1582,-0.7978,75,1.911,36,-0.4819,5.5588,-8.3228,-0.2622,-0.3637,0.8404,88,2.254,43,8.6042,3.6099,-14.8786,-0.4878,0.9887,-0.3027,70,1.828,35,5.2551,-0.6092,-12.2073,-0.3736,-1.0512,1.4817,40
2.379,45,3.6065,-0.4655,-9.2699,-1.8445,-0.9503,-0.7881,75,1.963,37,-0.7543,5.5336,-7.6554,-0.8714,-0.7059,0.7185,88,2.306,44,5.793,-1.8009,-16.5977,-1.0312,1.3999,0.4517,70,1.88,36,4.4795,-0.6362,-10.8411,-0.9496,-0.9345,1.5479,40
2.431,46,7.6893,-0.2742,-13.4682,-1.0841,-1.3252,-1.2177,75,2.015,38,-0.2678,4.6617,-7.3764,-1.2417,-0.5628,0.3939,88,2.358,45,8.24,-3.4484,-14.6923,-0.6527,0.5131,1.0074,70,1.932,37,8.3866,0.0437,-7.1384,-0.6432,-1.3305,0.6397,40
2.483,47,10.6691,1.3991,-17.0891,-0.1168,-1.1053,-1.0514,75,2.067,39,3.0225,7.0017,-6.7099,-1.5862,-0.7739,0.1398,88,2.41,46,6.1954,-1.4903,-13.1607,-0.0571,0.8152,1.413,70,1.984,38,11.2382,-4.8883,-13.1911,-0.242,-0.8917,0.7265,40
2.535,48,11.6356,3.2537,-16.5536,0.5891,-0.4037,-0.2291,75,2.118,40,7.1259,2.8319,-12.837,-1.8377,-0.1438,0.1555,88,2.461,47,4.7549,1.324,-12.549,-0.257,1.0181,1.6945,70,2.035,39,13.1441,-4.8181,-13.5605,0.0342,-0.0148,0.4265,40
2.587,49,6.5217,4.3688,-14.7151,0.7537,0.1983,0.3267,75,2.17,41,10.1207,4.9851,-12.0315,-1.6044,-0.2009,0.0201,88,2.513,48,4.729,4.2462,-13.2633,0.4502,0.8344,1.369,70,2.087,40,10.7397,-1.1912,-12.8423,0.6997,0.6741,0.0503,40
2.638,50,3.6697,3.8632,-13.6788,1.1962,0.2004,-0.0613,75,2.222,42,7.0699,0.9261,-12.6722,-1.2993,0.3585,0.0181,88,2.565,49,8.7172,8.451,-11.6652,1.0051,0.3576,0.332,70,2.139,41,8.4238,4.4228,-15.1947,1.1338,-0.1747,-0.6347,40
2.69,51,2.115,4.6124,-14.0539,0.4932,0.2424,0.015,75,2.274,43,5.1042,-0.6717,-13.8736,-0.2766,0.5935,0.1891,88,2.617,50,11.6279,10.9545,-16.5187,1.1976,-0.2373,0.0706,70,2.191,42,7.3815,2.8285,-14.1412,0.1504,-0.2827,-0.8516,40
2.742,52,1.4549,4.2693,-13.7041,-0.1983,0.1527,0.192,75,2.326,44,3.2277,-0.065,-13.8078,0.4699,0.839,0.4299,88,2.668,51,13.0768,7.9764,-15.9223,0.7971,0.1791,-0.4565,70,2.242,43,5.8174,-0.7378,-14.6109,-0.5673,-0.3367,-1.2177,40
2.794,53,0.8332,4.7509,-13.077,-0.8216,0.036,0.2984,75,2.377,45,1.512,0.7287,-12.3645,1.0147,0.7856,0.8296,88,2.72,52,10.2671,6.3943,-16.7442,1.1809,0.5895,-1.0072,70,2.294,44,4.2829,-3.9735,-13.524,0.2606,-0.1894,-1.5601,40
2.845,54,0.9568,5.1124,-13.0076,-1.2323,-0.1218,-0.1295,75,2.429,46,-0.71,3.2817,-10.9503,1.1388,0.5888,1.2694,88,2.772,53,7.3696,4.7571,-17.1044,1.5384,0.081,-1.4079,70,2.346,45,4.243,-2.856,-17.8516,0.8649,0.0459,-1.8101,40
2.897,55,5.7554,6.2707,-17.49,-1.3819,-0.7582,-0.7696,75,2.481,47,0.1286,3.4959,-9.9952,1.0208,0.2357,1.4202,88,2.824,54,5.9138,7.2546,-14.3819,1.3782,-0.5161,-1.4399,70,2.398,46,5.8514,-1.1485,-20.2893,0.082,0.0746,-1.1998,40
2.949,56,9.2577,5.7555,-18.2224,-0.7359,-0.7859,-0.7726,75,2.533,48,5.0137,5.1628,-12.34,1.4167,-0.5007,0.7413,88,2.876,55,5.0966,1.7703,-12.6135,0.3475,-0.9854,-1.3262,70,2.45,47,9.3879,-2.2102,-21.8562,0.0048,0.572,-0.4377,40
3.001,57,9.3484,4.0231,-15.0633,-1.1202,-0.6026,0.1128,75,2.585,49,8.5791,5.486,-15.8569,1.501,0.0374,0.3571,88,2.927,56,4.7866,-1.1445,-11.1414,0.6846,-1.3926,-1.3074,70,2.501,48,11.007,-5.0651,-19.1049,0.3537,1.1024,-0.0965,40
3.053,58,5.9574,1.059,-10.4833,-0.1432,-0.1647,-0.0431,75,2.636,50,11.1813,7.4802,-13.0921,1.492,-0.0427,0.2906,88,2.979,57,3.7458,-2.2492,-12.7466,1.1762,-1.5351,-1.393,70,2.553,49,6.8867,-3.9722,-18.3507,0.4754,0.6754,0.2779,40
3.105,59,6.0869,0.7733,-8.0239,0.5699,0.4746,-0.3191,75,2.688,51,6.6276,3.4266,-10.7836,1.0965,0.6479,-0.1704,88,3.031,58,7.9996,-1.274,-10.6404,0.1883,-1.3455,-0.7022,70,2.605,50,6.3394,-6.1127,-14.3964,0.93,0.6,0.5064,40
3.156,60,6.0858,-0.7174,-8.5403,0.8827,1.0288,-0.1967,75,2.74,52,4.6647,1.4136,-10.148,0.9535,-0.1998,-0.2519,88,3.083,59,11.1042,2.3585,-15.7707,0.1753,-0.8416,-0.8106,70,2.657,51,4.3182,-4.0721,-13.5398,1.3534,1.1072,0.6295,40
3.208,61,5.5778,-0.1994,-10.2054,0.621,1.4333,0.0684,75,2.792,53,3.1048,0.8039,-11.7247,0.6644,0.5332,-0.104,88,3.135,60,13.3701,1.755,-14.2348,-0.5321,0.0641,-0.4365,70,2.709,52,4.5799,1.3701,-14.7628,0.6521,1.4931,1.1111,40
3.26,62,4.934,-0.8615,-13.9616,0.1012,1.7285,0.7266,75,2.844,54,2.154,-0.1862,-11.651,0.9517,0.5754,0.108,88,3.186,61,9.1697,-3.9562,-18.3781,-1.0635,0.7251,0.3592,70,2.76,53,3.9859,3.3812,-15.6545,-0.2012,0.8717,1.4912,40
3.311,63,8.6582,-0.3835,-15.1393,-0.1356,1.9439,1.2069,75,2.896,55,1.4813,-0.8438,-11.7391,1.3567,0.5142,0.1381,88,3.238,62,7.6164,-5.1823,-17.2879,-1.4514,-0.1442,0.9399,70,2.812,54,8.0264,7.6779,-8.8176,0.1504,-0.0306,0.81,40
3.363,64,11.3762,-3.2687,-14.9368,-0.2138,2.1012,1.5575,75,2.948,56,2.854,-1.238,-12.3468,1.6619,0.134,0.2292,88,3.29,63,6.6402,-4.6253,-14.9696,-0.4752,-0.4351,1.203,70,2.864,55,10.9753,3.7075,-11.7448,0.2867,-0.6697,0.0327,40
3.415,65,11.7394,-3.5524,-10.8048,-0.314,0.916,1.5054,75,2.999,57,7.0029,4.4233,-13.8121,1.3201,-0.5749,0.7089,88,3.342,64,5.7714,-1.8698,-13.9354,0.3297,-0.6617,1.0428,70,2.916,56,9.3095,4.03,-13.1429,0.7816,0.1962,-0.0249,40
3.467,66,10.4401,-3.4312,-8.6807,-0.0612,-0.0008,0.8886,75,3.051,58,10.0309,4.6594,-14.358,0.5068,-0.9664,0.9658,88,3.394,65,5.7375,3.9872,-13.4535,0.9172,-0.467,0.9851,70,2.967,57,11.0834,2.144,-10.8696,1.2451,0.8281,-0.5687,40
3.519,67,5.7605,-2.1597,-7.7496,0.1781,-0.5975,0.174,75,3.103,59,8.7871,4.4408,-13.3974,0.9362,-0.0263,0.0185,88,3.445,66,9.4532,6.763,-7.2349,-0.0058,-1.0142,1.3203,70,3.019,58,8.028,4.3276,-12.5213,1.5834,0.9197,-1.0864,40
3.57,68,4.1285,-0.8549,-6.9785,0.1859,-0.8044,-0.248,75,3.155,60,4.7741,3.2011,-11.5796,0.0077,-0.0193,-0.5426,88,3.497,67,12.1651,3.8956,-9.0066,0.6723,-0.7376,0.7385,70,3.071,59,7.4125,6.1592,-11.6259,1.699,0.0044,-1.4643,40
3.622,69,3.4055,-0.6484,-7.414,0.2685,-1.091,-0.4253,75,3.207,61,2.9661,3.1824,-10.5684,-0.3824,-0.6868,-0.5659,88,3.549,68,13.1812,5.2906,-11.0851,-0.1846,0.068,0.493,70,3.123,60,5.4143,2.6814,-11.5287,0.5629,-0.2233,-1.1052,40
3.674,70,3.7903,-0.8637,-7.1173,0.8703,-0.8611,-0.8413,75,3.258,62,1.8425,2.6176,-10.574,-0.5706,-0.5447,-0.4839,88,3.601,69,8.8295,0.9271,-16.0953,-0.8099,0.277,0.7764,70,3.175,61,4.3505,-0.7585,-13.8547,-0.2662,-0.6274,-0.4463,40
3.726,71,3.1754,1.0503,-5.6239,1.3093,-0.3487,-1.0401,75,3.31,63,1.312,1.9713,-10.0573,-0.4532,-0.4022,-0.5552,88,3.653,70,6.839,2.8582,-13.0854,-1.032,0.7581,-0.1073,70,3.226,62,1.8988,-5.8504,-13.81,-0.6859,-1.0439,-0.5079,40
3.778,72,7.3747,2.2244,-8.5647,0.3899,-0.8894,-1.4342,75,3.362,64,1.3338,-0.3381,-9.0863,-0.9648,-0.4307,-0.5074,88,3.704,71,6.6355,4.135,-11.6166,-1.414,0.7513,-0.5217,70,3.278,63,6.5031,1.0223,-14.9437,-1.1772,-0.7111,-0.2453,40
3.829,73,10.4395,0.0545,-13.8849,-0.3928,-0.5072,-1.5292,75,3.414,65,5.8934,0.7079,-10.8104,-1.0539,-0.987,-0.6447,88,3.756,72,6.0298,1.808,-12.2408,-1.6565,1.2267,-0.8608,70,3.33,64,9.8635,-0.7767,-18.8878,-0.7159,-0.6212,0.3221,40
3.881,74,10.7737,-0.6073,-13.3386,0.1719,-0.5342,-1.4387,75,3.466,66,9.2211,3.4369,-15.1356,-0.8469,-0.6671,-0.3882,88,3.808,73,4.8446,-3.8617,-14.1612,-0.5324,1.5649,-1.1994,70,3.382,65,12.3161,-3.8118,-16.5896,-1.0057,0.2265,0.9154,40
3.933,75,5.7477,0.4253,-13.0968,-0.0944,-0.1213,-1.2589,75,3.517,67,11.6499,5.5921,-14.107,0.0536,-0.1876,0.1534,88,3.86,74,2.5525,-2.2733,-14.5774,0.288,0.7006,-1.4558,70,3.433,66,9.6074,-4.2133,-15.6947,-0.6137,0.8503,1.2621,40
3.985,76,3.4046,-1.0075,-12.6221,-0.7463,-0.1018,-0.8454,75,3.569,68,7.2535,7.8367,-11.9603,0.7109,0.5422,0.2764,88,3.912,75,7.1287,-2.4797,-16.5298,0.5488,0.6762,-1.6097,70,3.485,67,6.1558,-1.721,-15.6512,-1.1214,0.8858,1.5775,40
4.037,77,1.9669,-2.3311,-11.6656,-1.1079,-0.1946,-0.5893,75,3.621,69,2.7882,7.0736,-11.418,0.6729,0.4477,0.0399,88,3.963,76,10.4686,1.749,-18.2694,0.931,-0.176,-1.5272,70,3.537,68,5.5291,-4.3296,-12.8421,-1.4953,0.0984,1.8133,40
4.088,78,0.8635,-2.8957,-10.5367,-1.0173,-0.3445,-0.3367,75,3.673,70,2.0301,5.841,-10.8467,-0.1889,-0.0227,0.0474,88,4.015,77,12.9062,4.7337,-16.7676,0.5778,0.4223,-1.1263,70,3.589,69,4.4021,-1.1145,-11.5756,-0.4167,-0.2284,1.6866,40
4.14,79,1.0349,-2.635,-9.0867,-0.8212,-0.3267,0.0255,75,3.725,71,0.6729,5.271,-10.4569,-0.8179,-0.1845,0.0951,88,4.067,78,8.3973,-1.7822,-19.5931,-0.2535,0.9866,-0.1443,70,3.641,70,4.8111,0.5675,-11.5369,-0.7052,-0.8303,1.5026,40
4.192,80,1.8183,-2.2878,-8.3733,-0.6568,-0.1387,0.2954,75,3.776,72,-0.4302,4.9334,-10.4553,-1.277,-0.2204,0.0285,88,4.119,79,8.9046,-4.9929,-17.154,0.1105,0.0467,0.5724,70,3.692,71,3.6217,-1.6065,-15.4423,-0.4078,-1.2728,1.0064,40
4.244,81,6.3842,-0.6754,-13.408,-0.54,-0.7483,-0.198,75,3.828,73,0.1316,3.6805,-9.5465,-1.6037,-0.4428,-0.182,88,4.171,80,8.5067,-2.343,-13.669,0.7572,0.256,0.9294,70,3.744,72,7.7605,0.6877,-16.1894,-0.3095,-1.5363,0.2188,40
4.295,82,9.7166,-0.4068,-16.4769,-0.4438,-1.1557,-0.7537,75,3.88,74,5.0159,6.7876,-12.8883,-1.7966,-0.9959,-0.6237,88,4.223,81,7.8227,-0.6159,-11.9269,0.3873,0.8577,1.2737,70,3.796,73,7.004,2.5992,-18.2193,0.3793,-0.4517,0.0663,40
4.347,83,9.7178,0.9547,-15.3931,0.3505,-1.0748,-1.0047,75,3.932,75,8.5807,5.5957,-15.9162,-1.6083,-0.6955,-0.5054,88,4.274,82,6.9814,2.6788,-13.4035,-0.3926,1.3043,1.5185,70,3.848,74,10.2291,2.1615,-18.7929,0.8811,0.3549,-0.0139,40
4.399,84,4.3101,1.2329,-11.4918,-0.3672,-0.796,-0.3328,75,3.984,76,9.3159,4.7054,-12.4109,-1.8036,-0.77,-0.1206,88,4.326,83,1.8,-3.2522,-17.7873,-0.2777,1.6303,1.786,70,3.9,75,8.1107,1.1738,-21.0665,1.3178,0.944,-0.6816,40
4.451,85,3.2481,0.9837,-10.6114,-0.9454,-0.7276,0.0216,75,4.035,77,5.3799,0.8886,-13.1123,-1.2383,-0.4444,-0.0515,88,4.378,84,6.5795,-7.6106,-10.3979,-0.54,1.2391,1.8899,70,3.951,76,4.8584,5.8408,-19.4983,1.3109,0.0222,-0.8931,40
4.503,86,2.199,0.831,-11.0018,-1.3674,-0.621,0.2044,75,4.087,78,3.6919,-0.7373,-12.7808,-0.232,-0.3173,0.1911,88,4.43,85,9.8672,-6.3375,-11.5282,-0.5881,1.4682,1.3983,70,4.003,77,5.1125,3.8478,-17.5519,0.2797,-0.6481,-0.6777,40
4.555,87,1.635,0.3099,-10.8422,-1.1622,-0.8074,0.1236,75,4.139,79,3.4266,-1.6566,-11.3258,0.5024,0.1331,0.1984,88,4.481,86,11.5569,-2.0648,-12.6609,0.1661,1.4742,0.3808,70,4.055,78,3.0061,-1.5471,-14.9961,-0.4716,-0.8413,-0.7502,40
4.606,88,1.3474,1.056,-10.3558,-0.5153,-1.0796,0.0155,75,4.191,80,1.9535,0.9131,-10.481,1.0384,0.7762,0.4139,88,4.533,87,8.2032,-1.8439,-15.1708,0.7977,0.504,-0.1381,70,4.107,79,2.9606,-4.7021,-12.5617,0.1149,-0.4123,-0.9092,40
4.658,89,5.2452,1.9181,-12.4241,-0.5375,-1.2841,-0.1639,75,4.243,81,1.6412,0.7284,-9.0445,1.1489,0.7485,0.6644,88,4.585,88,10.0283,1.87,-13.8404,1.0184,-0.3056,-0.5638,70,4.159,80,7.2781,-5.6816,-17.1492,-0.2666,0.0462,-0.5915,40
4.71,90,8.8853,2.656,-17.0641,-1.0697,-0.7901,0.3556,75,4.294,82,6.1177,0.7969,-14.0902,1.17,-0.1264,0.4355,88,4.637,89,6.0436,1.1679,-10.6903,0.7867,-0.3942,-1.0624,70,4.21,81,10.4292,-2.5263,-18.5923,-0.2084,0.1707,-0.412,40
4.762,91,10.1302,1.6128,-15.6439,-1.3959,-0.5194,0.9362,75,4.346,83,9.3849,2.5313,-15.305,0.4227,-0.2607,0.9112,88,4.689,90,5.9827,1.3954,-9.0542,0.6714,-0.442,-1.4122,70,4.262,82,11.2908,-5.3618,-18.2868,0.4534,0.7771,-0.2489,40
4.813,92,5.1261,-0.6621,-11.546,-0.6181,0.2614,0.9578,75,4.398,84,11.7694,2.2632,-13.1328,0.2578,-0.3072,0.5913,88,4.74,91,9.415,-1.0955,-4.0241,0.8031,-0.996,-1.0039,70,4.314,83,7.1102,-2.5038,-19.0349,1.0056,1.2517,0.1143,40
4.865,93,3.6885,-0.4128,-9.8544,0.1908,-0.0509,0.7532,75,4.45,85,5.693,0.3856,-11.9227,-0.1541,0.4549,0.0265,88,4.792,92,12.1372,-2.949,-7.3274,0.0892,-1.4003,-0.2307,70,4.366,84,5.9386,-1.9071,-17.7301,1.0724,0.9815,0.1755,40
4.917,94,2.8581,-0.1257,-10.36,0.8136,0.4353,0.1498,75,4.502,86,4.2308,0.3247,-10.9198,0.0756,0.0185,-0.0766,88,4.844,93,10.7949,-2.678,-13.3528,-0.0469,-0.5712,-0.5343,70,4.418,85,4.3774,-3.0974,-15.3827,1.4574,1.1109,0.2626,40
4.969,95,1.7636,1.1766,-11.1819,1.2677,0.5785,-0.3692,75,4.554,87,2.3259,0.0432,-10.6482,0.3946,0.2393,-0.1782,88,4.896,94,13.1443,0.4202,-12.7409,-0.7094,0.2615,0.0651,70,4.469,86,3.3588,0.0699,-14.5202,0.9323,1.4852,0.753,40
5.021,96,0.4405,1.5943,-11.4006,0.846,0.5475,-0.3649,75,4.606,88,1.3795,-2.5415,-10.8982,-0.1033,-0.1025,-0.0752,88,4.948,95,6.6978,-4.3775,-17.3038,-1.193,0.8692,0.2271,70,4.521,87,1.5213,1.1071,-16.5943,0.0033,1.4032,1.2299,40
5.072,97,1.7455,3.9789,-13.249,0.472,0.5151,-0.4539,75,4.657,89,1.4167,-1.6383,-11.3518,-0.7554,-0.6985,0.6053,88,5.0,96,4.6702,-7.8942,-17.1568,-1.5459,-0.039,0.7395,70,4.573,88,-0.5797,1.3386,-20.0924,-0.6746,1.0288,1.578,40
5.124,98,6.3311,4.2304,-17.6662,-0.3329,0.2104,0.3453,75,4.709,90,4.6143,-1.2047,-13.1182,-0.5117,-1.1631,1.1072,88,5.051,97,5.185,-6.3753,-16.1971,-0.4518,-0.7,0.9711,70,4.624,89,4.6942,-4.3198,-20.5706,-0.2802,0.4716,1.0164,40
5.176,99,9.6778,0.462,-13.9501,-0.9203,-0.1211,0.3022,75,4.761,91,8.2876,1.5105,-14.9785,-0.7061,-1.5216,1.3776,88,5.103,98,5.9017,-3.0279,-14.0711,0.3468,-1.1843,1.1288,70,4.676,90,5.7914,-4.1094,-21.985,0.3094,1.0291,0.2243,40
5.228,100,6.6566,-3.653,-12.7261,-0.5893,0.2892,-0.2214,75,4.813,92,10.9685,2.5947,-15.5533,-1.1954,-1.2514,1.2749,88,5.155,99,6.6289,3.142,-11.7107,-0.1934,-1.0927,1.3993,70,4.728,91,9.1051,-2.3561,-17.6534,0.9005,1.4361,-0.5061,40
5.279,101,4.8628,-4.8451,-11.4514,0.2443,0.3947,-0.3954,75,4.865,93,7.3971,-0.4879,-13.5855,-1.2971,-0.2343,0.4598,88,5.207,100,10.1038,7.5953,-10.6048,-0.1683,-0.9977,0.7658,70,4.78,92,5.683,1.3446,-19.2199,1.3319,1.5923,-1.0408,40
5.331,102,4.2379,-3.8171,-10.5058,0.8527,0.6982,-0.2942,75,4.916,94,4.7928,1.1746,-12.5762,-0.6348,-0.2672,0.0067,88,5.259,101,12.6399,1.8699,-11.3656,-0.0371,-0.2112,0.5744,70,4.832,93,5.8447,3.7754,-17.5493,1.6468,0.4953,-1.431,40
5.383,103,3.7006,-3.6926,-9.9065,1.2758,1.048,0.1537,75,4.968,95,4.6364,0.495,-12.1207,-0.3843,0.4602,-0.3645,88,5.31,102,14.4909,3.743,-11.2801,-0.7023,0.2789,0.6633,70,4.883,94,6.0747,2.5348,-16.5068,0.5248,-0.3053,-1.4032,40
5.435,104,2.9297,-1.5916,-9.3658,0.6477,1.4029,0.7888,75,5.02,96,3.0725,0.5032,-10.3812,0.3913,1.0064,-0.7327,88,5.362,103,11.5961,3.8906,-12.1676,-0.3883,-0.0469,0.4145,70,4.935,95,6.0794,-2.1854,-15.6154,-0.294,-0.8896,-1.1857,40
5.487,105,4.6239,-2.2097,-8.0636,0.4395,1.3449,1.2524,75,5.072,97,1.4515,0.3231,-9.7567,0.3595,1.0962,-0.9136,88,5.414,104,8.7001,5.2818,-10.1178,-0.9586,0.244,-0.08,70,4.987,96,4.4824,-6.8204,-11.1335,-0.8917,-1.2832,-0.6393,40
5.538,106,8.4318,1.6632,-11.9069,0.4191,1.3293,1.3883,75,5.124,98,1.6144,-1.1915,-9.352,0.3744,0.9287,-0.9366,88,5.466,105,7.1234,3.6677,-10.2283,-1.1347,0.8564,-0.7108,70,5.039,97,8.3887,-7.2595,-5.518,-1.3279,-1.6033,-0.9342,40
5.59,107,11.211,1.4076,-14.187,0.4555,0.7288,0.5266,75,5.175,99,6.0981,2.0383,-14.7654,0.945,0.2506,-1.37,88,5.518,106,6.3064,0.4336,-11.9425,-0.2037,1.3034,-1.1928,70,5.091,98,11.2397,-7.8799,-12.0084,-0.7183,-0.9959,-0.0684,40
5.642,108,9.9258,3.0938,-12.5387,0.7747,0.2627,-0.216,75,5.227,100,9.3706,4.9275,-15.2727,1.3614,0.4222,-1.6862,88,5.569,107,3.976,-2.149,-14.1578,0.5278,1.2809,-1.5446,70,5.142,99,11.351,-6.8978,-11.1377,-1.1088,-0.0419,0.628,40
5.694,109,6.3469,0.3228,-12.5243,-0.0899,-0.2763,-0.5382,75,5.279,101,6.1511,7.1116,-15.3865,1.5244,0.9873,-0.7966,88,5.621,108,3.1052,-0.0168,-14.4163,1.0618,0.2633,-1.2792,70,5.194,100,9.9558,-5.5735,-12.7742,-1.0019,0.4947,1.1387,40
5.746,110,5.1837,-0.7464,-11.002,-0.2616,-0.7744,-1.0646,75,5.331,102,2.2005,6.1495,-13.1606,0.4326,1.2498,0.084,88,5.673,109,7.5321,-3.6712,-12.0788,0.0997,0.0389,-0.6688,70,5.246,101,3.9743,-5.8918,-14.0124,-1.4083,0.2844,1.3534,40
5.797,111,4.1987,-2.6806,-10.2426,-0.3292,-1.0335,-1.2408,75,5.383,103,0.7917,7.229,-14.8452,-0.3643,1.3579,0.7267,88,5.725,110,10.278,-3.7495,-13.8002,-0.4387,0.7067,-0.7337,70,5.298,102,4.3715,-4.5703,-12.4759,-0.5944,-0.4592,1.2699,40
5.849,112,3.1045,-2.6986,-8.6894,-0.0936,-0.997,-1.0876,75,5.434,104,-0.3724,5.5429,-14.7887,-0.9459,0.8309,0.9746,88,5.776,111,12.3546,0.7995,-12.2021,-0.9954,1.1212,0.1331,70,5.35,103,3.8776,-2.527,-12.4222,-0.0521,-1.0019,1.1668,40
5.901,113,3.5946,-3.4208,-6.8959,-0.51,-0.7024,-0.5802,75,5.486,105,-1.4093,4.4481,-14.131,-1.3704,0.7588,0.4423,88,5.828,112,9.6676,-3.184,-11.7243,-0.2056,0.2295,0.6899,70,5.401,104,4.656,-2.342,-9.6997,-0.6693,-1.3321,1.181,40
5.953,114,5.5405,-3.6983,-7.3813,0.264,-0.6463,-0.4404,75,5.538,106,-1.3471,2.3958,-13.9578,-1.0683,0.4877,-0.2087,88,5.88,113,10.3755,-2.4737,-11.2473,0.4762,-0.2033,1.1813,70,5.453,105,-2.0744,3.5829,-12.9137,-0.5761,-1.3011,1.2596,40
6.005,115,9.1008,0.3785,-12.9852,-0.4772,0.0262,0.3552,75,5.59,107,0.7852,4.4187,-13.1461,-0.3374,-0.1696,-0.5189,88,5.932,114,6.1528,0.764,-10.3196,-0.0494,0.5299,1.512,70,5.505,106,3.6033,-2.6405,-16.9006,-0.2541,-1.4936,0.2644,40
6.056,116,11.6993,-0.8418,-14.4427,-0.8944,0.0879,0.7425,75,5.642,108,5.4929,4.4785,-16.0171,-0.5587,-0.7965,-0.854,88,5.984,115,5.2518,-0.2824,-10.6306,-0.2047,0.7869,1.7046,70,5.557,107,-1.4182,-0.1821,-19.7121,-0.2286,-0.4052,0.0385,40
6.108,117,7.774,1.0202,-11.5126,-0.2434,0.0837,0.3049,75,5.693,109,8.9289,5.2933,-13.7553,-1.0395,-1.254,-0.2196,88,6.035,116,4.9696,1.1723,-11.9482,0.4309,0.9789,1.5843,70,5.609,108,4.0822,-0.7705,-17.3372,0.5078,0.3893,-0.083,40
6.16,118,4.0356,2.5344,-9.7629,-0.0026,0.0351,-0.1802,75,5.745,110,7.1806,1.7771,-11.4887,-1.0578,-0.4427,-0.1239,88,6.087,117,7.381,6.2075,-14.5942,-0.3607,0.3681,1.0675,70,5.66,109,0.2831,1.3568,-20.6347,1.0453,0.9691,-0.6978,40
6.212,119,3.8889,2.3713,-10.7477,-0.4339,0.122,-0.3152,75,5.797,111,4.6189,0.2339,-10.9792,-0.1003,-0.0532,-0.0499,88,6.139,118,10.6527,5.7281,-17.9603,0.3253,0.3734,0.651,70,5.712,110,2.9615,2.3661,-19.5681,0.1308,0.0405,-0.8673,40
6.264,120,2.8962,2.3221,-11.0261,-0.2832,0.1184,-0.7172,75,5.849,112,3.6015,-0.7226,-10.2293,0.5985,0.368,0.0042,88,6.191,119,9.4806,3.3883,-17.3673,-0.1272,0.9509,0.3685,70,5.764,111,3.8662,1.1,-17.4458,-0.5816,-0.6372,-0.7454,40
6.315,121,1.7555,2.4572,-11.0514,-0.0085,-0.1087,-1.1348,75,5.901,113,3.5384,-0.6309,-10.1572,1.1086,0.6772,0.3784,88,6.243,120,9.2022,0.5599,-18.7882,0.5837,0.4733,-0.4051,70,5.816,112,3.3813,-2.7531,-14.2444,-0.866,-1.1319,-1.1019,40
6.367,122,2.6228,3.3322,-11.8571,-0.2091,-0.4876,-1.5034,75,5.953,114,2.322,-0.6728,-9.9567,1.3531,0.9911,0.8296,88,6.294,121,6.2221,1.6439,-18.258,1.1025,-0.3065,-0.856,70,5.867,113,-2.0347,-1.5218,-18.3774,0.0427,-0.1411,-1.1224,40
6.419,123,6.9714,4.6621,-16.06,-0.8109,-0.8135,-1.7721,75,6.004,115,2.6382,0.0824,-9.5133,1.0787,0.7903,1.2358,88,6.346,122,5.2879,2.7673,-13.9246,0.5109,-0.6242,-1.1038,70,5.919,114,1.8394,-0.8944,-20.2915,0.0333,0.0058,-0.8501,40
6.471,124,10.1453,2.957,-16.8384,-0.8268,-0.9143,-1.2364,75,6.056,116,6.8454,4.0137,-14.5507,1.1184,-0.0955,1.2054,88,6.398,123,5.3706,1.9418,-11.734,0.696,-0.6193,-1.4687,70,5.971,115,6.4598,-0.4098,-20.9843,0.0587,0.3805,-0.0927,40
6.523,125,8.7331,2.002,-13.1974,0.071,-0.6841,-0.5674,75,6.108,117,9.9159,4.4235,-13.2119,0.3853,-0.7423,1.1656,88,6.45,124,4.2108,-2.2818,-12.6258,0.7735,-0.9641,-1.3752,70,6.023,116,8.5843,-5.4055,-18.3411,0.5455,0.9627,0.1133,40
6.574,126,5.9931,-0.1878,-10.4122,0.7262,-0.4186,-0.3759,75,6.16,118,7.5925,2.4252,-11.5388,-0.1448,0.1073,0.3785,88,6.502,125,7.2853,-6.04,-12.1157,0.8245,-1.1692,-0.6841,70,6.075,117,4.1193,-1.32,-19.416,1.0728,0.9836,0.0998,40
6.626,127,4.5011,1.1394,-8.8669,1.2044,-0.0256,-0.7432,75,6.212,119,3.0599,1.4724,-10.8338,-0.7857,-0.4512,-0.1821,88,6.554,126,9.0127,0.9436,-16.8474,0.5335,-0.4395,-1.0773,70,6.126,118,5.3224,-2.15,-16.264,1.1254,0.2799,-0.0703,40
6.678,128,3.4463,0.8406,-7.9076,1.5534,0.2849,-1.0272,75,6.263,120,2.5812,0.1745,-10.5199,-0.9575,-0.1969,-0.2041,88,6.605,127,11.8408,2.8139,-17.8856,0.2675,0.3576,-1.18,70,6.178,119,3.9595,-0.1813,-13.593,1.4551,0.6743,0.0261,40
6.73,129,2.3257,0.7344,-8.3248,1.3157,0.5146,-1.1179,75,6.315,121,1.5959,-0.5266,-10.6012,-0.2945,0.0064,-0.2466,88,6.657,128,11.2799,-0.9311,-17.0496,-0.48,0.9393,-0.2293,70,6.23,120,2.5728,0.4234,-14.5625,0.8339,1.1771,0.1887,40
6.781,130,2.316,2.4379,-11.5923,0.8974,0.9489,-1.324,75,6.367,122,1.0678,-1.7533,-10.9393,0.4568,0.3127,-0.4043,88,6.709,129,5.2377,-5.531,-16.5514,-1.0255,0.3118,0.4201,70,6.282,121,1.052,1.7996,-17.0024,-0.0627,0.9023,0.5101,40
6.833,131,6.7474,3.0063,-16.4571,-0.0224,0.5126,-0.548,75,6.419,123,1.6377,-0.9722,-10.5574,0.9602,0.2337,-0.3196,88,6.761,130,7.0693,-5.9962,-16.2598,-0.0788,-0.4458,0.8564,70,6.333,122,5.8851,5.5773,-9.8013,-0.266,-0.0083,-0.2072,40
6.885,132,9.9817,1.1386,-17.9406,0.1614,0.1417,-0.0914,75,6.471,124,6.1151,-0.1422,-14.8427,1.3499,-0.4429,-0.3301,88,6.813,131,5.519,-1.4972,-15.1474,0.619,-0.6805,1.2502,70,6.385,123,9.4125,-1.2263,-15.1346,-0.0149,-0.3937,0.032,40
6.937,133,10.4147,3.552,-14.6213,0.3249,0.1333,0.315,75,6.522,125,9.383,1.6403,-16.1971,0.6638,-0.354,0.2146,88,6.864,132,5.7243,1.8103,-13.4062,1.0101,-0.6033,1.4267,70,6.437,124,7.4564,-0.977,-15.1737,0.0636,0.3976,0.0152,40
6.989,134,6.2601,1.8855,-12.8197,-0.335,0.1495,0.6623,75,6.574,126,10.7838,1.5481,-13.5944,-0.1861,0.0293,0.2222,88,6.916,133,4.5848,5.7374,-13.4243,0.062,-0.0986,1.719,70,6.489,125,7.4514,0.3923,-14.377,0.7211,0.9752,-0.3059,40
7.04,135,4.417,1.6222,-10.894,-0.1269,0.2081,0.2537,75,6.626,127,2.8265,1.042,-11.857,-0.8159,0.69,-0.2209,88,6.968,134,8.6119,-1.0496,-12.6716,0.7065,0.3892,1.4428,70,6.541,126,5.2584,2.4759,-17.7279,1.201,1.2754,-0.8947,40
7.092,136,3.4244,0.851,-9.6224,-0.082,0.1912,-0.0187,75,6.678,128,3.4638,0.6074,-10.961,-1.2755,0.36,-0.1836,88,7.02,135,11.5511,3.3386,-15.1169,-0.0089,0.0477,1.0649,70,6.592,127,4.6095,3.2614,-14.8237,0.3542,0.2849,-1.2029,40
7.144,137,2.777,0.2023,-8.7264,0.0449,0.2738,-0.1215,75,6.73,129,1.6736,1.3951,-9.9246,-0.9888,0.681,-0.0531,88,7.072,136,10.9908,2.9336,-17.3233,-0.4001,0.3376,0.8044,70,6.644,128,3.7648,-0.2244,-13.4369,-0.4067,-0.1848,-1.2757,40
7.196,138,2.372,-0.0993,-7.6399,0.1208,0.6811,-0.0336,75,6.781,130,1.4476,1.6923,-9.4552,-0.4543,0.9531,-0.1479,88,7.123,137,7.2169,2.1843,-16.5041,-0.9607,0.912,0.2273,70,6.696,129,3.615,-2.0965,-12.4376,-0.8389,-0.6586,-1.1483,40
7.248,139,6.7883,1.0296,-8.4522,0.3256,0.8013,-0.0212,75,6.833,131,0.4567,3.0215,-9.9043,0.0547,1.3419,-0.7119,88,7.175,138,5.8932,3.334,-13.813,-0.6028,1.3134,-0.5082,70,6.748,130,-1.8906,-0.8897,-17.0587,-0.7777,0.1715,-0.9944,40
7.299,140,10.0115,3.4404,-14.1653,0.5527,1.2672,0.2584,75,6.885,132,4.5798,1.5624,-11.5131,-0.0168,0.3469,-1.2059,88,7.227,139,5.9439,0.1774,-13.2451,-1.0779,1.6369,-1.0384,70,6.8,131,3.7375,-5.9462,-20.4314,-0.564,0.5966,-0.6703,40
7.351,141,10.7193,6.5117,-14.5881,1.0778,0.5749,0.3561,75,6.937,133,8.2624,2.9693,-16.3426,-0.2539,0.8633,-0.4933,88,7.279,140,5.7044,-0.7344,-15.0019,-0.1102,1.7595,-1.4319,70,6.852,132,5.1281,-1.8832,-19.0995,-0.4421,1.1204,-0.0547,40
7.403,142,6.3727,6.5559,-12.3065,0.2834,0.4142,0.378,75,6.989,134,10.9501,5.0744,-10.7664,-0.304,-0.0426,0.3053,88,7.331,141,2.2203,-3.1346,-15.0298,0.5961,1.3791,-1.7191,70,6.903,133,8.1374,-5.098,-15.851,-0.6684,1.5023,0.6003,40
7.455,143,4.9239,5.8961,-11.6984,-0.4705,0.0538,0.0593,75,7.04,135,6.7,6.7077,-11.7766,-0.439,0.6426,0.8751,88,7.382,142,6.8863,0.8394,-8.3853,0.7748,0.872,-1.4341,70,6.955,134,4.0681,-3.3135,-15.9926,-1.1649,1.0007,1.0444,40
7.506,144,3.9354,4.3703,-11.4018,-1.0,-0.1523,-0.3101,75,7.092,136,2.8628,6.2268,-9.1221,0.3513,0.3123,0.6292,88,7.434,143,10.2916,2.1587,-11.8206,1.1019,0.0335,-1.3204,70,7.007,135,3.3139,-4.4906,-15.748,-1.5273,0.0636,1.3437,40
7.558,145,2.8797,3.2655,-11.2791,-0.791,-0.3367,-0.7614,75,7.144,137,1.5121,7.4006,-7.622,-0.4213,0.5103,0.2886,88,7.486,144,12.777,6.9274,-10.9454,0.2399,0.1997,-0.4511,70,7.059,136,4.2969,-3.4614,-14.2155,-0.44,-0.6204,1.1094,40
7.61,146,2.2579,2.9938,-10.8765,-1.0685,-0.5054,-0.8538,75,7.196,138,1.1434,5.7679,-7.9492,-0.9771,0.3526,-0.1781,88,7.538,145,7.9673,-0.1811,-15.7546,-0.5001,0.8241,0.3485,70,7.111,137,3.6957,-1.2745,-11.838,-0.4527,-1.1196,1.1459,40
7.662,147,3.1755,2.5799,-11.4645,-1.4561,-0.755,-0.9162,75,7.248,139,0.8562,4.8801,-8.6059,-0.8982,0.6497,-0.8163,88,7.59,146,8.9755,-3.3609,-14.0776,-1.0402,-0.0126,0.9321,70,7.162,138,2.5666,2.1222,-16.0239,-0.6611,-0.3548,1.2209,40
7.713,148,7.3747,2.4094,-15.923,-0.3971,-1.2204,-1.3438,75,7.3,140,3.2255,5.2199,-9.3517,-0.8992,0.4127,-1.2822,88,7.641,147,7.0256,-3.8409,-13.1756,-0.1315,-0.3686,1.3469,70,7.214,139,6.9905,6.841,-19.1797,0.0598,0.0494,0.423,40
7.765,149,10.4397,2.5652,-16.8798,0.3845,-0.899,-1.2143,75,7.352,141,7.274,6.5477,-13.7353,-1.3348,0.3051,-1.3434,88,7.693,148,6.7195,-1.2264,-11.807,0.5805,-0.1738,1.6058,70,7.266,140,4.8337,8.6368,-20.0289,0.7183,0.721,0.2924,40
7.817,150,8.6563,6.4195,-16.8432,0.9451,0.0263,-0.2096,75,7.403,142,10.2288,7.6634,-12.929,-1.2514,-0.45,-0.7449,88,7.745,149,5.1545,2.1361,-11.7706,0.72,0.3856,1.5561,70,7.318,141,8.6451,4.2665,-19.2865,0.9936,0.8905,0.107,40
7.869,151,1.2564,6.1521,-15.6331,1.2858,0.7016,0.3855,75,7.455,143,7.838,4.6911,-11.6596,-1.5934,0.187,-0.2654,88,7.797,150,4.9515,5.7708,-16.5956,0.854,-0.0541,0.9321,70,7.37,142,3.0206,8.406,-21.9369,1.3999,1.3349,-0.4778,40
7.921,152,1.53,6.2582,-16.9994,0.7288,0.1672,0.2356,75,7.507,144,5.1605,0.9885,-11.8102,-0.5638,0.0025,-0.0439,88,7.849,151,6.2444,5.5936,-20.1171,0.0203,0.6389,0.6839,70,7.421,143,4.8711,6.157,-20.207,0.3446,0.3075,-0.9329,40
7.972,153,0.069,6.4767,-15.6657,0.0926,-0.3879,0.2911,75,7.559,145,4.1244,0.509,-11.0022,0.2603,0.4615,0.1234,88,7.9,152,5.3173,2.9769,-19.0037,-0.0159,1.1446,0.1531,70,7.473,144,5.5665,3.0548,-17.3473,-0.4256,-0.4424,-1.2622,40
8.024,154,0.032,5.301,-13.9061,-0.3289,-0.7036,0.174,75,7.611,146,3.3513,-0.4845,-10.6549,0.6057,0.5722,0.6292,88,7.952,153,6.7192,4.1551,-17.9787,0.6649,1.3578,-0.5623,70,7.525,145,3.6214,0.8143,-14.0832,-0.376,-0.6383,-1.5765,40
8.076,155,1.1852,4.7553,-13.2615,-0.8692,-1.0853,-0.1616,75,7.662,147,2.5745,-0.1706,-10.6278,1.0171,0.6252,1.0918,88,8.004,154,4.1338,2.248,-18.9804,1.1618,0.362,-0.8024,70,7.577,146,0.3478,-0.5152,-17.8478,0.2491,0.2191,-1.7297,40
8.128,156,5.9221,6.2219,-15.7549,-0.9906,-1.4614,-0.6663,75,7.714,148,2.2735,0.4945,-10.785,1.0596,0.3812,1.4616,88,8.056,155,4.845,5.6336,-16.8317,1.493,-0.4092,-0.9874,70,7.629,147,4.9697,-2.9727,-21.0073,0.8545,0.8449,-1.5804,40
8.18,157,9.3794,5.5073,-18.5344,-0.9038,-0.4303,-0.0337,75,7.766,149,6.5792,2.6796,-13.2985,0.9952,-0.3945,1.7321,88,8.108,156,4.5267,4.2791,-14.2955,0.9586,-0.9603,-0.9659,70,7.68,148,8.7444,0.9452,-20.8101,0.2963,0.7993,-0.9731,40
8.231,158,9.0592,5.7549,-16.6662,-0.5622,0.3684,0.6521,75,7.818,150,9.7217,3.6578,-17.6245,0.6791,-0.1173,1.838,88,8.159,157,3.6066,3.0605,-13.3157,0.0955,-1.3588,-0.9734,70,7.732,149,9.4017,-1.9089,-18.8904,0.824,1.2683,-0.4301,40
8.283,159,4.5997,3.3772,-14.1132,-0.6174,0.7564,0.8378,75,7.87,151,10.9434,3.0286,-12.4066,0.5315,0.0765,0.9038,88,8.211,158,3.0869,0.9656,-16.4039,0.6841,-1.663,-0.8858,70,7.784,150,6.607,-0.9763,-18.0659,1.0684,1.6106,-0.0498,40
8.335,160,3.0848,2.2618,-12.1424,0.2237,0.6976,0.173,75,7.921,152,5.0517,0.6744,-12.703,-0.1118,0.5112,0.4663,88,8.263,159,7.5187,-4.5323,-13.3754,-0.0026,-1.3771,-0.0968,70,7.836,151,7.1422,0.0428,-14.4311,0.8798,0.8128,-0.1952,40
8.387,161,3.1133,2.0501,-11.4118,0.8377,0.7353,-0.5303,75,7.973,153,3.7372,-2.23,-12.6071,0.2438,0.491,0.177,88,8.315,160,10.7533,-3.8015,-15.468,0.1228,-1.3789,-0.3647,70,7.888,152,5.6537,-2.2073,-12.7214,1.299,1.0789,-0.0758,40
8.439,162,2.1677,1.508,-11.6279,1.0694,0.9976,-0.8022,75,8.025,154,2.1993,-2.1224,-11.8062,0.7864,0.5838,0.0031,88,8.367,161,13.1139,0.4563,-13.5348,-0.5856,-0.328,0.3014,70,7.939,153,3.3884,-2.0204,-12.1674,1.381,1.309,0.3245,40
8.49,163,1.4084,2.1717,-11.9905,0.6999,1.3439,-0.7657,75,8.077,155,1.1797,-2.3951,-11.2281,0.9072,0.6063,-0.007,88,8.418,162,4.8173,-4.904,-15.189,-1.1026,0.0228,-0.3351,70,7.991,154,2.7822,0.6279,-14.8034,0.4049,1.2138,0.9172,40
8.542,164,1.378,2.3464,-14.8115,-0.1666,1.1104,-0.3066,75,8.129,156,1.4932,-2.0001,-11.4576,1.3143,0.3361,0.1685,88,8.47,163,7.8493,-4.1058,-15.5537,-0.1943,-0.6568,0.3836,70,8.043,155,5.6318,1.9006,-8.1964,-0.3815,0.2191,0.4766,40
8.594,165,6.0629,4.2409,-18.8066,-0.79,1.4861,0.3792,75,8.18,157,5.6419,-0.5439,-11.3498,1.6206,-0.3987,0.4585,88,8.522,164,5.628,-1.945,-13.8621,0.5347,-0.361,0.7945,70,8.095,156,9.2277,-3.9097,-13.9633,-0.6569,0.5228,0.4378,40
8.646,166,9.4821,3.786,-17.7584,-0.2708,0.8249,0.8784,75,8.232,158,9.0376,1.5777,-13.8083,0.5027,-0.6912,1.0,88,8.574,165,5.3672,1.1978,-12.2545,1.0668,-0.2354,1.0817,70,8.147,157,2.5152,-0.7111,-16.7905,-1.1565,0.9179,0.357,40
8.697,167,7.4502,3.9348,-14.947,0.1425,0.8267,1.2367,75,8.284,159,11.5159,0.7675,-13.3411,0.0136,-0.1472,0.2584,88,8.626,166,5.5172,4.0271,-12.1357,0.1034,-0.0513,1.4582,70,8.198,158,6.953,1.8093,-15.1328,-0.1694,1.3549,0.0883,40
8.749,168,4.8231,2.5332,-10.3226,0.7421,0.2477,0.6828,75,8.336,160,8.7786,0.8177,-10.5661,-0.069,0.5716,-0.4978,88,8.677,167,9.2924,8.0079,-14.0764,0.0505,-0.4566,1.0915,70,8.25,159,3.7945,4.0227,-16.2482,0.5511,1.6738,-0.5818,40
8.801,169,4.1876,2.2496,-7.9963,0.9098,0.1316,0.2811,75,8.388,161,5.6675,1.9495,-9.0281,-0.6941,0.511,-0.8958,88,8.729,168,12.0478,2.0602,-15.0452,0.4292,-0.3105,0.9669,70,8.302,160,4.1108,6.5462,-14.3537,1.0769,0.5588,-1.096,40
8.853,170,3.5322,1.2607,-7.7223,1.3115,0.3286,-0.0529,75,8.44,162,4.4241,1.5341,-8.6347,-1.1866,0.7327,-0.8051,88,8.781,169,12.1488,3.2381,-14.6665,-0.3283,0.2632,0.6001,70,8.354,161,4.1995,4.3804,-13.9814,0.1089,-0.2022,-1.3592,40
8.905,171,3.0079,1.0495,-7.8021,1.6308,0.7993,-0.305,75,8.491,163,2.6935,1.5097,-8.9541,-1.1465,1.1774,-0.8,88,8.833,170,10.0559,2.706,-17.4379,0.2507,0.4044,-0.1251,70,8.406,162,3.7836,-0.2616,-13.6436,-0.5976,-0.4929,-1.4822,40
8.957,172,6.1533,2.3395,-7.5026,1.787,1.0025,-0.5666,75,8.543,164,2.6605,1.4036,-9.8836,-0.8184,1.4518,-0.8989,88,8.885,171,6.694,4.4104,-15.3008,0.8595,0.2696,-0.7614,70,8.457,163,1.1379,-2.3388,-17.9389,0.2284,-0.2991,-0.8876,40
9.008,173,9.5481,5.6601,-13.2476,0.6834,1.4108,-0.3181,75,8.595,165,5.4484,2.0203,-10.9354,0.0743,1.6382,-1.3424,88,8.936,172,5.5501,3.3657,-12.594,0.2986,0.5549,-1.2297,70,8.509,164,5.9478,2.6837,-11.2848,-0.4568,-0.5509,-0.5383,40
9.06,174,12.0257,4.5689,-15.6414,0.8235,0.8522,-0.2413,75,8.647,166,8.8963,-1.7894,-14.8094,0.6805,1.4014,-1.6661,88,8.988,173,5.1984,0.9007,-11.8707,-0.1436,1.0103,-1.5715,70,8.561,165,8.1048,0.0232,-16.1797,0.0319,0.1095,-0.0833,40
9.112,175,11.6209,5.699,-15.3116,0.9824,0.2564,-0.2493,75,8.699,167,11.4128,3.9363,-18.1726,-0.1833,0.6542,-0.5506,88,9.04,174,5.0147,-4.5797,-13.376,0.5614,1.2963,-1.7477,70,8.613,166,9.6506,-1.9184,-14.9559,-0.2906,0.7649,0.5228,40
9.164,176,7.0518,4.2938,-15.7696,0.0396,-0.0388,-0.0538,75,8.75,168,13.2495,8.1998,-11.1845,0.5379,-0.1952,0.2635,88,9.092,175,2.417,-5.0839,-16.5806,1.0863,0.9148,-1.5986,70,8.665,167,7.114,-2.0093,-14.8096,-0.1937,1.243,1.0619,40
9.216,177,5.4184,2.8614,-14.8866,-0.6485,-0.5002,-0.2332,75,8.802,169,7.5695,11.3114,-6.4725,-0.2317,0.0404,0.8577,88,9.143,176,7.0298,-8.9475,-20.1061,1.3536,0.662,-1.0757,70,8.716,168,4.4524,-0.642,-16.0078,-0.8185,1.2205,1.4554,40
9.267,178,4.0704,2.3124,-14.374,-1.1507,-0.9474,-0.1615,75,8.854,170,4.972,10.3397,-4.8939,-0.7909,-0.1792,0.5998,88,9.195,177,10.3964,-2.2891,-20.7323,0.8215,0.243,-0.9154,70,8.768,169,5.3179,-0.7962,-13.9872,0.0265,0.224,1.4177,40
9.319,179,3.5498,0.9075,-13.1225,-1.5172,-1.2261,-0.3815,75,8.906,171,2.1383,9.2857,-5.5974,-1.2573,-0.3625,0.4893,88,9.247,178,10.7319,-0.4001,-16.0605,0.139,0.8557,-0.3504,70,8.82,170,4.6695,1.1725,-12.71,0.363,-0.4005,1.6554,40
9.371,180,4.0767,-0.0287,-11.5583,-1.0462,-1.5187,-0.9536,75,8.958,172,1.1243,7.9866,-6.813,-1.5976,-0.2867,0.1316,88,9.299,179,7.7166,-3.2104,-15.2951,-0.5738,0.9863,0.422,70,8.872,171,3.6762,4.4943,-10.4284,-0.4122,-0.573,1.8885,40
9.423,181,5.24,1.9616,-11.1511,-0.3461,-1.6188,-1.3711,75,9.009,173,0.5481,5.7824,-7.9573,-1.5348,-0.0604,-0.2021,88,9.351,180,9.1668,-6.201,-13.4271,-1.094,0.0595,0.9857,70,8.924,172,7.8004,4.4508,-5.0034,0.2683,-1.085,0.9412,40
9.474,182,8.8817,2.6922,-16.135,-0.015,-1.8508,-1.357,75,9.061,174,5.313,6.19,-10.8994,-0.7997,-0.6523,-0.3754,88,9.403,181,7.512,-5.5393,-11.8927,-0.1471,-0.1539,1.3972,70,8.975,173,10.8103,-2.0484,-11.6329,0.04,-0.8368,0.612,40
9.526,183,11.5394,3.3054,-16.1731,0.653,-0.9061,-0.5026,75,9.113,175,8.7975,6.0458,-15.889,0.0157,0.203,-0.8319,88,9.454,182,6.2584,-2.6675,-11.1839,0.5692,0.2178,1.6669,70,9.027,174,5.9528,0.6564,-15.8089,0.2494,0.0742,0.7448,40
9.578,184,8.5498,5.7067,-15.8013,0.546,0.0211,0.3098,75,9.165,176,11.3407,7.1483,-11.8155,-0.1537,-0.1913,-0.3798,88,9.506,183,4.276,3.403,-12.7005,1.0544,0.7259,1.3534,70,9.079,175,9.4619,1.9223,-13.0833,0.8567,0.7391,0.5849,40
9.63,185,3.7744,5.373,-14.9416,0.5004,0.12,0.8669,75,9.217,177,7.7484,4.6729,-10.5505,-0.7352,-0.1992,0.1576,88,9.558,184,8.3865,7.8355,-17.2743,1.3206,0.8702,0.3203,70,9.131,176,1.4331,5.8419,-17.0789,1.2999,1.186,-0.0005,40
9.682,186,1.4248,6.3124,-14.9381,0.1162,0.1361,0.7987,75,9.269,178,6.175,1.2628,-9.6487,0.0737,-0.1044,0.5161,88,9.61,185,11.3866,9.6123,-20.6124,1.4124,0.1424,-0.1919,70,9.182,177,5.723,7.063,-17.4507,0.2717,0.1988,-0.5955,40
9.733,187,0.8125,6.0449,-14.5796,-0.5911,-0.1584,0.7128,75,9.32,179,4.5417,0.4296,-9.6365,0.6001,0.3515,0.7407,88,9.662,186,13.5762,8.9968,-17.6691,1.346,0.3859,-0.6101,70,9.234,178,1.9781,2.347,-14.7813,-0.4788,0.1422,-1.031,40
9.785,188,0.6125,5.4805,-14.0276,-1.0128,-0.313,0.3147,75,9.372,180,2.843,0.4256,-9.4446,0.9638,0.8328,1.0449,88,9.713,187,10.513,8.1304,-18.0417,1.6589,0.8373,-1.1074,70,9.286,179,1.5402,-0.8872,-11.7174,0.0504,0.0348,-1.271,40
9.837,189,1.1843,6.5426,-14.2002,-0.8207,-0.7223,-0.442,75,9.424,181,0.6213,1.6939,-8.5491,0.382,0.8124,1.428,88,9.765,188,6.828,5.5269,-19.5196,1.2984,0.1748,-1.2444,70,9.338,180,0.7211,0.7089,-16.5331,0.7114,0.7104,-1.5643,40
9.889,190,5.9216,7.3727,-18.3605,-1.2764,-1.1965,-0.7453,75,9.476,182,0.7703,3.8064,-9.7535,0.0643,0.6691,1.7076,88,9.817,189,6.1218,4.4689,-18.3082,0.2724,-0.5134,-1.2547,70,9.39,181,5.6436,5.1578,-14.043,0.7818,0.3662,-1.441,40
9.941,191,9.379,5.9063,-18.1848,-1.202,-0.6389,-0.1019,75,9.528,183,5.4821,4.6194,-14.7977,0.6666,-0.1843,0.9685,88,9.869,190,5.1034,2.9063,-16.2453,-0.1528,-1.0335,-1.4472,70,9.441,182,9.2362,1.8953,-17.3983,0.3873,0.3248,-0.6909,40
9.992,192,7.8104,6.1305,-15.6561,-1.2079,0.2161,0.6023,75,9.579,184,8.9209,4.8193,-16.0946,0.1365,-0.5888,0.4465,88,9.921,191,4.7894,0.3878,-13.8914,0.1281,-1.4277,-1.6628,70,9.493,183,8.1767,-1.5219,-17.2497,0.9574,0.9003,-0.4785,40
10.044,193,3.7855,1.0758,-13.3678,-1.1502,0.3057,1.1162,75,9.631,185,11.4308,1.2609,-14.7972,-0.3735,-0.9939,0.189,88,9.972,192,3.1846,3.1749,-13.9954,0.7701,-1.3658,-1.8739,70,9.545,184,7.5795,1.8803,-13.6481,0.3003,0.378,0.0768,40
10.096,194,2.9662,1.4249,-11.4712,-0.1651,0.5634,0.6481,75,9.683,186,6.8811,-0.7787,-12.3606,0.3991,-0.0463,-0.5149,88,10.024,193,7.59,-2.9199,-11.7027,0.4478,-0.7832,-0.9657,70,9.597,185,6.6691,-0.6718,-11.0363,-0.4579,-0.0109,0.6431,40
10.148,195,2.9052,0.6113,-10.4873,0.4475,0.9767,0.5437,75,9.735,187,5.9254,-2.8193,-10.182,0.9584,-0.1763,-0.5972,88,10.076,194,10.8053,-4.7088,-14.0445,0.3657,-0.3583,-0.7506,70,9.649,186,5.5705,-2.0347,-10.5843,0.3405,0.4158,0.4325,40
10.2,196,3.8876,0.0175,-10.9785,0.6613,1.3919,0.6591,75,9.787,188,5.5616,-4.527,-10.592,1.3712,0.199,-0.7869,88,10.128,195,13.1519,0.0559,-12.381,-0.3712,0.4168,-0.336,70,9.7,187,4.5442,0.0796,-11.4725,0.446,0.8309,0.6801,40
10.251,197,3.9528,-0.1765,-11.1328,0.5375,1.6983,1.0619,75,9.838,189,4.1829,-4.0703,-10.6222,1.6725,0.8243,-0.8028,88,10.179,196,6.6578,-5.1962,-17.0411,-0.9462,0.9826,-0.021,70,9.752,188,3.5948,1.6879,-14.1424,-0.3516,0.7989,1.1767,40
10.303,198,5.4567,-0.6861,-13.1934,0.5805,1.598,1.4516,75,9.89,190,3.81,-2.4423,-11.2285,1.8924,1.2807,-0.4932,88,10.231,197,5.1551,-5.9192,-15.788,-1.3555,0.0437,0.4757,70,9.804,189,-1.7471,1.3868,-18.082,-0.9337,0.2253,1.4828,40
10.355,199,9.0397,1.4078,-17.6256,-0.012,1.8487,1.7253,75,9.942,191,5.5389,-0.4614,-12.6792,1.8605,1.3782,0.3054,88,10.283,198,5.9295,-5.1696,-15.306,-0.3397,-0.6415,0.7682,70,9.856,190,3.8422,-4.2846,-21.1783,-1.2169,-0.481,0.9718,40
10.407,200,11.6547,-0.2239,-18.3045,-0.6861,0.6799,1.9349,75,9.994,192,8.9625,4.9901,-14.6445,1.1423,1.42,0.8883,88,10.335,199,5.1257,-1.9697,-14.3017,0.4286,-1.1315,0.7484,70,9.908,191,-2.6684,-0.6399,-23.438,-1.2274,0.3339,0.8307,40
10.459,201,10.5072,-3.1676,-16.3486,0.1174,-0.1731,0.737,75,10.046,193,11.3874,6.5434,-14.5357,0.3905,1.1543,0.9841,88,10.387,200,3.4902,1.9455,-14.1454,0.3611,-0.665,0.9147,70,9.959,192,3.1698,-0.1518,-20.2762,-0.2211,0.9287,0.3304,40
10.51,202,12.7257,-4.0852,-9.3408,0.5343,-0.7957,0.023,75,10.097,194,8.4846,5.6678,-12.4183,0.1586,0.7722,0.0318,88,10.438,201,7.813,6.6257,-10.2364,-0.253,-1.1587,0.8761,70,10.011,193,1.1091,3.0853,-22.7796,0.5133,1.3627,-0.4276,40
10.562,203,6.547,-3.4169,-9.6425,1.0644,-0.5286,-0.4093,75,10.149,195,6.122,6.0063,-10.1596,-0.5642,-0.0986,-0.6602,88,10.49,202,10.968,2.9698,-12.4271,-0.0589,-0.4078,0.6386,70,10.063,194,1.67,5.64,-19.6653,1.0493,0.3278,-0.9835,40
10.614,204,4.8223,-0.774,-7.5485,1.4512,-0.1572,-0.7857,75,10.201,196,6.5608,5.0654,-10.6907,-1.0918,-0.603,-1.0832,88,10.542,203,13.2707,1.2233,-12.4548,-0.6749,-0.1057,0.4576,70,10.115,195,2.4134,5.1637,-17.3554,0.1862,-0.4275,-1.1497,40
10.666,205,4.5332,-1.0572,-5.7666,1.7335,0.4968,-1.0196,75,10.253,197,5.1381,3.3568,-11.6424,-1.4769,-0.1472,-1.2154,88,10.594,204,11.2808,2.721,-13.6587,-1.0677,0.3905,0.3497,70,10.166,196,4.9035,2.0318,-15.7439,-0.5412,-0.9788,-0.983,40
10.718,206,5.3671,-0.085,-6.2687,1.0022,1.045,-0.9197,75,10.305,198,4.4996,1.8286,-11.3498,-1.3975,0.3365,-1.4737,88,10.646,205,9.2663,3.7502,-11.2059,-1.3456,0.8295,0.1665,70,10.218,197,3.154,-3.7312,-10.9734,-1.0721,-1.0179,-0.3953,40
10.769,207,8.9743,0.1783,-10.0488,0.0541,1.163,-0.5225,75,10.357,199,4.7668,1.616,-11.9109,-0.7928,0.9247,-1.762,88,10.697,206,8.5568,4.3004,-9.5736,-1.5727,0.8339,-0.2563,70,10.27,198,-0.7601,2.569,-5.4011,-0.9516,-1.0718,-0.4977,40
10.821,208,11.607,-2.8099,-15.3306,-0.6379,1.1188,-0.3123,75,10.408,200,8.3989,4.3505,-10.6376,-0.4993,0.4018,-1.9723,88,10.749,207,6.8837,2.8644,-9.9924,-0.9246,1.1906,-0.8461,70,10.322,199,4.5625,-0.4544,-11.9232,-0.296,-0.6256,-0.1081,40
10.873,209,12.384,0.1349,-15.6228,0.2004,0.1472,-0.903,75,10.46,201,11.0498,6.8302,-12.5522,-1.0445,0.8527,-1.8092,88,10.801,208,5.8059,0.209,-12.5904,0.0017,1.2991,-1.2915,70,10.374,200,6.0149,0.382,-12.4255,-0.4869,0.2284,0.5995,40
10.925,210,9.6678,1.1964,-14.1339,0.0737,-0.4684,-1.1719,75,10.512,202,12.4562,8.3533,-9.3387,-0.2057,-0.0503,-1.2256,88,10.853,209,3.3064,-2.4632,-14.5028,0.6778,0.3965,-1.6166,70,10.425,201,5.6064,-2.2285,-13.7766,-1.0325,0.7259,1.1179,40
10.977,211,7.2908,2.0939,-13.5844,-0.6236,-0.694,-0.8951,75,10.564,203,7.8967,6.8977,-8.7412,0.2138,0.238,-0.5217,88,10.905,210,7.6789,-2.7344,-16.6638,0.766,0.5446,-1.5533,70,10.477,202,1.4708,-0.9435,-16.3494,-1.4306,1.0278,1.3128,40
11.028,212,5.957,0.4178,-13.6591,-1.1325,-1.036,-0.658,75,10.616,204,3.2883,6.3641,-7.1538,0.798,-0.0842,0.0974,88,10.957,211,10.8702,-2.5191,-16.3385,1.2057,-0.2759,-1.0671,70,10.529,203,3.6423,-1.1966,-14.4564,-0.5227,0.0834,1.0085,40
11.08,213,5.5265,-2.2807,-13.156,-1.5039,-0.9699,-0.9271,75,10.667,205,0.7685,5.6221,-7.1559,0.6293,-0.4882,0.6737,88,11.008,212,12.0297,2.1265,-16.9169,1.2442,0.0545,-0.9023,70,10.581,204,4.0578,-0.7905,-11.2348,-0.203,-0.5588,1.0166,40
11.132,214,4.8694,-1.1423,-12.4225,-1.775,-0.8479,-0.8405,75,10.719,206,0.6156,5.1743,-6.9294,0.2537,-0.8041,1.0154,88,11.06,213,10.7103,-1.291,-15.13,0.2328,0.6995,-0.0906,70,10.633,205,3.9997,-1.4486,-9.1992,-0.7355,-0.829,1.0841,40
11.184,215,4.1134,0.0653,-13.4683,-1.9729,-0.8674,-0.6463,75,10.771,207,0.505,4.6186,-7.652,-0.3085,-0.6819,0.9213,88,11.112,214,8.2821,-4.9185,-15.5696,0.0734,0.9404,0.6096,70,10.684,206,-0.4711,3.1214,-14.6952,-0.5915,-0.2204,1.3151,40
11.235,216,8.0593,-1.8867,-17.4189,-1.3541,-1.2883,-1.1468,75,10.823,208,-0.302,1.9695,-7.7987,-0.3444,-0.6653,0.6662,88,11.164,215,6.8061,-3.4625,-13.3451,0.2219,1.2679,1.1226,70,10.736,207,4.7734,7.5703,-14.432,-0.75,-0.4897,0.4685,40
11.287,217,10.9391,1.6467,-19.1677,-0.3139,-1.3275,-1.5121,75,10.875,209,4.6994,5.0405,-10.9614,-0.0382,-1.1583,0.9048,88,11.216,216,5.7885,-1.7082,-12.089,-0.4538,1.4494,1.4971,70,10.788,208,8.6012,10.6882,-16.2227,0.0706,-0.0765,0.4827,40
11.339,218,11.3468,3.2471,-18.3924,0.4453,-0.5286,-0.427,75,10.926,210,8.3498,7.1384,-15.2565,-0.7079,-0.5275,1.3258,88,11.267,217,4.9392,-0.4386,-12.8778,-1.0064,1.5325,1.7704,70,10.839,209,11.3946,4.7318,-16.6021,0.2447,-0.0716,0.2232,40
11.391,219,6.1759,5.2043,-14.9693,0.9994,0.2967,0.2151,75,10.978,211,11.0139,5.4767,-13.2269,-0.5175,-0.582,1.1569,88,11.319,218,4.0038,1.5042,-14.2424,-0.2087,1.3083,1.6832,70,10.891,210,10.4859,5.8569,-13.8072,0.8532,0.6327,-0.1128,40
11.443,220,4.0774,5.4274,-14.3422,0.4995,0.4305,0.3478,75,11.03,212,5.8243,3.7439,-11.0886,-1.0577,0.2543,0.8967,88,11.371,219,8.1879,6.4497,-18.1118,0.0344,1.1326,0.7782,70,10.943,211,7.1937,7.2572,-15.9309,1.2974,-0.2008,-0.7537,40
11.494,221,3.5089,4.3598,-14.858,0.5816,0.6187,0.1439,75,11.082,213,4.3051,2.0048,-11.015,-0.1002,-0.0135,0.7912,88,11.423,220,11.2416,8.3376,-21.2237,0.4137,0.9259,0.3669,70,10.995,212,6.3711,6.5342,-14.5903,0.3182,-0.7822,-0.8794,40
11.546,222,1.4029,4.7054,-13.8347,0.9029,0.6678,0.0585,75,11.134,214,3.129,0.7161,-11.0484,0.5986,0.4841,0.4403,88,11.475,221,9.456,6.4941,-18.8892,0.4658,1.2332,-0.2728,70,11.047,213,4.9127,2.8919,-13.5094,-0.4449,-1.0705,-0.9095,40
11.598,223,0.5821,4.5372,-12.9189,0.5816,0.5497,-0.0673,75,11.185,215,2.0597,0.2806,-10.5908,1.1086,0.7218,0.3064,88,11.526,222,9.6218,4.3966,-18.8669,1.0165,0.7187,-0.8731,70,11.098,214,4.1514,-0.0388,-9.8271,-0.4806,-0.8489,-0.9614,40
11.65,224,1.2617,5.5813,-14.3602,-0.2529,0.1898,-0.0486,75,11.237,216,1.06,0.8605,-9.9437,1.2996,0.7813,0.1652,88,11.578,223,7.8876,2.7585,-17.4519,0.7764,-0.1489,-0.8677,70,11.15,215,3.3905,-2.8837,-7.7094,-0.3634,-0.9772,-1.3731,40
11.702,225,5.978,5.3792,-18.4772,-0.8319,0.1824,0.3327,75,11.289,217,0.9788,0.6212,-9.7871,1.2761,0.5154,0.3544,88,11.63,224,6.4185,3.1829,-14.9442,0.6592,-0.5644,-1.2564,70,11.202,216,7.5918,3.1875,-7.6123,-0.0184,-1.1089,-1.6211,40
11.753,226,9.4203,4.4961,-18.2587,-0.3024,0.3653,0.5774,75,11.341,218,5.6342,4.6713,-14.9971,1.6031,-0.2965,0.1032,88,11.682,225,6.2447,2.5655,-11.9786,0.2415,-0.5848,-1.3823,70,11.254,217,10.6582,2.5448,-10.8393,0.0312,-0.6114,-0.5753,40
11.805,227,6.4604,4.4413,-16.4786,-0.2546,0.7167,0.9404,75,11.393,219,9.032,6.0727,-15.4187,1.8417,-0.0955,-0.6111,88,11.734,226,4.8861,2.048,-11.2933,-0.4989,-0.6737,-1.2964,70,11.306,218,11.4589,-3.4395,-11.8154,0.6221,0.2388,-0.3773,40
11.857,228,1.5938,2.217,-12.9266,-0.1785,0.8235,0.756,75,11.444,220,11.5118,8.0627,-8.6054,1.6195,-0.0715,-0.5928,88,11.785,227,8.8318,-2.8677,-5.6583,-0.7365,-1.1651,-0.8536,70,11.357,219,6.4486,-0.1803,-14.8608,1.0555,0.4155,-0.0605,40
