right_hand_timestamp,right_hand_index,right_hand_accel_x,right_hand_accel_y,right_hand_accel_z,right_hand_gyro_x,right_hand_gyro_y,right_hand_gyro_z,right_hand_battery_percentage,left_hand_timestamp,left_hand_index,left_hand_accel_x,left_hand_accel_y,left_hand_accel_z,left_hand_gyro_x,left_hand_gyro_y,left_hand_gyro_z,left_hand_battery_percentage,right_leg_timestamp,right_leg_index,right_leg_accel_x,right_leg_accel_y,right_leg_accel_z,right_leg_gyro_x,right_leg_gyro_y,right_leg_gyro_z,right_leg_battery_percentage,left_leg_timestamp,left_leg_index,left_leg_accel_x,left_leg_accel_y,left_leg_accel_z,left_leg_gyro_x,left_leg_gyro_y,left_leg_gyro_z,left_leg_battery_percentage
0.462,8,8.7471,-6.1077,-0.5937,0.7911,-1.1255,-1.2062,86,0.04,0,0.2286,5.1554,1.4455,-0.6679,-0.246,-0.4012,91,0.067,1,12.3316,-0.5347,-14.2824,0.5403,-0.1274,-0.4554,93,0.198,3,10.6645,0.0832,-13.4868,0.2441,-0.7136,-0.1693,63
0.514,9,6.6421,-3.2982,-0.8541,-0.0978,-0.3608,-1.249,86,0.092,1,3.4309,5.12,1.5235,-1.1675,0.4477,-0.341,91,0.119,2,12.537,-0.8818,-12.1325,0.8729,0.4212,-0.7818,93,0.25,4,12.9007,-0.8387,-13.3692,0.7167,0.1641,-0.0184,63
0.565,10,6.8256,-2.9796,-0.8823,-0.7488,0.4191,-1.0881,86,0.144,2,5.2839,4.5947,1.3485,-1.5321,1.0058,-0.2541,91,0.171,3,11.699,-5.7281,-12.2625,1.3136,0.1731,-0.197,93,0.302,5,10.6025,3.2232,-15.5579,0.8544,0.7668,0.1331,63
0.617,11,7.1724,-3.1263,0.6596,-0.8389,0.9883,-0.3965,86,0.195,3,6.5986,5.1216,-0.5482,-1.6045,1.4132,0.1229,91,0.223,4,7.7314,-1.0222,-8.8827,0.9227,0.7876,0.295,93,0.353,6,8.0818,3.8938,-17.024,-0.0535,-0.1071,-0.2282,63
0.669,12,7.3186,-3.7577,0.8595,0.0621,1.4037,0.1834,86,0.247,4,6.0655,5.0836,-5.7302,-1.0843,1.1518,0.2535,91,0.274,5,5.3079,1.4105,-11.3116,-0.0018,1.187,0.8931,93,0.405,7,6.4154,4.0503,-15.1397,-0.1758,-0.745,-0.6582,63
0.721,13,8.3776,-4.8577,-0.3935,0.3673,1.7069,0.509,86,0.299,5,7.4438,7.1742,-7.7552,-0.6023,0.168,-0.0966,91,0.326,6,1.9124,5.5652,-14.4829,-0.6765,1.0382,1.0848,93,0.457,8,4.884,1.0744,-12.4899,-0.2327,-0.5965,-1.1133,63
0.773,14,8.9655,-6.3461,-5.241,0.5819,1.7369,0.667,86,0.351,6,9.8668,4.3143,-8.639,-1.1196,-0.5501,-0.7267,91,0.378,7,6.6615,-1.1753,-11.7226,0.1828,0.4164,0.9944,93,0.509,9,4.5166,-3.9418,-9.1985,0.5048,-0.2736,-0.9716,63
0.824,15,7.284,-6.408,-9.1718,0.4167,0.5983,1.0429,86,0.403,7,7.3376,-1.5587,-9.5403,-0.6645,-0.6468,-0.7632,91,0.43,8,10.1276,1.7558,-12.8528,-0.4336,0.5126,0.9196,93,0.561,10,8.4137,-2.9636,-12.2767,0.6811,-0.8397,-1.0905,63
0.876,16,4.3351,-5.7023,-12.3333,0.9785,-0.2327,1.4378,86,0.455,8,6.0674,-4.6524,-8.7387,0.1868,-0.404,0.0881,91,0.481,9,8.0419,4.6952,-13.8916,0.1257,0.8033,0.0841,93,0.612,11,11.258,-3.229,-10.6734,-0.092,-0.47,-0.7528,63
0.928,17,6.5916,-5.6389,-11.9182,1.1837,-0.8391,1.6018,86,0.506,9,5.7468,-4.07,-5.1614,0.4064,-0.5372,0.7297,91,0.533,10,5.5607,4.9914,-18.1436,0.7683,-0.0575,-0.6126,93,0.664,12,10.1868,-3.3752,-10.2448,0.4907,-0.4002,-0.3637,63
0.98,18,9.8628,-2.7941,-9.4831,0.1865,-1.0364,1.8457,86,0.558,10,9.1134,-4.3929,-4.71,-0.2634,-1.0648,1.1979,91,0.585,11,5.6801,5.6125,-15.7875,0.736,-0.7154,-1.0278,93,0.716,13,7.8268,-2.2653,-10.6813,-0.3189,-0.2112,0.1877,63
1.032,19,10.9984,-1.5475,-6.1695,-0.5412,-0.7866,1.9414,86,0.61,11,11.5704,-2.2547,-5.0992,0.4795,-1.4498,1.4574,91,0.637,12,5.3755,2.9111,-12.7541,0.7184,-1.1487,-1.3945,93,0.768,14,5.1811,-5.5627,-8.7459,-0.7273,0.0588,0.7682,63
1.083,20,11.9599,0.3966,-1.9116,-1.0724,-0.1338,1.9245,86,0.662,12,10.5927,-3.2932,-4.1211,0.1813,-1.7308,1.2643,91,0.689,13,4.6371,-0.9646,-10.4087,0.7302,-1.5117,-1.4475,93,0.82,15,4.8423,-3.2278,-9.3766,0.1438,0.6035,1.241,63
1.135,21,13.7857,-1.9452,1.1959,-0.5907,0.3447,1.4974,86,0.714,13,6.2953,-0.411,-4.9661,-0.5477,-1.9203,1.2974,91,0.74,14,8.6501,1.1591,-9.7567,0.9108,-1.126,-0.8708,93,0.871,16,3.5746,1.9748,-11.7688,-0.3197,0.8774,1.5424,63
1.187,22,14.4498,-5.9047,-1.9434,-1.1085,0.8862,0.7201,86,0.765,14,3.943,-2.8023,-6.4867,0.272,-1.3583,0.8066,91,0.792,15,11.579,2.6395,-13.4389,0.065,-0.6245,-0.371,93,0.923,17,7.7262,4.1271,-5.9816,-0.9104,0.1544,1.1058,63
1.238,23,5.0138,-7.565,-9.4149,-0.6254,1.2549,0.463,86,0.817,15,2.1866,-3.9956,-5.5566,-0.0818,-1.0457,0.5519,91,0.844,16,11.1321,1.3054,-11.7512,-0.6278,0.2226,-0.1028,93,0.975,18,10.7562,-0.4437,-8.916,-0.4803,-0.1393,0.9877,63
1.291,24,0.2279,-7.6814,-11.8279,-0.6601,0.2498,-0.0618,86,0.869,16,2.8849,-6.3168,-5.3148,0.5517,-0.5925,0.6609,91,0.896,17,7.9085,-3.0462,-16.5814,-1.1334,0.1505,0.5722,93,1.027,19,12.6407,-3.3347,-6.7358,-0.1012,0.5224,0.605,63
1.342,25,3.5094,-10.8039,-12.5468,0.1926,-0.487,0.4496,86,0.921,17,5.1554,-4.9532,-4.6618,0.9153,-0.109,0.9815,91,0.948,18,7.653,-5.2002,-18.4223,-0.5964,-0.5636,0.9857,93,1.078,20,9.409,1.543,-9.445,0.6008,0.6093,0.2917,63
1.394,26,6.599,-11.0389,-11.8686,0.815,-1.0248,1.0048,86,0.973,18,8.6818,-5.3246,-6.2064,-0.012,0.2367,0.5546,91,0.999,19,9.9425,-6.0777,-15.3266,0.0768,-1.0847,1.3369,93,1.13,21,8.1264,4.7806,-10.5767,1.1132,0.2149,-0.4585,63
1.446,27,9.8731,-10.9395,-9.5714,1.2692,-1.2293,1.41,86,1.024,19,10.3312,-4.2252,-7.5006,-0.6888,0.1328,-0.2816,91,1.051,20,1.9396,0.4813,-8.602,0.0972,-0.8737,1.6379,93,1.182,22,5.8308,4.2713,-10.717,0.2509,-0.0567,-1.0061,63
1.497,28,12.2101,-11.2307,-8.1569,1.6007,-0.7833,1.7057,86,1.076,20,2.0348,-2.8362,-7.3087,-1.1827,-0.2954,-0.8919,91,1.103,21,6.6814,5.7032,-4.4158,-0.3709,-0.2972,1.2984,93,1.234,23,4.6873,0.4999,-10.3929,0.1141,0.3945,-1.4057,63
1.55,29,12.676,-10.2929,-7.8143,1.6237,-0.5575,1.8413,86,1.128,21,1.4814,-5.3278,-8.3487,-1.5119,-0.0705,-0.958,91,1.155,22,10.1421,1.8209,-7.6297,0.4058,0.0131,0.8386,93,1.286,24,8.5383,-4.7892,-4.9775,0.7377,-0.1415,-1.0908,63
1.601,30,10.3243,-6.1705,-10.4328,0.5077,-0.0543,1.2781,86,1.18,22,1.9591,-4.9031,-8.571,-0.4317,0.4592,-0.9567,91,1.207,23,10.6145,3.3039,-7.1843,-0.379,0.2793,0.5808,93,1.337,25,11.3489,-1.6825,-5.3075,-0.1387,-0.0538,-0.8388,63
1.653,31,7.43,-3.6211,-11.7201,-0.2116,0.3585,0.3835,86,1.232,23,2.01,-2.9026,-6.6829,0.1849,0.8409,-1.0614,91,1.259,24,8.6037,1.0728,-8.7187,0.3999,0.3352,-0.2501,93,1.389,26,9.9759,-3.5974,-7.6386,0.5735,0.494,-0.3567,63
1.705,32,5.8263,-2.1907,-11.3737,-0.8185,0.5191,-0.3952,86,1.283,24,3.5049,-2.5782,-5.0743,-0.5451,1.0885,-1.0591,91,1.31,25,7.2938,3.1514,-7.2146,0.1232,0.2355,-0.8049,93,1.441,27,5.1083,-2.2817,-8.727,-0.2585,0.6419,0.4198,63
1.757,33,4.961,-2.0825,-8.4275,-1.034,0.472,-0.9635,86,1.335,25,7.4771,-1.9883,-4.8549,-1.0778,0.792,-0.8039,91,1.362,26,6.2945,0.6161,-7.3007,-0.5853,0.7634,-1.175,93,1.493,28,5.384,-2.9648,-10.7155,-0.8153,0.2295,0.9796,63
1.809,34,4.5719,-2.9526,-4.4081,-0.58,0.4949,-1.3783,86,1.387,26,10.3762,1.827,-4.3661,-0.5628,0.8255,-0.9503,91,1.414,27,5.2044,-3.6369,-9.3903,-0.2899,1.1962,-1.4564,93,1.544,29,3.9306,-1.9472,-9.372,-0.5354,-0.4495,1.3953,63
1.86,35,4.4233,-4.6488,-1.7486,0.1477,0.6918,-1.6811,86,1.439,27,6.5728,-2.9428,-5.0793,0.081,1.0829,-1.38,91,1.466,28,-1.5257,-2.9668,-14.8584,0.4649,0.3727,-1.7044,93,1.596,30,2.5343,0.6294,-9.713,-0.7776,-0.6613,1.6965,63
1.912,36,7.8454,-8.5906,0.5811,0.3053,0.3741,-1.902,86,1.491,28,2.6363,-2.716,-2.3355,-0.3381,0.1177,-0.9509,91,1.518,29,3.5012,-5.8714,-14.249,0.5051,-0.1784,-1.1389,93,1.648,31,1.8207,5.0157,-8.2188,-1.2446,-0.7221,1.5516,63
1.964,37,9.3557,-8.501,-1.3422,-0.4546,-0.348,-1.5399,86,1.542,29,1.6093,-1.8496,0.2026,-0.9268,-0.3037,-0.318,91,1.569,30,7.8211,-3.7908,-15.1533,0.0915,0.23,-1.1407,93,1.7,32,6.4461,0.7484,-7.582,-0.3263,-0.7815,0.8295,63
2.016,38,4.1475,-4.4321,-2.8287,0.0313,-0.3434,-1.3166,86,1.594,30,3.2086,-0.5635,2.5656,-1.3564,0.1558,0.1743,91,1.621,31,8.6395,-1.5441,-11.3408,-0.529,0.8462,-0.469,93,1.752,33,9.8219,1.4446,-10.1385,-0.01,-0.0641,0.5916,63
2.068,39,3.5929,-0.0643,-3.6004,0.6972,0.0516,-1.636,86,1.646,31,6.3107,-0.3647,1.9921,-1.67,0.7928,0.7732,91,1.673,32,8.1975,-6.364,-12.5898,-1.0613,0.7242,0.3354,93,1.804,34,12.2858,1.9476,-8.3908,0.6674,0.6382,0.3881,63
2.119,40,7.679,4.9743,-1.4683,-0.1685,0.4495,-1.8691,86,1.698,32,9.5248,-0.5809,-1.0098,-1.5739,1.2577,1.2297,91,1.725,33,6.0506,-7.7597,-13.4315,-1.4498,-0.0287,0.9225,93,1.855,35,9.2658,4.4866,-12.089,1.071,-0.0449,0.0303,63
2.171,41,8.3929,2.1335,0.2157,-0.549,1.0105,-2.0393,86,1.75,33,9.0508,0.2531,-8.6477,-0.477,1.597,0.9939,91,1.777,34,5.4313,-4.4992,-9.9795,-0.5136,-0.6478,1.2692,93,1.907,36,7.7823,5.1029,-12.5724,0.5012,-0.6996,-0.3638,63
2.223,42,9.6073,-0.6395,0.4459,-0.0621,1.4199,-2.1635,86,1.802,34,7.0485,3.0118,-10.0986,0.3226,0.5457,0.0767,91,1.828,35,5.1124,2.0682,-7.9086,0.3017,-0.4091,0.6841,93,1.959,37,6.1688,2.7826,-10.4281,-0.3113,-1.1774,-0.8407,63
2.275,43,9.4009,-3.6083,-4.9298,-0.5098,1.7187,-2.0742,86,1.854,35,6.7887,0.9286,-11.959,-0.0167,-0.2744,-0.4742,91,1.88,36,8.997,2.7757,-6.1855,0.8967,-0.4226,0.286,93,2.011,38,5.4297,-3.2659,-6.4515,0.1413,-0.4521,-0.8332,63
2.327,44,7.5964,-6.4521,-11.5945,-1.0047,0.5904,-1.1795,86,1.906,36,7.1852,-0.4042,-11.2168,0.6596,-0.8729,-0.6758,91,1.932,37,11.8322,5.2902,-8.2262,0.4389,-0.439,-0.0023,93,2.063,39,9.0801,-5.6144,-2.1008,0.2874,-0.8885,-0.8728,63
2.378,45,7.4702,-4.4568,-14.2125,-0.0589,-0.2384,-0.3927,86,1.957,37,6.2089,0.3076,-6.7776,0.7026,-0.9696,-0.4484,91,1.984,38,10.4279,5.8544,-9.6758,0.4265,-0.156,-0.3525,93,2.114,40,11.7444,0.1217,-2.3625,-0.1395,-0.5369,-0.7556,63
2.43,46,9.9856,-1.9929,-12.7259,0.4595,-0.8433,-0.1878,86,2.009,38,3.5524,-1.042,-3.973,0.6648,-0.692,-0.1815,91,2.036,39,6.667,4.3876,-10.3327,0.9878,-0.0516,-0.9313,93,2.166,41,10.1036,-2.5269,-6.3134,0.3336,-0.5617,-0.3507,63
2.482,47,10.2936,-0.9106,-10.368,-0.342,-1.2848,-0.3177,86,2.061,39,6.494,0.5861,-1.7169,-0.1675,-1.1618,0.4552,91,2.087,40,5.5956,4.911,-10.6058,0.9714,-0.5003,-1.3537,93,2.218,42,10.5806,0.6928,-8.9761,-0.4336,-0.2285,0.2223,63
2.534,48,9.3929,-1.8348,-6.9278,-0.927,-1.5739,-0.7208,86,2.113,40,9.6587,2.7138,-1.8435,0.185,-1.5206,0.9614,91,2.139,41,5.3421,2.0082,-11.7626,0.6238,-1.0322,-1.6582,93,2.27,43,8.7802,-1.2356,-8.3616,0.1493,0.0055,0.8426,63
2.585,49,9.5218,-3.706,-2.4651,-1.1323,-1.4654,-0.6469,86,2.165,41,11.5093,2.5365,-2.0153,0.8067,-1.7768,0.6984,91,2.191,42,5.4517,-3.7336,-9.628,1.1318,-1.4268,-1.8763,93,2.321,44,6.8228,1.3966,-9.7208,0.7836,0.5237,1.2945,63
2.637,50,12.0062,-5.3473,0.792,-0.564,-1.3152,-0.6103,86,2.216,42,2.7299,2.4134,-4.1397,0.5453,-1.5065,1.0182,91,2.243,43,9.2446,-4.0056,-4.4429,0.6426,-1.711,-0.9871,93,2.373,45,5.0338,5.952,-12.3367,-0.1051,0.4283,1.4241,63
2.689,51,13.8195,-5.6379,-0.0832,-1.0213,-0.5709,0.1921,86,2.268,43,4.3516,0.5054,-5.7627,1.0134,-1.6678,1.2541,91,2.295,44,12.0129,-2.9845,-10.1907,-0.0948,-0.9523,-0.4864,93,2.425,46,4.5118,6.58,-14.8625,-0.7538,0.4823,0.8595,63
2.741,52,5.6401,-4.6671,-5.0185,-0.071,-0.3965,0.4672,86,2.32,44,2.837,0.1975,-6.1224,1.3362,-1.2801,0.6716,91,2.346,45,12.3188,-5.3045,-10.172,-0.7444,-0.0167,-0.2602,93,2.477,47,8.4102,2.1144,-15.1895,-0.1154,0.1676,0.9658,63
2.792,53,1.6172,-2.9638,-8.6367,0.6226,-0.9183,0.1457,86,2.372,45,2.8765,-0.9914,-5.4637,0.5797,-1.174,0.7869,91,2.398,46,6.8951,-8.9008,-15.4288,-1.2185,0.4017,0.4864,93,2.529,48,11.2522,-2.4076,-11.4415,-0.1746,0.5687,0.554,63
2.844,54,1.9271,-2.6213,-7.8598,0.6164,-0.8706,-0.0253,86,2.424,46,4.2517,-2.7915,-5.834,1.0403,-0.9381,1.2397,91,2.45,47,7.4277,-9.697,-16.7477,-1.4903,-0.3802,1.0002,93,2.58,49,8.8733,3.535,-12.6585,0.5473,0.5851,-0.1773,63
2.896,55,4.0191,-3.0432,-5.2039,0.4871,-0.3236,0.6222,86,2.475,47,8.0222,-0.7675,-6.3478,0.9848,-1.0167,1.3412,91,2.502,48,7.7105,-6.9356,-14.021,-0.4111,-0.9509,1.1147,93,2.632,50,7.3363,1.6269,-13.1632,-0.0431,1.112,-0.8008,63
2.948,56,3.8028,-3.4694,-2.0424,0.9705,0.4332,1.1308,86,2.527,48,10.774,-2.0875,-7.8845,0.3632,-0.2453,0.3916,91,2.554,49,7.3527,0.29,-7.6491,-0.4675,-0.2849,1.4913,93,2.684,51,5.3907,-2.0238,-15.6907,0.6433,1.2246,-1.2559,63
3.0,57,7.8323,-4.5891,-1.1126,1.3827,0.8012,1.3581,86,2.579,49,4.4093,-1.996,-9.1083,0.7278,0.5,0.01,91,2.605,50,3.6268,3.9827,-13.5875,-1.0164,-0.0879,1.7586,93,2.735,52,4.4477,-3.025,-14.5758,1.0838,0.6769,-1.4802,63
3.051,58,10.7731,-5.6946,-4.1744,0.3856,0.5554,0.9078,86,2.631,50,2.9478,-1.0003,-9.2607,1.2029,0.8228,-0.1225,91,2.657,51,7.9127,1.333,-13.3762,-0.4966,-0.0572,1.4354,93,2.787,53,4.2741,-4.962,-18.6192,0.1139,0.0653,-1.231,63
3.103,59,8.5473,-3.3219,-7.9883,0.9558,-0.0791,1.012,86,2.683,51,2.9912,-1.2321,-8.3728,0.6962,0.7183,-0.3242,91,2.709,52,11.0408,3.2185,-11.9017,-0.6052,0.4013,0.7759,93,2.839,54,8.2367,-1.845,-11.7275,-0.5937,-0.3516,-0.9793,63
3.155,60,3.2057,-3.1157,-9.9258,1.3719,-0.6491,0.7905,86,2.734,52,2.1539,-3.3487,-7.9488,0.5066,1.1942,-0.2846,91,2.761,53,10.1994,0.3104,-14.5559,0.2348,0.3705,-0.0862,93,2.891,55,11.1288,-3.9096,-11.9828,-0.0557,-0.0593,-0.644,63
3.207,61,1.8959,-2.1365,-9.0529,1.0263,-1.0762,0.1718,86,2.786,53,1.6811,-4.3293,-6.9212,0.7317,1.4409,-0.0143,91,2.813,54,8.6428,5.5784,-14.2387,0.8479,-0.169,-0.7369,93,2.943,56,10.8529,-5.2092,-12.7163,-0.4825,0.2369,-0.1477,63
3.259,62,5.2726,-0.4916,-8.0709,0.6226,-0.9617,-0.4642,86,2.838,54,4.6314,-3.9372,-5.594,0.309,1.2788,0.3667,91,2.864,55,7.473,3.9937,-10.6615,-0.0564,0.5061,-1.1509,93,2.994,57,11.3433,0.9127,-16.0135,-0.5697,-0.129,0.2428,63
3.31,63,5.0887,1.5952,-7.6914,-0.223,-0.2685,-0.2654,86,2.89,55,8.2993,-1.8188,-4.9724,-0.0684,0.7577,0.2581,91,2.916,56,6.7451,2.0777,-12.6368,-0.22,1.0477,-1.4893,93,3.046,58,9.4217,-1.2652,-14.9206,-0.264,-0.7608,0.8576,63
3.362,64,4.1488,1.3122,-4.018,-0.7467,0.4865,-0.0898,86,2.942,56,10.9763,-1.444,-3.4542,-0.7299,0.5468,-0.4628,91,2.968,57,3.4754,-1.1842,-16.0544,0.516,1.0007,-1.7337,93,3.098,59,5.8174,-0.8546,-12.8558,-0.8697,-0.7332,1.3062,63
3.414,65,7.7223,-1.8,-1.4746,-1.2224,1.0368,-0.4449,86,2.993,57,3.5377,-3.9067,-1.9979,-0.21,1.0782,-0.9171,91,3.02,58,7.1555,-3.7827,-9.1331,0.7786,0.578,-1.2237,93,3.15,60,6.0613,4.1902,-13.635,-1.3115,-0.9333,1.6337,63
3.466,66,10.6928,-6.5115,-2.8248,-1.2034,0.9515,-0.7436,86,3.045,58,1.0021,-1.3919,1.1897,-0.4411,0.7998,-0.6806,91,3.072,59,9.1427,-6.3391,-11.9396,0.4356,-0.0144,-0.9375,93,3.202,61,4.463,1.1057,-11.4981,-1.035,-1.3232,0.697,63
3.518,67,11.5761,-1.5524,-1.4483,-0.2039,0.0965,-0.4576,86,3.097,59,3.8325,-2.2901,2.9211,-0.8227,0.8357,-0.0981,91,3.123,60,11.8475,-0.9996,-12.2833,0.6008,0.4301,-0.9756,93,3.253,62,8.3746,-1.2995,-8.6974,-0.2659,-1.4364,0.5553,63
3.569,68,6.6212,2.0086,-3.7815,0.5255,-0.5343,-1.0091,86,3.149,60,5.1473,-1.1867,1.1875,0.0713,1.289,0.2099,91,3.175,61,7.7755,-5.9666,-10.7404,-0.2367,0.9923,-0.2529,93,3.305,63,11.0984,-6.2452,-11.3209,-0.8711,-1.0962,0.5009,63
3.621,69,9.0834,2.0736,-3.4562,-0.2938,-0.6724,-1.4116,86,3.201,61,8.6758,0.8246,-1.8928,-0.628,1.6198,0.3104,91,3.227,62,5.158,-9.5004,-15.8437,-0.848,0.0571,0.4931,93,3.357,64,13.2174,-3.4671,-10.6399,0.0389,-0.1151,0.3431,63
3.673,70,8.1212,-0.0512,-3.2405,-0.8918,0.1878,-1.6442,86,3.253,62,10.4433,-3.876,-9.3213,0.2134,1.8613,-0.4595,91,3.279,63,5.2719,-8.023,-12.0435,0.0576,-0.5318,1.0376,93,3.409,65,9.1703,0.693,-14.5047,0.7031,-0.091,-0.1438,63
3.725,71,7.2441,-2.2083,-3.1924,-0.8344,0.8195,-1.0475,86,3.304,63,7.7427,-1.3322,-10.0889,-0.0021,0.9883,-1.0217,91,3.331,64,6.3072,-3.236,-10.1377,0.4413,0.2893,1.2643,93,3.461,66,7.0998,3.1352,-15.7672,1.1575,-0.7332,-0.508,63
3.776,72,9.6327,-2.6692,-4.2947,-0.0566,1.2805,-0.4504,86,3.356,64,8.6322,-1.0362,-10.9551,-0.0158,0.0486,-1.2909,91,3.382,65,4.3667,2.9509,-15.4039,-0.3531,0.6805,1.5957,93,3.512,67,6.6363,1.9334,-13.9052,0.1677,-1.2019,-0.91,63
3.828,73,8.9654,-2.63,-8.6947,-0.243,1.0555,-0.0203,86,3.408,65,8.6872,-1.3946,-9.0104,0.6602,-0.5214,-1.4144,91,3.434,66,8.4528,-3.0834,-8.7752,0.4188,0.9448,1.7505,93,3.564,68,7.1147,-3.8857,-10.4337,-0.086,-0.7756,-1.2275,63
3.88,74,8.8111,-2.8137,-11.8396,0.497,0.101,0.4747,86,3.46,66,7.7552,-0.952,-4.3689,0.7098,-0.8819,-1.1618,91,3.486,67,11.435,-3.2413,-9.0618,-0.3696,0.2303,1.2747,93,3.616,69,10.3099,-8.1327,-12.3476,0.6119,-0.919,-1.0015,63
3.932,75,7.1501,0.5771,-13.1163,1.0229,-0.5956,0.9518,86,3.512,67,5.2837,-2.9181,-2.014,0.6138,-0.4895,-0.7851,91,3.538,68,9.7051,0.8104,-9.1366,0.4068,-0.2589,0.4119,93,3.668,70,12.6419,-4.8721,-9.4524,-0.2305,-0.718,-0.5068,63
3.984,76,8.6503,2.3653,-12.4137,0.0692,-1.1041,0.8212,86,3.563,68,3.0974,-2.1431,-0.3441,0.4368,0.0232,-0.3102,91,3.59,69,7.1395,2.2679,-9.8008,0.9734,-0.5868,-0.3734,93,3.719,71,11.3789,-3.7619,-10.0249,-0.1797,-0.6724,0.0963,63
4.035,77,6.4088,0.5444,-11.5533,-0.6269,-1.2209,0.0694,86,3.615,69,2.8694,0.0001,0.2017,-0.1967,-0.5751,0.3927,91,3.641,70,5.9789,3.3389,-8.9414,0.4171,-0.644,-0.9465,93,3.771,72,8.4046,-7.7229,-9.1037,-0.6254,-0.081,0.7506,63
4.087,78,4.8232,-0.6538,-6.9942,-0.7303,-1.5525,-0.6245,86,3.667,70,7.0133,1.9343,-0.2568,-0.7558,-1.0924,0.9192,91,3.693,71,5.9959,0.0689,-11.6607,0.4153,-0.7871,-1.3648,93,3.823,73,6.7685,-5.2469,-8.9295,0.2182,0.5747,1.1286,63
4.139,79,6.9929,-2.2168,-4.186,-0.2608,-1.5056,-1.1309,86,3.719,71,10.0377,3.6355,2.1685,-0.1834,-1.4699,1.0782,91,3.745,72,4.8495,-4.0192,-12.6251,0.9796,-1.2478,-1.6619,93,3.875,74,5.3213,0.4241,-11.5244,-0.5178,0.9153,1.2171,63
4.191,80,10.1605,-1.9604,-2.4575,-0.5156,-0.9626,-0.6038,86,3.771,72,6.1275,-0.4388,0.6509,0.2243,-1.5944,1.0506,91,3.797,73,8.8051,2.4185,-15.8895,0.0418,-0.8056,-0.62,93,3.927,75,3.8938,2.4816,-16.3922,-1.055,0.3226,1.1452,63
4.243,81,12.4202,-3.2363,-2.7719,-0.6206,-0.6061,0.236,86,3.822,73,4.637,0.2896,0.1872,0.166,-1.3653,1.0634,91,3.849,74,11.6921,2.0238,-17.7405,0.1318,0.0181,-0.1463,93,3.978,76,3.2305,4.5139,-19.8065,-0.981,-0.1143,0.8093,63
4.294,82,5.9953,-3.8725,-4.8683,-0.2711,-0.0419,0.8489,86,3.874,74,3.8707,-0.8281,-1.2055,0.0715,-0.7866,0.9654,91,3.9,75,12.2125,-0.1259,-14.6848,-0.5791,0.6916,-0.0814,93,4.03,77,7.4751,2.2029,-18.6498,-0.4671,0.1623,0.5503,63
4.346,83,3.3491,-4.5265,-6.2449,-0.5063,0.0611,1.2962,86,3.926,75,3.2142,-1.1237,-2.0185,0.6007,0.105,0.844,91,3.952,76,7.6066,-2.255,-18.7225,-1.0978,0.9202,0.5995,93,4.082,78,10.1059,1.306,-13.4602,0.3127,0.7349,0.3234,63
4.398,84,2.7169,-5.0293,-7.3488,-0.2467,-0.0146,1.6227,86,3.978,76,4.655,-0.8062,-2.5233,0.4181,0.7557,0.7166,91,4.004,77,7.5599,-4.7757,-19.1428,-1.4765,-0.0018,0.9391,93,4.134,79,6.0288,2.9957,-17.1368,0.9029,0.8339,-0.128,63
4.45,85,3.548,-5.8892,-7.8489,0.3901,-0.0636,1.8609,86,4.03,77,8.3165,-1.1016,-5.8439,0.4288,0.6017,0.4798,91,4.056,78,8.677,-5.6813,-16.5345,-0.5397,-0.6747,1.1234,93,4.185,80,5.7341,5.7039,-16.1765,1.3336,0.2059,-0.7648,63
4.501,86,4.9275,-6.6342,-7.4785,0.9581,0.0455,2.0348,86,4.081,78,10.9888,1.5861,-5.6585,0.3941,-0.192,0.0997,91,4.108,79,5.913,-0.8848,-10.5721,0.2826,-0.8122,0.957,93,4.237,81,3.3485,2.594,-13.5859,0.675,0.0584,-1.2296,63
4.553,87,7.8737,-7.2876,-8.3085,1.3736,0.0153,2.1617,86,4.133,79,4.3906,-1.1444,-7.7771,-0.3924,0.3957,-0.6136,91,4.16,80,5.2963,2.1836,-14.3074,0.3789,-0.4456,1.28,93,4.289,82,2.9406,0.5253,-12.9695,0.1362,0.2966,-1.5688,63
4.605,88,10.8033,-4.5014,-10.3577,1.6769,-0.2663,1.708,86,4.185,80,5.1905,-2.3611,-6.9617,0.3853,-0.3839,-0.5419,91,4.212,81,9.1312,6.9456,-16.9081,-0.3987,-0.9211,1.3024,93,4.341,83,2.9821,-0.1985,-17.4469,0.7741,0.673,-1.5397,63
4.657,89,7.9991,-1.4144,-10.9757,1.8983,-0.8637,1.3143,86,4.237,81,3.5282,0.7724,-5.9502,0.9529,-0.5711,-0.7155,91,4.263,82,11.9301,10.4211,-12.2165,0.1734,-0.4736,0.6897,93,4.393,84,7.2938,5.1473,-10.1258,-0.1121,0.014,-1.2387,63
4.709,90,6.7635,1.1382,-11.241,2.0598,-1.2997,0.7557,86,4.289,82,3.7581,-0.6822,-5.772,0.0344,-0.3855,-1.0504,91,4.315,83,10.5151,5.4488,-10.9517,0.7669,-0.1745,-0.1503,93,4.444,85,8.8727,2.6952,-12.1401,0.5909,0.1671,-0.8215,63
4.76,91,6.2596,1.678,-8.7347,0.826,-1.3823,0.4609,86,4.34,83,4.1094,-2.638,-4.58,-0.6549,-0.2824,-0.9793,91,4.367,84,7.5783,6.7573,-8.3748,1.0267,0.2789,-0.7837,93,4.496,86,8.8734,0.5166,-10.2324,-0.2458,0.5257,-0.1533,63
4.812,92,6.655,-0.4262,-6.3164,0.1467,-1.0223,0.3596,86,4.392,84,7.9183,-2.346,-3.9863,-1.158,-0.1747,-0.3137,91,4.419,85,6.2485,3.5735,-6.5394,0.0741,0.8819,-1.1472,93,4.548,87,5.8661,-0.8243,-12.7092,-0.8565,0.1607,0.284,63
4.864,93,4.7447,0.6978,-2.5407,0.1916,-0.1837,0.7656,86,4.444,85,10.6982,0.4644,-2.5063,-0.5233,-0.0888,-0.1066,91,4.471,86,5.0658,-0.1062,-10.5947,0.4625,1.322,-1.2836,93,4.6,88,5.1761,-4.4003,-15.1185,-1.3022,-0.5379,0.7614,63
4.916,94,3.7498,-0.5116,0.4799,0.2888,0.5484,1.2343,86,4.496,86,12.6899,1.7639,-1.489,0.1999,0.2727,-0.5149,91,4.522,87,2.8048,0.1234,-11.6784,1.0141,1.1087,-1.4068,93,4.652,89,3.3249,-2.2041,-12.5833,-0.2757,-1.0139,1.236,63
4.967,95,7.7935,-3.2375,1.9882,0.2165,1.0827,1.0088,86,4.548,87,5.8786,-0.1544,-1.4773,0.2436,0.8781,-0.6518,91,4.574,88,7.3128,-1.3272,-6.4507,1.2987,0.572,-1.0475,93,4.704,90,3.6831,1.9465,-12.3733,-0.8783,-1.1336,1.5825,63
5.019,96,10.7449,-7.3153,1.222,-0.5194,0.9635,0.563,86,4.6,88,2.4042,-0.579,-2.4697,0.5202,0.9261,-0.3487,91,4.626,89,10.6029,-0.1049,-10.8594,0.9323,-0.1378,-0.9019,93,4.755,91,2.4322,-3.8761,-7.6202,-1.3181,-1.4385,0.7442,63
5.071,97,7.719,-5.8523,0.2193,0.2135,0.2048,0.5589,86,4.651,89,0.9846,0.5329,-2.7188,0.305,0.7684,-0.3406,91,4.677,90,13.0042,2.0268,-10.3219,1.1011,0.3651,-1.0172,93,4.807,92,6.8924,-8.1258,-10.6823,-0.2873,-0.9748,0.397,63
5.123,98,3.7547,-2.5145,-3.2558,0.7628,-0.0674,0.3796,86,4.703,90,1.761,0.9313,-2.0922,-0.4323,0.7634,-0.464,91,4.729,91,10.0365,-1.305,-13.5901,0.1284,0.6745,-0.5742,93,4.859,93,8.5143,-9.8433,-12.0606,-0.5182,-0.0265,-0.0362,63
5.175,99,3.0124,0.8858,-4.2398,0.656,0.098,-0.3417,86,4.755,91,2.3888,0.6859,-1.4447,-0.9955,1.157,-0.7623,91,4.781,92,11.3114,-6.1895,-12.9603,-0.5815,0.1672,0.2586,93,4.911,94,7.3057,-1.8939,-15.5639,0.2965,0.6657,-0.1417,63
5.226,100,3.6216,-0.5818,-3.2902,-0.1986,0.3618,-0.5391,86,4.807,92,5.7687,1.8907,-0.5015,-1.4066,0.9021,-0.3912,91,4.833,93,9.4612,-7.2109,-12.6231,-1.0994,-0.4962,0.8665,93,4.962,95,5.7006,1.4187,-15.8278,0.891,0.3249,-0.6851,63
5.278,101,2.8061,-2.4689,-2.0361,0.5258,0.9136,-0.1938,86,4.859,93,9.1293,2.7661,-2.274,-0.5722,0.4481,-0.1174,91,4.885,94,8.2983,-3.5253,-10.3515,-0.8643,-0.7072,1.3101,93,5.014,96,5.5806,5.4008,-15.4986,1.325,-0.4296,-0.8664,63
5.33,102,2.7341,-3.3878,-0.4017,1.0581,1.3487,0.199,86,4.91,94,8.1493,2.7401,-4.4511,-0.6981,-0.2397,-0.7525,91,4.936,95,7.3622,0.1312,-11.6263,-0.9166,-0.388,1.328,93,5.066,97,4.3799,2.807,-12.2238,0.29,-0.8844,-1.2625,63
5.382,103,2.9366,-4.8213,-1.305,0.3099,1.1952,0.2021,86,4.962,95,6.809,-0.6652,-7.0162,-0.6195,-0.8476,-0.5312,91,4.988,96,10.639,5.4477,-12.9635,0.0075,-0.521,0.3635,93,5.118,98,4.1543,-2.9281,-16.5074,0.2765,-0.1488,-1.3867,63
5.434,104,4.059,-7.821,-3.7677,0.1148,0.203,-0.1528,86,5.014,96,5.4076,-1.0974,-7.4728,0.2196,-0.5125,-0.02,91,5.04,97,13.0305,4.723,-13.1212,-0.3215,-0.3038,0.3236,93,5.17,99,8.1493,-7.4339,-19.1756,0.8765,-0.2176,-1.2659,63
5.485,105,0.7186,-5.4384,-3.9662,0.7582,-0.5212,0.0424,86,5.066,97,5.0725,-0.838,-5.1443,0.3191,-0.3725,0.2131,91,5.092,98,11.8876,6.1615,-13.4528,0.158,0.0412,-0.3303,93,5.221,100,10.5184,-0.4426,-17.1497,-0.0374,0.1974,-0.8883,63
5.537,106,0.2748,-1.8947,-3.6272,1.2277,-0.7959,0.1463,86,5.118,98,3.4825,-1.7373,-4.1537,-0.4471,-0.2141,0.4509,91,5.144,99,9.9569,7.1805,-11.6006,0.7918,0.1509,-0.9151,93,5.273,101,10.4291,-3.9619,-14.8725,0.6474,0.4108,-0.4492,63
5.589,107,1.6834,-0.9376,-1.834,0.3202,-0.2808,-0.0959,86,5.17,99,4.4499,-1.9488,-2.839,-1.0061,-0.2629,0.9028,91,5.195,100,8.7027,7.259,-11.9875,0.9411,-0.4201,-1.3408,93,5.325,102,10.0065,-3.719,-13.1541,-0.1972,0.2028,0.02,63
5.64,108,1.628,-0.6773,-0.8141,-0.2279,0.4774,-0.1592,86,5.222,100,8.1668,-0.3364,-2.7707,-1.1526,-0.8645,1.2604,91,5.247,101,7.3162,5.8181,-10.6616,0.0423,-0.7378,-1.6252,93,5.377,103,8.0118,-8.0111,-11.8315,-0.7163,0.1829,0.6531,63
5.692,109,2.0978,-1.0175,0.0759,0.1032,1.0309,0.1642,86,5.273,101,10.8796,0.054,-1.9861,-0.1695,-1.3037,0.9094,91,5.299,102,7.332,3.0889,-10.4657,-0.2231,-1.0117,-1.8602,93,5.428,104,6.6758,-4.89,-10.4582,0.1519,0.7992,1.1335,63
5.744,110,5.0631,-2.1719,0.9335,0.5346,1.4348,0.5993,86,5.325,102,5.8258,-2.3079,-2.6401,0.5271,-0.6551,0.5844,91,5.351,103,6.2976,-2.9826,-11.7712,0.5137,-1.3476,-1.7813,93,5.48,105,5.8836,-2.5879,-13.5568,-0.0983,1.0138,1.4656,63
5.796,111,6.6183,-2.6879,1.054,-0.2872,1.2758,0.8515,86,5.377,103,6.7488,-2.2653,-2.4766,1.0485,-1.1508,0.9638,91,5.403,104,9.862,3.1751,-13.258,-0.2305,-0.7839,-0.9947,93,5.532,106,3.7024,2.366,-15.6081,-0.7488,0.3595,1.634,63
5.848,112,5.6079,-3.5611,0.0909,-0.887,0.2618,0.6632,86,5.429,104,4.4947,-0.9262,-2.4996,1.1574,-1.1265,0.8715,91,5.454,105,12.4635,0.923,-14.485,-0.8343,0.1063,-0.6302,93,5.584,107,7.8195,-1.002,-14.3016,-0.6835,-0.301,0.9097,63
5.899,113,0.2331,-2.421,-2.3249,-0.1294,-0.4549,0.4249,86,5.481,105,4.3844,-0.9553,-2.3741,0.6436,-0.6185,0.6236,91,5.506,106,10.6418,-2.7065,-18.5554,-1.2841,0.5792,-0.0368,93,5.636,108,10.8243,-0.6168,-12.8362,-0.1799,-0.0061,0.6717,63
5.951,114,-2.4111,-1.3248,-2.0117,0.5799,-0.7581,0.2472,86,5.532,106,5.6613,-2.5059,-2.537,0.8475,0.2021,0.3216,91,5.558,107,6.9968,-5.6089,-19.5108,-1.6124,-0.043,0.5726,93,5.687,109,9.4513,1.9523,-11.3049,0.0334,0.3697,0.5614,63
6.003,115,-2.5685,-3.2591,-0.9853,-0.2499,-0.5449,0.3581,86,5.584,107,9.0509,-1.4517,-4.0215,0.7273,0.6914,-0.1607,91,5.61,108,8.0122,-4.9772,-20.3854,-0.505,-0.7048,1.0079,93,5.739,110,9.1118,6.717,-9.5227,0.4727,0.4449,-0.0603,63
6.055,116,-1.7441,-5.7791,1.1415,-0.153,-0.1406,0.9323,86,5.636,108,11.5248,-0.1552,-5.5895,1.2026,0.8577,-0.8036,91,5.662,109,8.8589,-1.2365,-14.7595,0.3079,-1.1878,1.3391,93,5.791,111,9.1766,7.5737,-9.0369,1.0197,0.2365,-0.7154,63
6.107,117,0.4036,-8.1757,2.3758,0.5627,0.1791,1.3571,86,5.688,109,7.6675,0.5594,-3.8249,0.1977,0.685,-1.2729,91,5.713,110,7.2926,0.7602,-13.2445,-0.4505,-0.7038,1.5336,93,5.843,112,5.591,4.4123,-10.0145,0.6478,0.3195,-1.1936,63
6.158,118,5.3514,-7.6028,3.0708,1.0135,0.4025,1.637,86,5.74,110,3.4341,-3.8843,-3.8693,-0.3909,-0.1727,-1.4096,91,5.765,111,10.5882,5.9067,-16.8312,-1.004,-0.5816,1.2447,93,5.895,113,3.6401,-1.07,-11.371,-0.0015,0.6659,-1.5425,63
6.21,119,6.2917,-6.7164,1.1575,0.0624,0.0996,1.8371,86,5.791,111,2.1693,-3.3263,-4.2733,0.3167,-0.1739,-0.5547,91,5.817,112,12.9935,5.4511,-15.904,-0.558,-0.6388,0.8498,93,5.946,114,7.774,-6.0777,-7.8865,0.049,0.907,-1.2767,63
6.262,120,7.2314,-2.3726,-1.4543,0.7199,-0.3869,1.9759,86,5.843,112,3.242,-1.963,-4.3776,0.6841,0.3629,-0.3039,91,5.869,113,11.9782,3.8351,-14.2939,-1.0825,-0.4814,0.627,93,5.998,115,10.7911,-9.7326,-10.2054,-0.6413,0.2833,-0.8732,63
6.314,121,6.0893,-0.8768,-4.077,0.7125,-0.835,1.4147,86,5.895,113,3.0393,-1.5446,-4.4946,0.1617,0.9439,-0.4374,91,5.921,114,8.9157,3.4825,-15.0963,-0.1135,-0.215,-0.1838,93,6.05,116,11.699,-5.9991,-8.8456,-0.3207,0.6482,-0.2612,63
6.366,122,4.8903,0.1356,-4.9381,-0.0827,-0.9632,0.4168,86,5.947,114,4.5957,-1.2606,-4.041,-0.562,1.368,-0.5381,91,5.972,115,7.5711,6.9404,-13.7398,0.5937,-0.0372,-0.8081,93,6.102,117,7.8632,-7.012,-11.1828,-0.9111,0.6685,0.3706,63
6.417,123,3.7622,-0.4223,-4.3821,-0.1746,-0.6566,-0.2827,86,5.999,115,7.245,0.3829,-2.5828,-0.8275,1.6148,-0.3151,91,6.024,116,6.1428,7.4809,-12.5347,-0.1898,0.1046,-1.1898,93,6.154,118,6.1151,-7.9768,-11.9254,-1.2833,0.34,0.7561,63
6.469,124,2.5031,-1.5242,-2.1489,0.1339,-0.2678,-0.8278,86,6.051,116,9.2262,3.141,0.4121,-0.3048,1.0828,-0.1861,91,6.076,117,5.6697,5.0844,-12.6108,-0.8138,0.3203,-1.4649,93,6.206,119,5.197,-6.6979,-10.8328,-0.432,-0.1424,1.2322,63
6.521,125,1.7057,-2.5647,0.8583,0.4216,0.2887,-1.0911,86,6.102,117,5.8491,2.4937,1.0195,-0.2456,0.5645,-0.7493,91,6.128,118,4.1676,-1.5262,-13.5706,0.0081,0.1249,-1.6642,93,6.257,120,4.6963,-5.4144,-11.0434,0.1858,-0.5943,1.5796,63
6.573,126,1.2589,-4.4253,3.2175,0.0947,0.753,-1.4706,86,6.154,118,0.6743,0.017,1.2389,-0.287,-0.1604,-0.8042,91,6.18,119,2.4467,-4.9635,-17.9093,0.6824,0.3193,-1.6525,93,6.309,121,2.5332,0.7539,-8.9525,-0.4654,-0.7854,1.8332,63
6.624,127,2.3315,-7.6647,4.3748,-0.6083,0.2612,-1.5955,86,6.206,119,0.4892,-0.3326,1.8613,-0.6017,0.2613,-0.549,91,6.231,120,7.0515,-2.0351,-19.8793,0.0711,0.3838,-1.3753,93,6.361,122,6.9661,5.8423,-6.4133,-0.58,-0.7595,1.1911,63
6.676,128,0.5552,-5.1602,4.4414,0.2304,-0.014,-0.9272,86,6.258,120,-0.2273,-0.3041,1.1799,-0.015,0.8698,-0.7116,91,6.283,121,10.4122,0.916,-15.7117,0.1152,0.9585,-0.9393,93,6.413,123,10.2015,0.8887,-9.8533,0.0982,-0.6752,0.915,63
6.728,129,2.6864,-2.3901,5.8327,0.8425,0.4621,-0.7969,86,6.31,121,-0.3312,0.3318,0.0088,-0.4102,1.3139,-1.0128,91,6.335,122,6.4199,-2.0457,-18.673,-0.5912,1.1198,-0.0839,93,6.465,124,11.1203,-0.7847,-8.162,0.6863,0.1922,0.6546,63
6.78,130,4.4844,-2.6486,4.5742,0.4466,1.0197,-0.5311,86,6.361,122,0.0891,1.4273,-1.1958,-0.9794,1.638,-1.2171,91,6.387,123,3.9782,-6.727,-19.4097,-1.1067,0.2298,0.6165,93,6.516,125,5.9957,4.7194,-13.9382,1.1756,0.3591,0.1715,63
6.832,131,4.2581,-4.3458,2.4334,0.9742,1.4266,-0.3232,86,6.413,123,3.8458,1.0914,-3.1292,-0.9331,1.2828,-0.6632,91,6.439,124,4.975,-7.3812,-17.4486,-0.1469,-0.5057,1.1277,93,6.568,126,6.9015,4.6703,-16.4019,1.4096,-0.4047,-0.3048,63
6.883,132,3.7235,-5.5001,-0.8648,1.3854,1.5315,-0.6292,86,6.465,124,2.3952,1.414,-5.0907,-0.0093,0.4551,-0.3437,91,6.49,125,4.3474,-3.4434,-12.9709,0.5693,-0.3424,1.5008,93,6.62,127,8.7567,3.9605,-14.9669,0.3517,-0.9622,-0.5993,63
6.935,133,2.9675,-5.1337,-3.8151,1.4442,1.6971,-0.492,86,6.517,125,3.8295,2.2391,-5.464,-0.2488,-0.3405,-0.1026,91,6.542,126,8.4387,2.8387,-14.3787,0.1135,-0.6487,1.1206,93,6.672,128,6.8461,0.2717,-10.4898,-0.4204,-0.5614,-0.7521,63
6.987,134,-0.666,-0.403,-9.6303,0.3791,1.9211,0.3174,86,6.569,126,6.8135,0.791,-5.7943,-0.32,-0.9212,-0.4887,91,6.594,127,11.4247,-2.2465,-11.5331,0.7594,-0.9966,0.6482,93,6.724,129,8.7727,-4.7412,-15.6371,-0.2753,-0.0838,-1.22,63
7.039,135,-0.2793,-0.2859,-11.1992,-0.4007,0.9753,0.527,86,6.62,127,6.9377,-0.6942,-3.9569,0.4382,-1.1542,-0.6978,91,6.646,128,11.4599,-0.9842,-14.3572,-0.121,-0.5518,0.4198,93,6.775,130,11.52,-8.7571,-15.912,0.4737,-0.1697,-1.0422,63
7.09,136,-0.3098,-0.3569,-12.2893,-0.9698,0.0425,-0.2904,86,6.672,128,5.8956,-2.5637,-1.9588,0.1922,-0.8962,-0.2261,91,6.698,129,11.9226,1.8791,-12.6098,0.5882,-0.2454,-0.3676,93,6.827,131,13.5251,-11.6881,-14.8731,-0.3313,0.1091,-0.405,63
7.142,137,1.1609,-1.4351,-10.8162,-0.6667,-0.6383,-0.8871,86,6.724,129,4.5274,-3.8199,0.2117,-0.3648,-0.3276,0.4907,91,6.749,130,10.3189,3.0115,-10.3873,1.1058,-0.3475,-0.9423,93,6.879,132,12.8394,-8.9574,-11.7513,0.3845,-0.1066,0.2074,63
7.194,138,5.3458,-1.4387,-7.9802,-1.1113,-1.1352,-1.3226,86,6.776,130,4.4703,-3.3259,2.8007,-0.8712,0.0652,1.0235,91,6.801,131,9.2719,4.3864,-9.6875,0.8499,-0.6383,-1.3618,93,6.931,133,11.2803,-9.5071,-10.3743,0.3313,-0.169,0.6925,63
7.246,139,6.897,-3.3264,-4.846,-1.4884,-1.0141,-1.6404,86,6.828,131,5.2795,0.9631,4.2053,-0.6076,-0.5584,1.4124,91,6.853,132,8.1251,4.1512,-8.5955,0.0165,-0.7876,-1.6679,93,6.983,134,7.8962,-8.6812,-8.6995,0.9165,0.56,1.1536,63
7.298,140,6.6749,-5.104,-1.9637,-1.4413,-0.3609,-1.5521,86,6.879,132,7.0956,1.8,-1.9085,-0.082,-1.0802,0.5361,91,6.905,133,4.8447,-1.4555,-7.0574,0.2207,-0.6483,-1.8913,93,7.034,135,8.166,-3.2569,-10.4585,0.7334,1.0936,1.2045,63
7.349,141,9.9284,-8.9228,0.9042,-1.6691,-0.0966,-1.1952,86,6.931,133,10.0978,4.0689,-0.6841,0.5719,-1.4611,0.4206,91,6.957,134,8.8016,-6.2993,-7.6241,0.7924,-0.3675,-1.7802,93,7.086,136,7.1299,-1.0355,-14.3694,-0.1418,1.4005,1.4466,63
7.401,142,12.303,-11.71,1.5083,-1.866,-0.0232,-0.906,86,6.983,134,8.3455,1.6503,-6.2907,1.0891,-1.739,0.7809,91,7.008,135,11.6896,-7.2042,-11.8841,0.0603,-0.4755,-0.8551,93,7.138,137,10.321,4.5364,-7.9537,-0.3412,0.3553,1.4717,63
7.453,143,11.1043,-10.2943,-1.0311,-1.2503,-0.3301,-0.3796,86,7.035,135,5.5269,1.8187,-8.309,1.4666,-0.9235,0.9529,91,7.06,136,13.0069,-3.5258,-13.0963,-0.3344,0.3313,-0.3775,93,7.19,138,12.65,2.6556,-9.5914,-0.3323,0.1234,1.2715,63
7.505,144,4.2866,-7.423,-3.1459,-0.3054,-0.464,0.1134,86,7.087,136,5.0699,3.5442,-8.1964,1.7421,-0.1698,1.3605,91,7.112,137,10.6794,-4.8708,-15.155,-0.9193,0.9202,0.2738,93,7.242,139,14.3498,-1.4933,-9.4588,-0.0349,0.7574,0.7972,63
7.557,145,1.4949,-5.2442,-3.7882,0.0377,-0.5515,0.6721,86,7.138,137,4.9136,3.7547,-7.332,0.6453,-0.2709,1.6584,91,7.164,138,8.0634,-8.792,-15.1887,-1.3462,0.6515,0.8776,93,7.293,140,11.0862,3.3202,-12.0542,0.6492,1.0125,0.177,63
7.608,146,0.6486,-5.5723,-3.0237,-0.1026,-0.3975,1.1672,86,7.19,138,6.5359,4.2902,-5.5984,-0.209,-0.5381,1.8757,91,7.216,139,9.2362,-9.2146,-17.4171,-0.3079,-0.1979,0.6519,93,7.345,141,10.8191,7.7154,-12.412,1.1485,0.4369,-0.529,63
7.66,147,0.136,-5.2164,-2.1122,0.5184,-0.0896,1.5285,86,7.242,139,9.6893,3.986,-4.8829,-0.8326,-0.5879,2.0046,91,7.267,140,10.3486,-6.2231,-14.0729,0.4518,-0.8178,0.7749,93,7.397,142,8.4833,10.9159,-12.617,1.4242,-0.3477,-1.0575,63
7.712,148,-0.7494,-6.9609,-0.3388,1.0527,0.1327,1.7922,86,7.294,140,11.9907,3.4539,-5.6966,-0.9327,0.25,0.7767,91,7.319,141,10.027,-1.6812,-7.687,-0.3455,-0.3978,1.1621,93,7.449,143,6.1709,5.8407,-11.8434,0.3623,-0.2513,-1.4432,63
7.764,149,-2.1307,-8.1295,-0.6841,1.4427,-0.0954,1.9847,86,7.346,141,10.2346,2.7266,-8.3289,-1.3608,0.8616,-0.1195,91,7.371,142,12.5839,4.1249,-3.0262,-0.872,-0.2408,1.2715,93,7.501,144,6.1383,-0.6909,-12.7555,0.0135,0.0144,-1.7119,63
7.816,150,-1.0679,-9.2225,-2.1592,1.1862,-0.739,1.4251,86,7.397,142,8.3172,4.0399,-10.562,-1.6732,1.3079,-0.7736,91,7.423,143,14.45,-0.5669,-4.8771,-0.0503,-0.3904,1.0419,93,7.553,145,9.5973,-5.801,-8.7122,-0.3264,-0.0027,-1.277,63
7.867,151,3.4857,-6.2464,-5.247,1.5401,-1.2087,1.0769,86,7.449,143,6.4963,4.0425,-11.9393,-1.1151,1.6336,-1.251,91,7.475,144,15.7862,2.0743,-7.1298,-0.638,-0.1233,0.5558,93,7.604,146,12.1218,-2.6277,-6.5448,-0.9153,-0.2192,-1.0174,63
7.919,152,3.5302,-4.5964,-7.4693,1.1433,-1.4044,0.8484,86,7.501,144,7.4531,3.7494,-11.6601,-0.6575,1.8714,-1.5994,91,7.527,145,13.3409,3.0775,-10.441,0.2109,-0.4294,-0.1962,93,7.656,147,11.9205,-3.288,-8.6736,0.0066,0.1109,-0.612,63
7.971,153,3.6986,-3.7482,-7.3554,0.6328,-0.827,0.4714,86,7.553,145,8.3596,3.5798,-10.5675,-1.1273,2.0449,-1.8537,91,7.578,146,8.4034,7.598,-11.4185,0.8051,-0.5993,-0.8172,93,7.708,148,10.1314,-4.235,-10.9013,-0.6722,0.5164,0.0599,63
8.023,154,2.528,-2.379,-6.1498,0.1804,-0.193,0.1831,86,7.605,146,9.7177,4.4464,-6.3936,-1.5028,2.1715,-2.0393,91,7.63,147,7.0453,6.1704,-9.6388,-0.0876,-0.0406,-1.2705,93,7.76,149,10.7995,-0.1178,-12.3752,-0.5233,0.3422,0.3774,63
8.074,155,2.0607,-2.3592,-4.308,-0.0244,0.4475,0.0647,86,7.657,147,7.9136,7.5735,-2.0185,-0.5985,1.3908,-1.3056,91,7.682,148,7.918,2.4906,-9.3,0.4938,0.6487,-1.6013,93,7.812,150,8.9624,-1.2719,-11.7771,0.2081,-0.1091,0.9514,63
8.126,156,2.0991,-1.3746,-0.8071,0.4225,1.009,0.2094,86,7.708,148,4.9604,7.4001,-1.4568,-0.0869,0.4677,-1.0961,91,7.734,149,6.1104,-1.7474,-12.7946,1.0369,0.925,-1.7879,93,7.863,151,6.7102,-1.1091,-10.5633,0.4503,-0.4192,1.3747,63
8.178,157,0.9427,-1.902,2.0021,0.2206,1.4189,0.029,86,7.76,149,1.1194,2.4766,-3.5685,0.6083,-0.2881,-1.1223,91,7.785,150,9.717,-5.1982,-14.9617,1.4306,0.6805,-1.4274,93,7.915,152,4.2562,1.3798,-11.0356,-0.3151,-0.7234,1.6837,63
8.23,158,0.5835,-3.6457,4.0524,-0.5164,0.6902,-0.1668,86,7.812,150,-2.6212,1.1281,-6.3709,1.0739,-0.058,-0.9133,91,7.837,151,12.3576,-0.9246,-18.2447,1.0242,0.1478,-1.3421,93,7.967,153,8.2237,6.2992,-8.84,-0.907,-0.7774,1.2886,63
8.282,159,1.9449,-1.3955,-0.0174,-1.0543,-0.1656,-0.2579,86,7.864,151,-2.7201,0.383,-7.7783,0.2983,-0.3791,-0.4008,91,7.889,152,14.2849,1.2731,-15.4242,0.4927,0.7862,-0.8288,93,8.019,154,11.1193,7.2107,-11.6126,-0.0542,-0.657,0.9011,63
8.333,160,0.862,0.813,-3.6918,-1.4448,-0.6788,-0.6276,86,7.916,152,-2.4773,1.6012,-7.3399,0.0065,-0.6663,-0.1527,91,7.941,153,9.4033,-1.3341,-17.9853,-0.3156,0.8579,-0.0334,93,8.07,155,13.0796,2.0736,-11.1695,0.0314,0.2054,0.4952,63
8.385,161,0.1594,1.7892,-6.2435,-1.6818,-0.7483,-1.1331,86,7.967,153,-0.6209,4.567,-5.7322,-0.5717,-0.6831,-0.456,91,7.993,154,10.4478,-6.2107,-16.4647,-0.9056,0.1704,0.6534,93,8.122,156,7.3851,5.9911,-16.1332,0.6976,0.5372,0.4671,63
8.437,162,1.5547,1.5203,-7.6433,-1.9049,-0.6199,-1.5021,86,8.019,154,1.6273,8.6601,-2.3728,-0.1814,-0.7269,-1.0029,91,8.044,155,9.3018,-7.9521,-15.3297,-0.5284,-0.5418,1.1546,93,8.174,157,6.565,6.2061,-18.1335,1.1838,-0.2355,-0.2026,63
8.488,163,3.8402,0.3874,-6.7607,-2.0676,-0.3801,-1.7714,86,8.071,155,4.512,11.6474,-0.5318,0.3081,-0.6763,-0.7579,91,8.096,156,9.1395,-5.1218,-13.204,0.0493,-0.901,1.5204,93,8.226,158,6.7987,6.8587,-17.3031,0.6438,-0.8387,-0.3509,63
8.54,164,7.4518,-2.8455,-5.101,-2.0359,0.1261,-1.968,86,8.123,156,4.7569,10.7895,-0.2878,0.8655,-0.7779,-0.5399,91,8.148,157,6.3219,1.6138,-8.8458,-0.3403,-0.5668,1.7766,93,8.278,159,4.1549,2.2677,-13.1895,-0.2072,-1.1396,-0.8346,63
8.592,165,10.4955,-7.2745,-1.9799,-2.1632,0.3737,-2.0679,86,8.175,157,2.8655,5.5359,-2.4208,0.3397,-0.3198,-0.4625,91,8.2,158,9.8797,4.1654,-14.3092,0.4282,-0.9616,0.6819,93,8.329,160,5.8652,-3.5493,-8.3347,0.1302,-0.5702,-0.928,63
8.644,166,10.1138,-10.507,-1.5825,-2.2562,0.1643,-1.1289,86,8.227,158,2.033,1.8681,-4.1016,0.0664,0.0395,0.2166,91,8.252,159,12.4764,6.4837,-15.5722,0.3822,-1.0793,0.4791,93,8.381,161,9.398,-7.2188,-9.0078,0.5649,-0.5798,-0.8659,63
8.696,167,6.1771,-9.0204,-2.5231,-1.866,-0.4023,-0.1473,86,8.278,159,1.7531,1.7387,-4.5834,-0.2718,0.4743,0.8235,91,8.303,160,11.8644,6.826,-14.7152,0.841,-0.6525,-0.2986,93,8.433,162,11.9763,-1.9279,-10.0433,-0.2648,-0.2728,-0.562,63
8.747,168,3.3891,-6.0573,-3.5342,-0.6875,-0.8643,0.5692,86,8.33,160,1.402,1.6975,-4.9834,-0.5428,1.0228,1.2664,91,8.356,161,8.8274,6.7614,-14.7859,1.2904,-0.5034,-0.892,93,8.485,163,12.5275,-5.6374,-8.8401,0.4814,-0.0449,-0.201,63
8.799,169,1.3239,-2.6579,-4.2317,0.1677,-0.7799,1.092,86,8.382,161,1.0,3.5264,-4.3258,-0.5642,1.2471,1.3424,91,8.407,162,8.9164,5.9152,-12.7169,0.5596,-0.4846,-1.325,93,8.537,164,11.7857,-4.5582,-8.9369,-0.2049,-0.3571,0.1619,63
8.851,170,0.7172,-2.5835,-4.2719,0.4175,-0.2616,1.1071,86,8.434,162,3.2561,7.9006,-0.5094,-0.8093,0.8302,1.3982,91,8.459,163,7.7297,4.2322,-10.3792,-0.1609,-0.1658,-1.5419,93,8.588,165,9.5891,-8.0342,-9.0776,-0.8266,-0.3918,0.6125,63
8.903,171,1.7629,-2.3429,-3.5762,0.9791,0.4915,1.0737,86,8.486,163,4.2487,11.093,1.3234,0.0811,0.3381,0.803,91,8.511,164,6.2098,1.617,-11.5934,0.1291,-0.323,-1.7161,93,8.64,166,6.9552,-5.8631,-8.3832,0.0714,0.2816,1.1103,63
8.955,172,3.6019,-6.9077,-2.0269,0.7681,1.0412,1.3085,86,8.537,164,2.6924,6.0836,2.0803,0.2887,-0.2299,0.4128,91,8.563,165,9.7979,-4.0569,-5.8773,0.7708,-0.5283,-1.5285,93,8.692,167,6.8648,-3.5606,-9.0356,-0.1016,0.8905,1.4392,63
9.006,173,7.6856,-10.2392,-0.1861,0.0544,0.8753,1.1386,86,8.589,165,-0.1229,0.6798,0.3961,-0.2039,0.0874,0.4003,91,8.615,166,12.4167,0.0418,-9.0646,0.2124,-0.7221,-1.1569,93,8.744,168,5.5088,2.0949,-11.9108,-0.7513,0.8748,1.6585,63
9.058,174,5.615,-11.1007,-1.2641,-0.6377,0.1711,1.0184,86,8.641,166,0.582,0.7373,-0.3403,-0.8288,0.2729,0.9316,91,8.666,167,14.328,-0.0232,-11.4374,-0.0168,0.1492,-0.9881,93,8.795,169,9.1378,3.3785,-13.3213,-0.8495,0.1912,1.1526,63
9.11,175,1.3125,-5.8573,-1.9799,0.2037,-0.2243,1.2291,86,8.693,167,2.5473,0.9369,0.1308,-1.2849,0.8783,1.3453,91,8.718,168,12.4775,-2.5698,-11.6171,-0.6875,0.7873,-0.219,93,8.847,170,11.7865,1.1093,-13.4775,0.0095,0.3375,0.8357,63
9.162,176,-1.638,-1.8807,-2.8384,0.5283,-0.833,1.2528,86,8.745,168,3.8814,3.1873,1.1811,-1.4073,1.3201,1.3949,91,8.77,169,9.3226,-7.1126,-14.4492,-1.177,0.0081,0.5116,93,8.899,171,11.1185,-0.7645,-10.6338,-0.0573,0.753,0.3843,63
9.214,177,-1.6663,-4.6606,-2.2974,1.0238,-1.2773,1.3267,86,8.796,169,4.6973,6.0815,2.1061,-1.7071,1.6425,1.1891,91,8.822,170,9.5469,-6.7347,-16.4747,-1.5342,-0.6675,1.0306,93,8.951,172,8.1892,2.8831,-13.4752,0.6329,0.7089,-0.0262,63
9.265,178,-0.5769,-4.7799,-1.0587,1.4216,-1.2894,1.5804,86,8.848,170,1.3058,5.9676,0.414,-0.6418,1.8779,0.974,91,8.874,171,9.3509,-5.4157,-12.5729,-0.4432,-1.1606,0.92,93,9.003,173,7.2194,5.4824,-12.2775,1.1308,0.2383,-0.6905,63
9.317,179,0.6062,-5.9393,-0.0671,1.7119,-1.0061,1.8055,86,8.9,171,-1.1233,6.9163,-1.9697,0.1605,0.6979,0.4586,91,8.925,172,5.6744,-0.4914,-13.1291,0.168,-0.7707,1.1385,93,9.055,174,5.194,4.8276,-11.1717,1.0445,0.2254,-1.1754,63
9.369,180,1.401,-7.2929,-1.2225,1.9238,-0.878,1.7528,86,8.952,172,-1.529,2.7464,-4.1782,0.3128,-0.1633,-0.2078,91,8.977,173,9.4072,4.9933,-16.939,-0.5526,-0.6118,0.8081,93,9.106,175,4.5317,2.1545,-11.7607,0.7355,0.3492,-1.5293,63
9.421,181,3.6345,-8.5919,-1.6936,0.7928,-1.1138,1.9187,86,9.004,173,-3.0812,0.0351,-5.5732,0.6543,-0.7919,-0.5785,91,9.029,174,12.1315,7.1783,-16.4115,0.2698,-0.6417,0.5041,93,9.158,176,8.4247,-3.7244,-6.2712,0.6939,-0.1222,-0.9431,63
9.473,182,6.7512,-6.0492,-3.6549,0.4703,-0.9634,1.855,86,9.056,174,0.2843,1.7221,-3.1406,-0.2025,-1.0112,0.1832,91,9.08,175,12.2373,6.003,-13.8846,-0.392,-0.5317,0.2389,93,9.21,177,10.8956,-0.7413,-7.7493,-0.1706,-0.2402,-0.5992,63
9.524,183,5.5365,-3.2025,-5.9724,-0.3342,-0.3216,1.3051,86,9.108,175,2.1848,-2.3271,-3.0089,-0.0683,-0.2379,0.7991,91,9.132,176,9.5301,4.2058,-15.165,0.3904,-0.5132,-0.4996,93,9.262,178,10.4371,-0.2434,-8.0597,0.4128,0.1214,-0.1216,63
9.576,184,3.9867,-2.1362,-7.1109,-0.9213,0.285,0.4023,86,9.159,176,2.1772,0.8023,-2.0234,0.6219,0.5055,0.9402,91,9.184,177,8.473,6.7813,-11.047,0.9615,-0.3485,-1.0386,93,9.313,179,8.755,-3.1935,-9.5361,-0.3758,0.3776,0.5156,63
9.628,185,1.8029,-1.5451,-7.5719,-1.3498,0.7325,-0.3815,86,9.211,177,1.5317,2.837,1.1675,-0.2261,1.0417,1.0834,91,9.236,178,7.2314,5.3742,-9.5816,0.272,0.0324,-1.4321,93,9.365,180,9.1555,-0.6439,-11.0138,-0.3432,0.0118,0.6542,63
9.68,186,0.7638,-0.926,-7.346,-1.5971,0.8738,-0.9535,86,9.263,178,1.5164,4.6641,3.4999,0.2088,0.3534,0.83,91,9.288,179,6.9987,2.0532,-10.6769,0.1071,0.5491,-1.7192,93,9.417,181,6.6418,0.2926,-9.6289,0.4242,-0.3232,1.1545,63
9.732,187,1.9313,-3.6322,-4.9997,-1.4068,0.5789,-1.371,86,9.315,179,0.8085,4.4436,3.8591,0.8154,-0.4147,0.0117,91,9.339,180,1.7182,-3.7385,-15.7973,0.7547,-0.1078,-1.9288,93,9.469,182,5.0236,0.0228,-10.2829,0.1304,-0.3303,1.4973,63
9.783,188,6.4664,-7.8487,-1.0578,-1.3251,0.2807,-1.6757,86,9.367,180,-0.4832,1.0429,1.6948,1.1748,-0.9117,-0.6778,91,9.391,181,6.5198,-5.0846,-14.4029,0.4611,-0.3483,-0.9983,93,9.521,183,4.1451,3.0986,-11.1664,-0.1926,-0.8853,1.666,63
9.835,189,9.7762,-10.926,-0.5614,-1.6445,0.2634,-0.9834,86,9.418,181,-3.0106,-1.761,-1.8448,1.0254,-0.9447,-0.9216,91,9.443,182,10.0242,-1.7396,-17.2334,-0.2061,-0.1377,-0.7172,93,9.572,184,8.1425,4.7119,-8.6872,-0.8019,-1.3124,1.117,63
9.887,190,6.9361,-7.2636,-2.2522,-1.4699,0.3529,-0.2964,86,9.47,182,-3.9635,-0.6137,-3.8818,0.9066,-0.8368,-0.7594,91,9.495,183,12.2775,0.7515,-14.5732,-0.0075,0.5778,-0.4516,93,9.624,185,11.0601,0.1392,-12.6729,-0.157,-0.9854,0.8627,63
9.939,191,3.1366,-1.866,-4.617,-0.6632,-0.007,-0.3033,86,9.522,183,-3.4407,2.4543,-4.3107,0.061,-0.7077,-0.8715,91,9.547,184,10.0094,-3.3477,-14.2842,-0.6807,0.6045,0.2169,93,9.676,186,13.1894,-1.9369,-10.8665,0.5267,-0.0342,0.4678,63
9.991,192,2.0695,-0.2302,-6.0085,-0.2748,-0.1293,-0.8965,86,9.574,184,-1.3603,3.3732,-2.8111,-0.3164,-0.1609,-1.3224,91,9.599,185,10.5109,-6.9907,-14.5354,-1.172,0.1421,0.836,93,9.728,187,10.2089,3.8785,-15.912,1.0591,0.1884,0.2551,63
10.042,193,3.0769,-0.9598,-5.9787,0.4473,-0.055,-1.2914,86,9.626,185,0.4132,7.6148,0.5961,-0.2667,0.2962,-1.5969,91,9.651,186,9.4072,-6.5181,-13.1872,-1.291,-0.0979,1.2879,93,9.78,188,8.8127,4.9072,-16.8245,1.4476,-0.5285,-0.2797,63
10.094,194,4.4035,-1.581,-5.4676,0.3684,0.3818,-1.3575,86,9.677,186,1.9938,8.7298,2.9336,0.4302,0.3589,-1.2157,91,9.702,187,7.9279,-4.427,-11.9759,-1.2265,-0.3305,1.6177,93,9.831,189,8.6748,5.6623,-16.4024,0.5953,-1.0525,-0.5622,63
10.146,195,6.5694,-4.6455,-4.5168,-0.0299,0.8744,-1.0491,86,9.729,187,2.2482,5.7064,1.5381,0.9805,0.0255,-1.0946,91,9.754,188,3.821,0.5732,-14.3569,-1.4025,0.0503,1.8545,93,9.883,190,6.1846,1.589,-12.0311,-0.2426,-1.2924,-1.0818,63
10.198,196,9.8515,-8.5882,-3.5505,-0.3822,1.1368,-0.7624,86,9.781,188,2.4817,0.9262,-0.4613,0.5637,-0.1836,-0.778,91,9.806,189,8.0545,-0.9215,-12.9741,-0.347,-0.5213,0.8602,93,9.935,191,5.2106,-2.3135,-13.4078,0.3526,-0.5399,-1.3128,63
10.249,197,9.8927,-9.1602,-3.0672,-0.9563,0.9229,0.1079,86,9.833,189,2.625,-1.2135,-1.9709,-0.035,-0.1898,0.0976,91,9.858,190,11.1443,2.8734,-14.635,-0.9285,-0.2374,0.71,93,9.987,192,8.9202,-6.9853,-13.4392,0.932,-0.4286,-1.0826,63
10.301,198,2.4197,-4.2025,-4.389,-0.0236,0.7361,0.7554,86,9.885,190,3.6784,-0.0885,-2.4569,-0.7056,0.0204,0.7366,91,9.91,191,9.6451,2.7706,-14.8285,-0.0331,-0.2248,-0.1382,93,10.038,193,11.6277,-6.3386,-13.0813,0.0031,-0.3241,-0.5558,63
10.353,199,-0.9026,-1.0768,-4.4009,0.6572,0.1599,0.7993,86,9.936,191,2.7167,1.5412,-2.1732,-0.5414,0.6254,1.203,91,9.961,192,7.3131,6.3429,-13.0103,0.6524,-0.2491,-0.7749,93,10.09,194,10.1347,-6.5857,-11.5776,0.6746,-0.2268,-0.0829,63
10.405,200,-0.6897,-0.5221,-3.5689,1.154,-0.1651,0.4225,86,9.988,192,0.4465,6.4318,0.2992,-1.0751,0.9585,1.5434,91,10.013,193,7.5345,5.9131,-11.67,-0.1638,-0.1244,-1.2395,93,10.142,195,8.7252,-4.8326,-11.0761,-0.1847,-0.2234,0.2738,63
10.457,201,1.4696,-0.6526,-1.7713,1.5114,0.1663,0.2101,86,10.04,193,-0.6376,5.7186,2.3701,-0.5565,1.0912,1.5799,91,10.065,194,6.7614,4.4941,-12.5217,-0.6142,-0.1122,-1.5787,93,10.194,196,6.2773,-7.5645,-10.7699,0.0698,0.0373,0.7025,63
10.509,202,3.3961,-1.7661,-0.7785,1.7775,0.8038,0.1631,86,10.092,194,-1.7572,9.1723,3.4154,0.2656,0.1792,0.9355,91,10.117,195,6.4155,1.0132,-13.3681,-0.5117,-0.6403,-1.8262,93,10.245,197,5.2808,-6.6068,-9.3528,0.7256,0.6373,1.193,63
10.56,203,7.5354,-4.1621,0.93,1.6855,1.2542,-0.261,86,10.144,195,-2.6431,2.9987,1.776,0.3383,-0.5419,0.2117,91,10.169,196,8.7387,-4.2563,-11.5889,0.3031,-1.0033,-1.7443,93,10.297,198,5.1538,-2.4294,-10.317,0.2435,1.093,1.4472,63
10.612,204,9.1215,-5.8777,0.5739,0.5528,1.1903,0.4007,86,10.196,196,-3.3243,1.1471,-2.0401,0.4156,-1.0681,0.4303,91,10.22,197,7.5999,2.2455,-15.9427,-0.454,-0.9675,-1.2922,93,10.349,199,8.8788,3.5191,-5.2845,-0.4994,0.1309,1.478,63
10.664,205,8.3753,-5.9562,0.4049,0.7618,0.4585,0.9691,86,10.247,197,-1.1671,-1.166,-5.6052,-0.3767,-1.4523,0.9794,91,10.272,198,10.8125,4.3232,-15.6348,-0.6667,-0.0278,-0.7166,93,10.401,200,11.5974,-0.9408,-7.5814,0.1463,-0.2346,1.1538,63
10.716,206,2.2354,0.9308,-3.8418,0.5959,-0.1694,1.3806,86,10.299,198,4.0673,-1.2012,-7.8152,0.3168,-1.6217,1.3802,91,10.324,199,10.7185,1.435,-16.6746,-1.1618,0.6581,-0.3882,93,10.453,201,12.721,-1.652,-8.3643,0.3581,0.3212,0.8491,63
10.768,207,-0.6845,0.6509,-5.9607,-0.2425,-0.4662,0.7964,86,10.351,199,5.6102,-0.7922,-8.6637,0.903,-0.9541,1.3337,91,10.376,200,4.1412,-3.317,-15.6859,-1.5231,0.1329,0.2065,93,10.504,202,10.9941,-0.0217,-9.9131,0.9156,0.4842,0.3601,63
10.819,208,0.4923,1.1702,-5.996,0.4974,-0.6481,-0.0684,86,10.403,200,9.0136,2.5344,-6.3619,1.3308,-0.7967,1.3753,91,10.427,201,8.2693,-5.2004,-18.701,-0.7836,-0.5764,0.7836,93,10.556,203,11.7586,5.2763,-11.5047,1.3429,0.2084,-0.4081,63
10.871,209,2.7203,-1.0762,-5.1466,-0.3143,-0.2158,-0.4443,86,10.455,201,11.4975,7.1764,-3.1362,1.1536,-0.7949,1.4541,91,10.479,202,7.8536,-2.928,-13.8517,0.1046,-1.0941,0.923,93,10.608,204,10.1976,6.5872,-12.0082,1.6548,0.1257,-0.9692,63
10.923,210,3.4231,-2.7614,-3.2397,-0.4712,0.4149,0.0978,86,10.506,202,10.2071,7.0681,-1.6089,1.2433,-0.5084,0.3749,91,10.531,203,7.3149,-1.6565,-10.0576,0.7529,-0.6544,0.8335,93,10.66,205,7.1196,2.919,-12.633,0.8764,0.3028,-1.3788,63
10.975,211,6.0404,-7.2106,0.2267,-0.3389,0.52,-0.0417,86,10.558,203,3.0347,3.6316,-1.1891,0.4675,-1.0138,0.2452,91,10.583,204,10.6045,4.1429,-9.5713,-0.1257,-0.1299,1.2854,93,10.712,206,5.3256,-1.1267,-14.476,0.2207,0.522,-1.6066,63
11.027,212,6.8499,-10.4604,0.8511,-0.9247,0.0556,0.0263,86,10.61,204,0.1549,2.5549,-2.4998,-0.3387,-1.2775,0.6448,91,10.635,205,13.0054,-2.0913,-10.9649,0.5848,-0.1201,0.8164,93,10.763,207,9.0041,-4.9743,-7.9574,0.2662,0.4836,-1.4314,63
11.078,213,3.605,-6.856,-0.5009,-0.0005,-0.3465,0.4999,86,10.662,205,2.2912,0.3468,-3.0071,-0.444,-1.1417,1.1112,91,10.687,206,12.1651,0.4153,-10.6646,-0.2484,-0.0022,0.6684,93,10.815,208,11.6889,-8.9272,-10.1558,-0.2582,-0.2866,-1.17,63
11.13,214,1.4294,-0.7773,-3.0235,0.1894,-0.9084,-0.0472,86,10.714,206,3.5348,0.1098,-4.2288,0.3477,-0.1542,1.252,91,10.738,207,10.4576,-0.2197,-12.9811,0.4127,0.0516,0.0803,93,10.867,209,11.7307,-6.0532,-10.6351,0.2412,0.2298,-0.6392,63
11.182,215,2.7074,0.5765,-5.3958,0.0136,-0.9994,-0.7095,86,10.765,207,3.1984,-0.3969,-4.9012,0.6729,0.5666,1.0625,91,10.79,208,7.2347,3.1724,-14.0373,0.6714,0.0127,-0.3791,93,10.919,210,10.1214,-4.8801,-10.1246,-0.501,0.4071,0.119,63
11.234,216,4.3148,1.0242,-6.222,-0.6133,-0.6318,-1.193,86,10.817,208,7.2534,0.8076,-4.3411,0.282,1.0895,0.7323,91,10.842,209,5.8734,4.584,-12.318,-0.1852,0.4693,-0.8208,93,10.97,211,10.0732,-3.461,-9.6304,-1.0427,-0.1413,0.4769,63
11.286,217,4.833,-0.2484,-6.4267,-1.1043,-0.1768,-1.4814,86,10.869,209,10.2128,4.1219,-1.5016,0.7315,0.889,0.0474,91,10.894,210,5.3005,3.3088,-13.3324,-0.6506,0.9727,-1.2704,93,11.022,212,7.4892,-4.4844,-8.3104,-0.6217,-0.5703,1.0257,63
11.337,218,5.4687,-1.6654,-5.6273,-0.7866,0.213,-1.4577,86,10.921,210,9.4194,5.8083,-0.416,0.1972,-0.0158,-0.6518,91,10.946,211,3.172,-2.8221,-16.127,0.2017,0.8037,-1.6012,93,11.074,213,4.9678,-3.6243,-8.3124,-0.8119,-0.5876,1.4289,63
11.389,219,9.0481,-5.6966,-4.2018,-1.0487,0.0281,-1.7215,86,10.973,211,4.1768,1.8202,-1.8132,0.0102,-0.1628,-1.1621,91,10.997,212,4.3414,-3.9668,-18.1835,0.8237,0.582,-1.5434,93,11.126,214,4.9207,0.5399,-9.9846,-1.2546,-1.0102,1.7232,63
11.441,220,11.6605,-9.3554,-4.0484,-1.4428,-0.1537,-1.5136,86,11.024,212,1.2551,2.5767,-2.693,-0.0768,-0.7915,-1.53,91,11.049,213,8.4343,-2.8146,-20.0581,0.3543,0.0867,-1.1571,93,11.178,215,5.5881,5.6862,-7.9244,-1.5647,-0.6162,1.3309,63
11.493,221,9.5277,-8.0008,-3.2362,-0.8006,-0.2541,-0.6141,86,11.076,213,-0.1097,2.7308,-4.1129,-0.7361,-1.2503,-1.8016,91,11.101,214,11.4215,2.2564,-17.3838,0.8008,0.584,-0.9286,93,11.229,216,9.1957,1.0131,-10.8579,-0.6708,-0.7593,1.0742,63
11.544,222,2.91,-1.1789,-5.503,0.09,-0.7614,-0.3553,86,11.128,214,0.8109,3.118,-4.9464,-1.2173,-1.5852,-1.9465,91,11.153,215,8.1423,-3.5902,-15.6778,-0.0907,0.8848,-0.2488,93,11.281,217,11.8287,-4.0937,-10.3996,-0.494,0.1308,0.7488,63
11.596,223,1.4248,0.1803,-6.5209,-0.4621,-0.8255,-0.9334,86,11.18,215,2.6325,3.5626,-6.2015,-1.5684,-1.4576,-2.0732,91,11.205,216,7.1861,-5.7874,-18.0233,-0.7415,0.1774,0.4895,93,11.333,218,8.6169,0.3342,-12.2444,0.3141,0.7804,0.408,63
11.648,224,4.2042,0.8903,-7.2714,-0.6226,-0.388,-1.1616,86,11.232,216,6.8404,3.8942,-5.6168,-1.8247,-1.2087,-1.8832,91,11.256,217,6.9951,-7.3841,-17.0319,-1.2129,-0.5439,1.035,93,11.385,219,7.0136,4.9969,-16.908,0.9039,0.5372,-0.1895,63
11.7,225,3.8906,1.5452,-7.7994,-1.1318,0.1464,-0.9398,86,11.284,217,9.9115,5.8942,-5.2458,-1.3311,-0.7584,-1.0733,91,11.308,218,7.1349,-5.9823,-14.4183,-0.2087,-0.9871,1.4331,93,11.437,220,6.2168,6.4683,-16.7228,1.0858,-0.2747,-0.5649,63
11.752,226,4.2289,0.8598,-7.5354,-0.5352,0.3673,-1.0077,86,11.335,218,11.5076,5.2842,-5.6385,-0.2998,-0.0416,-0.5389,91,11.36,219,5.3044,0.9858,-10.0634,0.2436,-0.3682,1.7237,93,11.488,221,6.386,3.5661,-15.6097,0.1154,-0.8673,-0.8884,63
11.803,227,8.1433,0.9038,-7.2159,-0.7231,-0.3041,-1.4051,86,11.387,219,5.5959,2.7787,-5.3329,-0.0596,0.435,-0.3193,91,11.412,220,7.8914,6.0565,-15.3496,-0.4974,-0.6102,1.9127,93,11.54,222,7.0576,-0.1863,-10.7474,-0.5831,-1.2998,-1.066,63
11.855,228,11.0001,-3.7945,-7.2012,-1.2051,-0.033,-1.0476,86,11.439,220,5.2526,-0.4513,-5.9522,-0.0989,-0.066,0.4219,91,11.463,221,11.0253,0.6915,-14.5291,0.3135,-0.5451,1.1478,93,11.592,223,8.8092,-4.7008,-13.4367,-0.194,-0.8276,-0.7238,63
11.907,229,7.8482,-5.2991,-6.5647,-0.2052,-0.066,-0.1507,86,11.491,221,5.3509,-1.0834,-6.8981,0.5995,0.0425,0.9733,91,11.515,222,9.621,2.4703,-15.7164,-0.4464,-0.2315,0.8159,93,11.644,224,11.5466,-3.7165,-13.6622,-0.6063,-0.8941,-0.8258,63
11.959,230,3.5972,-4.1499,-5.7615,0.2756,-0.3047,0.2918,86,11.543,222,4.6501,-0.0863,-6.9898,1.1093,0.5259,1.3756,91,11.567,223,8.9804,3.3601,-16.6822,0.3507,0.0636,-0.0786,93,11.695,225,13.3563,-3.4435,-14.486,0.1299,-0.4438,-0.3388,63
12.011,231,1.3913,-3.7837,-4.6215,0.3988,-0.2255,0.3198,86,11.594,223,3.446,-0.8755,-7.54,0.8569,0.6609,1.6693,91,11.619,224,6.5909,2.6184,-17.2464,0.8995,-0.4818,-0.6403,93,11.747,226,12.0699,-3.5186,-12.6989,-0.5822,-0.1034,0.1915,63
12.062,232,1.9744,-2.1877,-3.8458,0.7277,0.2508,0.2676,86,11.646,224,5.5808,0.3466,-6.8718,0.3657,-0.1377,1.8837,91,11.671,225,6.0116,3.8643,-14.0799,0.2337,-0.7735,-1.1413,93,11.799,227,7.1943,-2.9136,-13.9867,-1.102,0.1969,0.5354,63
12.114,233,1.48,-1.5946,-3.8975,0.6859,0.8629,0.3469,86,11.698,225,8.9922,3.6735,-5.516,0.4163,-0.7576,1.6796,91,11.723,226,6.0213,3.5668,-11.4136,0.5772,-0.5219,-1.507,93,11.851,228,5.9556,-4.9043,-12.345,-0.5707,0.2461,1.0126,63
12.166,234,3.505,-0.0376,-4.9418,0.6966,1.3122,0.2704,86,11.75,226,11.482,4.0276,-5.3693,0.9755,-0.5799,0.7621,91,11.774,227,5.6422,0.5331,-14.3813,0.7053,-1.0339,-1.7573,93,11.903,229,5.5428,-4.546,-10.7037,0.2581,0.8641,1.4189,63
12.218,235,7.6149,-0.059,-6.1765,-0.1681,1.0488,0.4611,86,11.802,227,7.5108,2.64,-4.17,1.3817,-0.1845,0.3317,91,11.826,228,9.3837,-4.848,-13.6015,1.1913,-1.428,-1.4169,93,11.955,230,6.1159,0.1259,-12.8198,0.3494,1.0274,1.653,63
12.269,236,10.6145,-4.3162,-5.9671,-0.3821,0.6114,0.9052,86,11.854,228,1.8139,0.7928,-5.6848,1.218,-0.684,0.303,91,11.878,229,8.2225,-1.0468,-16.1218,0.6561,-1.342,-1.2546,93,12.006,231,9.5759,5.3841,-11.2444,-0.422,0.1228,1.4133,63
12.321,237,9.707,-3.3892,-5.7099,0.3955,0.0544,1.1588,86,11.905,229,1.7237,0.0774,-5.7622,1.0402,-0.8009,0.297,91,11.93,230,11.2669,4.3699,-16.1298,0.0621,-0.3065,-0.5743,93,12.058,232,12.0219,-1.0652,-14.0321,0.2203,-0.1743,1.1039,63
12.373,238,1.9492,-2.5803,-5.2048,0.0185,-0.5178,1.2309,86,11.957,230,2.7458,0.0966,-6.1989,1.2446,-0.8887,0.2681,91,11.982,231,9.9011,-1.8816,-15.0446,-0.6299,0.4547,-0.0931,93,12.11,233,13.8914,-2.2559,-12.603,0.2308,0.322,0.6842,63
12.425,239,-1.959,-2.5384,-5.6445,0.6674,-1.0016,0.9782,86,12.009,231,1.4389,-0.9149,-6.597,1.578,-0.3153,0.1177,91,12.033,232,5.6196,-3.8461,-18.9851,-1.135,0.0032,0.5234,93,12.162,234,11.8268,0.009,-11.1598,0.8102,0.716,0.3788,63
12.477,240,-0.4623,-3.9522,-4.2729,0.2508,-0.9174,0.944,86,12.061,232,4.1898,-1.1467,-7.2124,1.2488,-0.569,0.5075,91,12.085,233,5.9097,-5.6911,-19.7546,-1.5036,-0.671,1.0597,93,12.214,235,11.1806,4.9209,-13.1391,1.266,0.1819,-0.1134,63
12.528,241,0.9246,-4.2391,-3.7478,0.602,-0.3357,1.3547,86,12.113,233,7.977,1.1312,-8.8791,1.1908,-1.088,0.4355,91,12.137,234,6.5316,-6.8843,-17.4118,-0.423,-1.1631,0.9499,93,12.265,236,9.7735,6.4811,-12.4315,0.8978,-0.013,-0.7541,63
12.58,242,2.0815,-5.362,-2.9946,0.9802,0.1295,1.6653,86,12.164,234,10.1392,2.4789,-6.8616,0.6349,-0.3971,-0.1328,91,12.188,235,3.1552,0.3275,-10.1744,0.3678,-0.7099,1.2491,93,12.317,237,7.9951,4.3997,-11.2913,0.4401,0.0758,-1.2218,63
12.632,243,6.576,-9.1111,-2.2677,1.3898,-0.1264,1.8921,86,12.216,235,5.2597,-0.4797,-5.3707,0.1813,0.3892,-0.3854,91,12.24,236,7.5686,5.5909,-10.0854,-0.4068,-0.4504,1.2991,93,12.369,238,6.3343,2.3411,-11.8268,0.0684,0.2456,-1.5631,63
12.684,244,9.8562,-10.5332,-3.1099,1.0244,-0.5139,1.8778,86,12.268,236,1.11,1.1206,-5.249,0.2497,0.3192,-0.1286,91,12.292,237,10.7896,4.172,-12.4428,0.3796,-0.3708,0.9452,93,12.421,239,4.8532,3.6034,-16.6129,0.6284,0.6093,-1.8123,63
12.736,245,10.3283,-8.9385,-4.9472,0.9262,-1.0444,1.8482,86,12.32,237,0.9047,2.5539,-5.5262,-0.4978,0.1552,0.0502,91,12.344,238,13.1405,2.0781,-13.4409,-0.3981,-0.1437,0.8492,93,12.473,240,8.6593,0.9213,-13.1203,0.2332,-0.0525,-1.0515,63
12.787,246,4.3355,-1.5402,-7.9298,1.0513,-1.1802,1.6007,86,12.372,238,2.025,2.2508,-6.2279,-0.934,0.3562,0.1071,91,12.396,239,10.2391,1.6168,-13.1083,0.3029,0.1547,0.2974,93,12.524,241,9.2822,-4.6244,-13.4145,0.5805,0.5095,-0.7041,63
12.839,247,3.1994,1.2971,-8.0502,0.1052,-0.9838,0.4932,86,12.423,239,1.0078,1.0724,-6.3513,-0.6827,0.8668,0.0073,91,12.447,240,6.906,3.5376,-13.9092,0.8976,0.147,-0.415,93,12.576,242,9.1644,-2.656,-12.2779,-0.1482,0.9087,-0.1187,63
12.891,248,3.9927,1.2971,-8.0027,-0.6006,-0.6808,-0.3152,86,12.475,240,3.0159,0.3873,-6.8996,-0.6385,1.1631,-0.038,91,12.499,241,5.4063,4.8303,-11.1857,0.629,0.0884,-0.8049,93,12.628,243,6.445,-4.7524,-12.5041,-0.7852,0.6938,0.572,63
12.943,249,3.8602,0.7093,-8.0392,-1.1157,-0.3603,-0.9051,86,12.527,241,7.1202,0.808,-8.0879,-0.6227,0.8151,-0.4813,91,12.551,242,5.0365,4.6053,-9.5649,0.0212,0.3955,-1.1733,93,12.68,244,5.9491,-5.4444,-13.0667,-0.4607,0.1121,0.9644,63
12.994,250,3.5438,-0.3165,-7.6038,-1.4287,-0.1411,-1.3357,86,12.579,242,10.1157,2.5152,-5.7718,-0.3152,0.1584,-0.9654,91,12.603,243,5.4292,3.4118,-10.427,-0.3115,0.6808,-1.4711,93,12.732,245,5.3199,-4.8085,-11.8437,0.3384,-0.4644,1.3785,63
13.046,251,5.3729,0.0164,-7.1023,-1.2894,-0.3064,-1.65,86,12.631,243,7.1455,-0.3329,-5.37,-0.6582,0.2531,-1.333,91,12.655,244,5.4546,-2.747,-15.6149,0.3514,-0.1373,-1.2846,93,12.784,246,4.6173,-4.8092,-10.5712,0.6789,-0.728,1.6864,63
13.098,252,8.9782,-3.3221,-7.8051,-1.2731,-0.8051,-1.8793,86,12.682,244,3.0143,0.1679,-4.5734,-0.2007,-0.4837,-0.8446,91,12.707,245,9.2468,3.347,-14.0219,0.6742,-0.3465,-0.6574,93,12.835,247,3.5195,0.4845,-15.6965,-0.0297,-0.5304,1.7384,63
13.15,253,11.6095,-4.4698,-5.8385,-1.0353,-0.8808,-0.7179,86,12.734,245,1.369,0.8621,-4.0315,-0.7711,-1.0125,-0.4343,91,12.758,246,6.5619,1.2563,-16.2598,0.6949,-0.2954,-0.5814,93,12.887,248,7.686,5.6457,-14.2105,-0.6987,-0.5228,0.9545,63
13.202,254,4.373,-2.5601,-7.2987,-0.0835,-0.2318,0.1527,86,12.786,246,1.2163,0.717,-3.8462,-1.2381,-1.0755,-0.3602,91,12.81,247,10.0549,2.4429,-14.8537,0.2906,0.1464,-0.3984,93,12.939,249,10.7269,4.1255,-15.5138,0.0173,-0.3923,0.6992,63
13.254,255,1.4649,-1.8784,-6.548,-0.7384,-0.2505,-0.0645,86,12.838,247,0.9142,0.3542,-4.068,-1.195,-0.5866,-0.4059,91,12.862,248,9.1814,-0.6836,-14.1882,-0.4631,0.4547,0.1455,93,12.991,250,12.9462,1.777,-11.8356,0.6,0.3987,0.4936,63
13.305,256,2.029,-1.1169,-6.38,-0.6897,-0.2222,-0.1244,86,12.89,248,2.5167,0.5845,-4.4291,-1.125,-0.3818,-0.3334,91,12.914,249,9.3091,-3.8917,-14.7657,-1.0132,0.4309,0.7839,93,13.042,251,8.2895,6.5891,-16.6193,1.1126,0.7416,0.1882,63
13.357,257,1.9596,-0.3803,-6.4808,-0.9203,0.3262,0.311,86,12.941,249,6.7559,1.9009,-6.4428,-1.4069,-0.6394,0.0153,91,12.966,250,7.7102,-4.3765,-14.5915,-0.2373,-0.0147,1.2499,93,13.094,252,7.1621,7.0526,-17.9303,1.0583,-0.1255,-0.3439,63
13.409,258,3.1742,-0.1858,-6.3296,-1.0706,0.8005,0.782,86,12.993,250,9.8498,2.5542,-8.1267,-0.726,-0.3081,-0.1141,91,13.017,251,7.3011,-1.3482,-12.9984,0.1561,-0.2,1.5899,93,13.146,253,7.1032,6.0087,-16.8682,0.0953,-0.7584,-0.7648,63
13.461,259,7.3734,-1.8786,-6.0361,-1.1292,0.6842,0.9453,86,13.045,251,6.2813,-0.2199,-7.6345,-1.0152,0.2458,-0.7147,91,13.069,252,9.6251,4.3679,-9.2445,0.1069,0.1113,1.6649,93,13.198,254,5.5227,2.5186,-12.1775,-0.6075,-1.0722,-1.2135,63
13.512,260,10.4383,-5.4052,-6.4959,-1.3954,0.6377,0.7623,86,13.097,252,4.2125,-2.8156,-8.1279,-0.2417,-0.4933,-0.3266,91,13.121,253,12.2905,-2.0492,-6.2589,0.7545,0.2803,1.1683,93,13.25,255,4.4137,-1.3575,-16.8689,0.0203,-1.1172,-1.2589,63
13.564,261,8.6174,-7.386,-4.8938,-1.0034,0.3805,1.0472,86,13.149,253,1.8335,-1.8392,-7.9313,0.4953,-0.2937,0.0445,91,13.173,254,14.105,2.3905,-8.8009,0.0162,0.4321,0.6836,93,13.302,256,8.3386,2.6286,-14.9523,0.6895,-1.149,-1.1023,63
13.616,262,2.8444,-4.5634,-6.0774,-0.0579,-0.148,1.4409,86,13.201,254,2.3922,-1.4497,-6.9194,0.3138,-0.116,0.39,91,13.224,255,12.201,1.7272,-9.7155,0.6884,0.1949,-0.1751,93,13.353,257,11.2032,-3.3784,-13.6506,-0.1738,-1.0897,-0.4953,63
13.668,263,0.0579,-1.4067,-5.8131,0.0289,0.0691,1.0538,86,13.253,255,1.6516,-1.6073,-6.1205,0.3796,0.1538,0.6181,91,13.276,256,8.8254,3.3155,-10.4682,1.1789,-0.0578,-0.8018,93,13.405,258,10.0479,-2.027,-12.701,0.3532,-0.8541,-0.0959,63
13.72,264,2.032,-1.3134,-6.0898,-0.5805,0.3106,0.329,86,13.305,256,3.3592,-0.3962,-5.5639,-0.0583,0.1049,0.9856,91,13.328,257,7.6282,4.3343,-9.5664,0.3455,-0.353,-1.2403,93,13.457,259,8.5965,-1.4852,-12.9954,-0.4193,-0.5897,0.2738,63
13.771,265,3.0837,-1.9905,-6.3053,-0.4386,0.8951,0.271,86,13.356,257,7.3708,0.2982,-6.8283,-0.2152,-0.3316,1.2539,91,13.38,258,6.9729,2.8691,-9.875,-0.4231,-0.3313,-1.4916,93,13.509,260,6.4575,-5.1871,-12.6641,-0.4117,-0.495,0.6951,63
13.823,266,4.3669,-2.5136,-5.7441,0.3361,1.3357,0.8029,86,13.408,258,10.2986,0.9472,-6.4743,-0.2091,-0.5037,0.7597,91,13.432,259,6.0506,0.3325,-12.666,0.1633,-0.893,-1.7622,93,13.561,261,4.1707,-4.2033,-11.6934,0.3742,-0.0607,1.1873,63
13.875,267,7.7802,-4.1883,-3.9192,0.4647,1.3142,0.9661,86,13.46,259,9.351,-1.092,-6.4728,0.2907,-0.4226,0.1069,91,13.483,260,5.9898,-3.2167,-12.708,0.7957,-1.1496,-1.9021,93,13.612,262,4.5761,-4.4745,-10.5884,0.4734,0.4256,1.5469,63
13.927,268,10.7351,-7.3205,-1.1935,-0.3382,0.8328,0.8336,86,13.512,260,2.8815,-1.2885,-7.1326,0.6948,0.3655,-0.1385,91,13.535,261,5.6897,-3.4679,-15.2781,0.4531,-0.9383,-1.348,93,13.664,263,8.4571,1.983,-15.7091,-0.3118,-0.1915,1.8084,63
13.979,269,11.5974,-7.7759,-1.1933,-0.3008,-0.0615,0.8335,86,13.564,261,2.3466,-2.1007,-7.2471,0.3701,-0.3676,-0.1505,91,13.587,262,8.9352,-0.6361,-16.5694,-0.1013,-0.0117,-0.9252,93,13.716,264,11.2897,2.4043,-14.707,-0.4771,-0.4108,1.3648,63
14.03,270,5.4891,-4.3165,-2.2209,-0.5231,-0.5749,0.7696,86,13.615,262,2.1578,-2.8008,-8.422,0.7871,-0.5192,0.0594,91,13.639,263,10.2879,-1.8099,-13.9434,-0.7491,0.6699,-0.4407,93,13.768,265,10.8396,0.7888,-15.2537,0.2725,0.0832,1.0355,63
14.082,271,0.568,-0.7078,-5.1839,0.2926,-0.9243,0.2048,86,13.667,263,2.5125,-3.1314,-8.7658,1.2462,-0.1678,0.2035,91,13.691,264,7.3073,-6.1974,-18.1814,-1.222,0.7337,0.172,93,13.819,266,13.0019,-0.9456,-11.7151,-0.0605,0.7457,0.6449,63
14.134,272,0.4116,0.0965,-6.1348,-0.1595,-1.0429,-0.5257,86,13.719,264,3.318,-3.9079,-9.1742,1.5812,-0.1114,0.5227,91,13.742,265,6.5262,-7.9135,-19.5503,-1.5671,-0.1379,0.7991,93,13.871,267,10.7489,1.722,-13.7358,0.4871,0.9148,0.2368,63
14.185,273,1.9387,-1.6394,-6.9947,-0.7938,-0.9526,-0.9963,86,13.771,265,7.3407,-1.807,-10.116,1.8258,-0.7157,1.021,91,13.794,266,6.6241,-7.5717,-18.9452,-0.5605,-0.7741,0.9152,93,13.923,268,9.5969,3.9525,-12.9839,0.486,0.5587,-0.4986,63
14.237,274,3.1752,-3.3977,-5.5106,-0.9044,-0.8742,-0.5137,86,13.823,266,10.2766,1.5086,-7.6816,0.7427,-0.215,1.1181,91,13.846,267,4.9437,-3.1239,-13.3368,0.2674,-1.1935,1.1683,93,13.975,269,8.8705,4.2853,-11.8478,0.88,0.3997,-1.0353,63
14.289,275,4.9444,-6.2502,-4.0131,-0.1223,-0.9409,0.1879,86,13.874,267,7.684,0.9835,-7.28,-0.138,0.2571,0.1654,91,13.898,268,8.8739,3.0719,-7.1497,-0.4799,-0.4745,1.419,93,14.027,270,6.7293,3.2392,-11.971,0.8638,0.1392,-1.427,63
14.341,276,8.6655,-8.1864,-3.6944,0.1558,-1.1503,-0.018,86,13.926,268,1.1508,0.9643,-6.451,0.3035,0.8667,-0.1134,91,13.95,269,11.7423,-2.995,-6.0235,0.2706,-0.1276,1.042,93,14.078,271,5.0243,-2.2431,-11.4143,0.6369,0.2755,-1.7129,63
14.393,277,10.5457,-8.2435,-4.6424,-0.5636,-1.0647,0.2422,86,13.978,269,-0.0333,2.7739,-5.4131,-0.4585,0.617,0.0003,91,14.002,270,13.8358,-2.6128,-6.8702,-0.4777,-0.3602,0.822,93,14.13,272,8.7842,-6.9339,-8.5333,0.2525,0.2611,-1.2666,63
14.444,278,5.7269,-4.2797,-6.0634,0.263,-0.8355,0.4867,86,14.03,270,1.799,4.0258,-4.6864,-1.0146,0.3379,0.2528,91,14.054,271,11.8275,-1.1648,-7.4077,-0.2166,0.1019,0.4322,93,14.182,273,11.5284,-9.1514,-10.0946,-0.4928,0.4408,-0.9548,63
14.496,279,3.5153,1.5893,-7.418,0.1736,-1.0605,-0.3199,86,14.082,271,2.5077,3.6204,-5.4236,-1.4206,0.9257,0.2309,91,14.105,272,10.7389,-0.2574,-9.9448,0.5038,0.0423,-0.0778,93,14.234,274,11.5011,-6.5912,-9.9036,-0.0949,0.7155,-0.3866,63
14.548,280,4.5271,3.2199,-8.1047,-0.5507,-0.4767,-0.9086,86,14.133,272,4.5074,2.4711,-7.084,-1.4439,1.3547,-0.0931,91,14.157,273,9.1734,3.8398,-7.0346,1.0442,0.1659,-0.6712,93,14.286,275,10.272,-6.0159,-9.4151,-0.7463,0.7971,0.3836,63
14.6,281,5.7318,3.5683,-8.2002,-1.0793,0.0806,-1.3382,86,14.185,273,8.2088,1.1676,-8.739,-0.4425,1.5352,-0.7523,91,14.209,274,8.0805,3.4027,-5.744,0.3386,0.7368,-1.1443,93,14.337,276,10.2824,-5.9341,-11.7035,-0.8201,0.1552,0.6705,63
14.652,282,5.5574,2.6777,-9.0066,-0.9239,0.476,-1.6518,86,14.237,274,10.9102,1.3489,-10.5012,-0.3403,1.0619,-1.2354,91,14.261,275,7.6043,2.4908,-6.7835,0.661,1.1542,-1.509,93,14.389,277,8.3274,-3.6135,-13.2361,0.0762,-0.4074,0.9277,63
14.703,283,6.9798,2.2791,-9.5977,-0.7514,0.3011,-1.8807,86,14.289,275,12.2613,0.3331,-9.0874,0.3052,0.8402,-1.423,91,14.313,276,4.5219,-2.0363,-12.9558,0.657,0.8436,-1.7535,93,14.441,278,5.6625,-2.5211,-11.8284,0.4708,-0.7569,1.3574,63
14.755,284,10.1509,0.6395,-11.7868,-0.0713,0.6428,-2.0477,86,14.341,276,7.3017,1.7054,-6.9355,0.8945,0.6802,-0.9365,91,14.364,277,2.1896,1.1606,-11.2012,0.8659,-0.0577,-1.9538,93,14.493,279,4.4729,0.7833,-11.4327,-0.3335,-0.9405,1.6711,63
14.807,285,12.4654,2.1311,-9.8294,-0.3529,-0.0654,-1.0617,86,14.392,277,3.293,1.6166,-6.7805,1.1047,-0.0724,-0.4107,91,14.416,278,-1.0127,2.0045,-15.7923,1.1506,0.6362,-1.7876,93,14.544,280,8.3818,5.8638,-5.7364,-0.8593,-1.2843,1.7007,63
14.859,286,13.8063,0.0601,-8.0514,-0.3078,-0.7171,-0.0983,86,14.444,278,1.6237,1.4063,-5.4389,1.4535,-0.6953,-0.0308,91,14.468,279,3.2772,2.1423,-17.25,0.5604,0.3648,-1.2039,93,14.596,281,11.2347,-1.0171,-8.5779,-0.8977,-0.7564,1.379,63
14.911,287,8.2153,3.1651,-6.7188,0.3479,-0.3804,0.6049,86,14.496,279,1.447,2.1186,-4.8037,1.2037,-0.9464,0.0209,91,14.52,280,7.6576,0.1979,-14.8303,-0.2662,0.7745,-0.4285,93,14.648,282,13.3169,-2.7148,-10.4201,-0.7698,-0.1262,0.9002,63
14.962,288,5.5626,1.5758,-5.8363,0.472,-0.3408,0.8275,86,14.548,280,0.4545,2.5698,-4.698,0.2294,-0.7967,0.0428,91,14.572,281,6.6922,-3.3264,-15.3261,-0.8695,0.8884,0.365,93,14.7,283,14.8365,-0.3777,-9.1318,0.1129,0.5929,0.7815,63
15.014,289,5.5529,4.1649,-5.9916,1.0189,-0.1414,1.1591,86,14.6,281,2.0153,3.9554,-4.4094,-0.5126,-0.5918,0.028,91,14.623,282,5.7987,-6.4812,-15.3927,-1.3098,0.1803,0.9441,93,14.752,284,9.6561,2.7099,-14.646,0.757,0.5103,0.2882,63
15.066,290,5.059,8.3131,-6.5748,1.418,0.4167,1.1159,86,14.652,282,6.39,5.9985,-4.9821,-1.0542,-0.5421,0.12,91,14.675,283,5.4536,-4.7132,-12.695,-0.2794,-0.3145,1.3668,93,14.804,285,8.7791,5.2301,-15.4336,0.469,-0.2943,-0.2373,63
15.118,291,5.7955,5.2475,-8.1946,0.3575,0.9866,1.2314,86,14.703,283,5.9493,4.8989,-6.9669,-0.0976,-0.1625,-0.546,91,14.727,284,4.4763,-0.3562,-13.0406,-0.6725,-0.3004,1.6103,93,14.855,286,8.1696,2.1423,-12.7646,-0.3348,-0.8816,-0.8429,63
15.169,292,9.2866,2.0418,-7.4883,-0.3778,0.841,1.4396,86,14.755,284,0.9346,1.3016,-8.7686,-0.7512,0.5116,-0.914,91,14.778,285,8.5328,4.6097,-15.6923,0.0065,-0.3006,0.9105,93,14.907,287,5.4534,-0.6743,-8.2823,-0.9214,-0.4055,-0.98,63
15.221,293,11.8346,-1.3409,-8.5004,0.1026,0.6834,1.3352,86,14.807,285,1.4213,-1.8755,-8.9586,-0.0786,0.1036,-0.348,91,14.831,286,11.4933,5.408,-13.3603,0.4276,-0.5877,0.5954,93,14.959,288,9.0975,-5.7889,-3.4371,0.0022,-0.0032,-1.0495,63
15.273,294,7.9891,-0.7725,-7.6395,0.7493,0.1682,1.5225,86,14.859,286,2.1286,-1.1367,-9.4656,0.6144,0.6988,0.313,91,14.882,287,11.9994,5.0799,-12.9596,0.0267,-0.6416,0.1518,93,15.011,289,11.757,1.0671,-3.9866,0.2038,-0.2083,-1.0324,63
15.325,295,0.3781,2.5466,-8.2038,0.9265,-0.4247,1.0205,86,14.911,287,3.1489,0.9478,-8.5807,1.1201,1.1891,0.584,91,14.934,288,10.6114,4.9294,-12.6914,0.696,-0.7606,-0.5632,93,15.063,290,13.0242,-4.5179,-3.8377,0.2423,-0.0184,-0.3496,63
15.377,296,-0.3413,-0.4211,-7.7134,0.6714,-0.1354,0.0889,86,14.962,288,2.231,1.761,-7.9758,0.6613,1.0502,0.5565,91,14.986,289,9.4508,7.2121,-10.9371,1.1835,-0.7888,-1.0787,93,15.114,291,11.8969,-1.6869,-4.4622,-0.2968,-0.1434,-0.0112,63
15.428,297,0.846,1.1557,-6.1617,1.1644,-0.0013,-0.6102,86,15.014,289,6.5474,3.7913,-5.5161,0.0154,0.1555,1.0023,91,15.038,290,8.0205,5.278,-10.6847,0.1885,-0.4595,-1.385,93,15.166,292,10.616,-2.6584,-7.5123,-0.8937,-0.2497,0.2753,63
15.48,298,2.3485,1.1248,-5.3424,0.1866,0.6454,-0.9499,86,15.066,290,9.6977,7.7871,-4.278,0.6829,-0.0076,1.074,91,15.09,291,6.2217,1.6401,-12.6158,-0.218,-0.5663,-1.6473,93,15.218,293,8.0342,-4.8374,-8.059,-0.0805,-0.1829,0.8152,63
15.532,299,5.6874,-0.1037,-4.2916,-0.1856,1.0345,-0.8261,86,15.118,291,8.9662,8.2568,-3.9004,0.9968,0.2645,0.6829,91,15.141,292,9.8066,-4.04,-6.6235,0.3346,-0.2902,-0.7506,93,15.27,294,6.6429,-3.432,-7.2949,0.6159,0.5189,1.2753,63
15.584,300,9.2077,0.035,-4.0428,-0.8105,1.0527,-0.0517,86,15.17,292,2.0189,5.1828,-4.4585,0.5781,0.1774,0.7095,91,15.193,293,9.9747,1.4608,-10.405,-0.41,-0.5614,-0.3664,93,15.321,295,5.8237,2.7873,-10.1916,0.5497,0.7059,1.495,63
15.635,301,11.777,-2.8342,-3.7959,-0.5193,0.5942,0.6389,86,15.221,293,0.08,4.5956,-5.4592,-0.062,-0.4669,0.7386,91,15.245,294,9.6263,-3.7706,-13.3823,-0.3946,0.0127,-0.6401,93,15.373,296,9.3677,3.9229,-7.2886,-0.2759,0.5485,1.3869,63
15.687,302,6.3811,1.2974,-5.1771,0.1394,0.6166,1.143,86,15.273,294,0.088,3.9054,-6.1546,-0.7253,-0.5327,0.7089,91,15.296,295,12.2914,-1.8764,-12.3769,-0.8383,0.6876,-0.7108,93,15.425,297,11.9542,1.8474,-9.3512,0.437,0.5061,1.0337,63
15.739,303,1.3271,1.9099,-6.9537,-0.5616,0.166,1.0563,86,15.325,295,1.1184,2.985,-6.3711,-1.2093,-0.7028,0.5194,91,15.349,296,11.1912,-1.8368,-17.0381,-1.287,1.1802,0.1387,93,15.477,298,12.6689,0.0581,-8.0635,-0.2048,0.9238,0.7868,63
15.791,304,0.2223,1.0988,-6.9885,0.1816,-0.1995,0.6785,86,15.377,296,2.2871,0.2144,-8.1939,-0.9841,0.1043,0.4357,91,15.401,297,8.2419,-4.3337,-19.731,-1.173,0.188,0.4649,93,15.529,299,10.8679,3.8245,-9.7509,-0.019,0.9301,0.3841,63
15.843,305,1.106,0.213,-6.7146,0.1496,-0.3915,0.7401,86,15.429,297,6.5883,2.8562,-9.0429,-0.0465,-0.089,0.4541,91,15.452,298,8.4104,-2.9956,-19.2491,-0.1795,-0.5362,0.4969,93,15.58,300,10.4762,3.8315,-7.9411,-0.6909,0.8427,-0.3681,63
15.894,306,2.7204,-1.5373,-5.3807,0.6404,-0.3485,1.1364,86,15.481,298,9.7275,5.7387,-7.4345,0.2267,0.2521,0.0771,91,15.504,299,6.059,-0.859,-12.0529,0.5455,-1.0618,0.5815,93,15.632,301,8.1202,1.6942,-7.4065,-0.0901,1.3,-0.9263,63
15.946,307,4.5735,-3.6496,-3.6224,1.1136,-0.2463,1.506,86,15.532,299,4.2709,1.1293,-5.6162,-0.3097,0.8464,-0.2941,91,15.556,300,6.2486,4.725,-13.7992,0.1526,-0.3698,0.6772,93,15.684,302,6.4743,2.289,-9.5969,0.6089,1.535,-1.3474,63
15.998,308,8.3947,-6.4961,-3.1896,0.8882,-0.6473,1.1574,86,15.584,300,0.2971,1.4486,-4.2571,0.3001,0.1148,0.1316,91,15.608,301,9.8263,2.4477,-14.6871,-0.0218,-0.3457,0.3694,93,15.736,303,6.3962,0.8489,-13.9524,1.1191,1.0607,-1.6547,63
16.05,309,11.1836,-7.925,-4.731,-0.0291,-1.1418,0.6612,86,15.636,301,-0.3588,2.1144,-4.6431,0.0249,-0.3444,0.5715,91,15.659,302,12.4374,3.0023,-15.0492,0.2142,-0.9028,0.1486,93,15.788,304,9.7855,-4.6772,-15.3904,0.2368,0.7485,-1.1525,63
16.102,310,6.1287,-2.3496,-7.3408,0.6531,-0.8171,0.4653,86,15.688,302,3.1552,2.3998,-4.9746,0.3083,0.1666,0.7923,91,15.711,303,10.9113,2.9247,-14.0107,-0.3199,-0.534,0.0456,93,15.839,305,12.2592,-8.7104,-17.0166,-0.0899,0.5785,-0.9326,63
16.153,311,3.3552,0.9383,-7.4989,0.2434,-0.9697,-0.3355,86,15.74,303,3.565,2.4435,-4.9216,0.2342,0.8007,0.2094,91,15.763,304,8.2836,3.127,-15.154,0.4247,-0.3592,-0.4396,93,15.891,306,13.0668,-5.5058,-12.8598,-0.2424,1.0772,-0.4297,63
16.205,312,2.7741,1.5965,-6.8389,-0.0166,-1.0825,-0.92,86,15.791,304,3.6603,1.9449,-4.8874,-0.5038,1.2634,-0.3281,91,15.815,305,7.4464,6.9641,-12.0587,0.0813,0.0199,-0.7964,93,15.943,307,12.5754,-3.8872,-13.165,-0.7924,0.8877,0.2251,63
16.257,313,4.0327,0.7978,-5.9703,-0.6895,-1.0467,-1.3466,86,15.843,305,7.5905,3.4165,-4.0349,-0.7758,0.9913,-0.5419,91,15.867,306,6.7737,6.2255,-10.6983,-0.6158,0.6193,-1.1241,93,15.995,308,10.1283,-6.7663,-14.5913,-0.1175,0.4131,0.8447,63
16.309,314,4.1581,0.1136,-6.2565,-1.1806,-0.5539,-1.6579,86,15.895,306,10.459,4.6074,-3.8849,-0.8572,0.3901,-0.7968,91,15.919,307,6.1906,1.3324,-12.2004,0.1474,0.9134,-1.4924,93,16.046,309,7.0803,-3.0044,-11.491,0.0502,-0.0497,1.2968,63
16.361,315,7.0271,-0.4968,-6.3952,-1.539,-0.3694,-1.8851,86,15.947,307,9.2356,3.0539,-3.9923,-0.2913,-0.3449,-1.1273,91,15.97,308,-0.806,-1.1662,-16.9093,0.7841,0.1662,-1.7614,93,16.098,310,5.1251,-2.719,-10.536,-0.6353,-0.3312,1.6006,63
16.412,316,10.1855,-0.1946,-7.9009,-1.8006,-0.2163,-1.4683,86,15.999,308,1.0706,1.1215,-5.5981,0.0967,-0.1641,-0.8419,91,16.022,309,4.6775,-1.8051,-15.4308,0.0707,-0.5521,-1.151,93,16.15,311,4.368,2.1134,-15.6708,-0.7222,-0.7724,1.7002,63
16.464,317,12.4906,-0.5472,-7.1051,-0.799,-0.6908,-0.4317,86,16.051,309,-0.7783,1.527,-5.2367,-0.181,-0.7924,-0.5504,91,16.074,310,8.6796,1.5691,-17.4571,-0.0755,-0.0809,-0.9764,93,16.202,312,8.3053,2.1263,-12.514,-1.1068,-1.0967,1.0259,63
16.516,318,6.9951,1.9235,-6.2927,0.0913,-0.4167,0.3615,86,16.103,310,0.1379,2.7591,-4.8861,-0.7356,-1.251,-0.461,91,16.126,311,9.7178,1.4645,-13.8898,-0.4322,0.6193,-0.5723,93,16.254,313,11.1788,2.4254,-14.6496,-0.1345,-0.6272,0.5971,63
16.568,319,4.233,2.4113,-7.7432,-0.287,-0.5572,0.1722,86,16.154,311,1.7885,2.9,-4.7096,-1.2169,-1.3726,-0.5208,91,16.178,312,7.3478,-2.5142,-15.1168,-0.9907,0.9821,0.0438,93,16.306,314,13.2761,-1.4544,-11.7981,0.5397,0.2272,0.293,63
16.62,320,3.6718,3.1854,-8.0114,-0.8478,-0.5206,0.2006,86,16.206,312,4.885,2.883,-4.9146,-1.5682,-1.4979,-0.5202,91,16.229,313,7.2444,-5.7783,-15.2,-1.3983,0.8848,0.7097,93,16.357,315,9.5055,4.2306,-16.592,0.8099,0.3905,0.1512,63
16.671,321,3.901,3.0538,-7.7833,-1.2768,-0.2416,0.3895,86,16.258,313,8.4844,2.3156,-7.8451,-1.3705,-1.2523,-0.4391,91,16.281,314,5.9213,-6.1767,-13.944,-1.6957,0.1977,1.1957,93,16.409,316,8.4527,5.6944,-16.9757,-0.086,-0.3818,-0.4267,63
16.723,322,3.7076,3.4277,-7.7224,-1.2212,0.1524,0.4403,86,16.31,314,10.5774,2.79,-8.718,-0.3285,-0.2349,-0.8302,91,16.333,315,5.4644,-2.2438,-11.9696,-1.3881,-0.333,1.5504,93,16.461,317,8.238,3.9148,-14.4522,-0.7398,-0.9455,-0.9393,63
16.775,323,7.7628,2.278,-7.8569,-1.5324,-0.0135,-0.1096,86,16.362,315,4.3649,-1.3103,-10.0903,-0.7388,0.5076,-0.9452,91,16.385,316,4.601,3.7143,-13.211,-1.2949,0.4353,1.3591,93,16.513,318,5.7298,0.6971,-10.7991,-0.961,-0.5815,-1.0867,63
16.827,324,10.7224,0.5052,-7.6172,-1.7958,0.0804,-0.6608,86,16.413,316,2.5562,-2.6829,-9.818,0.1325,1.0092,-0.4485,91,16.436,317,8.6238,-2.2628,-8.8564,-0.2686,0.7403,0.6516,93,16.565,319,9.2991,-1.727,-5.2739,-0.0267,-0.8887,-0.8448,63
16.878,325,7.6528,-3.4899,-6.1849,-1.1985,0.126,-0.3524,86,16.465,317,2.0685,-0.6787,-8.3261,0.5423,1.011,-0.0803,91,16.488,318,10.4624,0.2231,-9.2486,-0.8712,0.3416,0.3728,93,16.616,320,11.9042,3.6843,-4.9482,-0.0232,-0.8186,-0.8818,63
16.93,326,3.2539,-1.3871,-6.5568,-0.2003,-0.549,-0.2307,86,16.517,318,1.8067,-0.5763,-7.5223,0.1023,1.0062,0.2512,91,16.54,319,9.0501,1.4364,-8.9801,0.0407,0.1046,-0.4019,93,16.668,321,11.8982,-0.339,-4.2173,0.193,-0.5004,-0.1904,63
16.982,327,2.8849,-1.0106,-6.9776,-0.1326,-0.1973,-0.7132,86,16.569,319,1.9318,-0.0344,-6.921,-0.4342,1.0209,0.5062,91,16.592,320,8.8273,5.7604,-8.5295,0.7062,-0.2023,-0.9674,93,16.72,322,10.5887,0.1934,-7.5521,-0.3286,-0.3655,0.1142,63
17.034,328,2.4413,-1.093,-6.5908,-0.6117,0.2148,-0.8114,86,16.621,320,6.329,0.8189,-7.2074,-0.9653,0.3154,1.0348,91,16.644,321,7.6401,3.6449,-9.3157,-0.1598,-0.1409,-1.3316,93,16.772,323,8.7376,-1.646,-8.1148,-0.9169,-0.0941,0.3911,63
17.086,329,1.7443,-1.487,-6.4531,-0.5206,0.6682,-0.7415,86,16.672,321,9.5383,4.3225,-7.8342,-0.4722,-0.4425,1.212,91,16.695,322,6.1233,0.3026,-11.1378,0.5599,-0.4596,-1.6459,93,16.824,324,6.7187,-2.2284,-8.0424,0.0055,0.1514,0.9101,63
17.137,330,3.3918,-0.9617,-5.6057,-0.8758,0.8479,-0.6934,86,16.724,322,10.9808,2.9313,-8.6387,0.2916,-0.5795,0.6419,91,16.747,323,9.0242,-3.02,-7.8986,1.0852,-1.0088,-1.5303,93,16.875,325,5.773,-1.8634,-7.8335,0.6787,0.5769,1.3113,63
17.189,331,7.5323,0.386,-5.8072,-1.3147,0.4987,0.1044,86,16.776,323,6.1545,0.6625,-8.9994,0.8845,-0.2185,0.8151,91,16.799,324,11.852,-1.9938,-11.2717,0.3827,-1.2832,-0.6713,93,16.927,326,4.9701,3.9322,-9.8693,-0.1579,0.7151,1.3633,63
17.241,332,10.5542,-1.123,-5.5148,-1.1215,0.0533,0.7529,86,16.828,324,5.6941,-0.6619,-8.5265,1.3173,-0.8187,1.251,91,16.851,325,12.7114,-2.7493,-13.8831,0.3865,-0.8987,-0.5476,93,16.979,327,6.6548,4.6344,-12.3535,-0.771,0.4602,1.0325,63
17.292,333,9.5647,-1.3105,-6.1786,-0.1441,0.0949,1.2261,86,16.88,325,5.4015,-1.167,-7.4692,1.6332,-0.7263,1.5784,91,16.903,326,14.5431,0.2572,-13.5574,-0.3748,0.0225,-0.2671,93,17.031,328,9.9742,4.0272,-13.0815,-0.1356,-0.0189,0.9029,63
17.344,334,3.8554,-0.691,-5.3675,0.5438,-0.0974,1.5715,86,16.931,326,4.7734,-1.3331,-6.8772,1.7101,-0.4479,1.8174,91,16.955,327,12.2945,-5.0493,-14.6659,-0.9488,0.6871,0.2723,93,17.082,329,12.3969,-0.4534,-11.3232,-0.4836,0.4736,0.7504,63
17.396,335,1.3788,-0.5238,-4.7332,1.0712,-0.1236,1.8236,86,16.983,327,6.0258,-0.4665,-6.8674,1.9198,0.1965,1.9918,91,17.006,328,9.8909,-6.8471,-15.8374,-1.3677,-0.1025,0.8765,93,17.134,330,10.0509,3.0165,-12.6483,0.32,0.7172,0.3078,63
17.448,336,1.0728,-1.2749,-3.9609,1.4562,0.0959,2.0076,86,17.035,328,9.317,1.7089,-7.8991,1.2821,0.4135,2.1191,91,17.058,329,9.8864,-8.5515,-17.317,-0.7433,-0.7482,1.0416,93,17.186,331,9.6486,7.4937,-11.5886,0.2414,0.5669,-0.4468,63
17.5,337,2.4969,-2.4485,-2.9307,1.7372,0.499,2.0712,86,17.087,329,11.719,1.4605,-8.5238,0.7513,0.2768,0.8788,91,17.11,330,8.0302,-2.7845,-11.1593,0.134,-0.9561,1.1811,93,17.238,332,8.9711,8.2564,-10.546,0.8224,0.1732,-0.9975,63
17.552,338,4.2187,-4.2597,-2.1798,1.9422,0.9177,1.858,86,17.139,330,9.7199,0.4759,-8.011,-0.1317,0.3824,-0.045,91,17.162,331,7.3496,3.3196,-15.8706,-0.4987,-0.103,1.3604,93,17.29,333,6.7308,4.7981,-8.876,0.9606,0.3031,-1.3994,63
17.604,339,5.9699,-4.1012,-3.8391,1.3785,1.288,1.4692,86,17.19,331,3.9042,-0.2567,-8.7696,0.1937,-0.2226,-0.4018,91,17.214,332,10.6298,7.7747,-18.7702,-0.8812,-0.497,1.033,93,17.341,334,4.485,-0.652,-9.6912,0.4614,0.6424,-1.6928,63
17.655,340,8.3117,-6.7342,-5.6288,0.5017,0.2775,1.0653,86,17.242,332,2.8438,0.4774,-9.1554,-0.0817,-0.1573,-0.4327,91,17.265,333,13.0238,7.9723,-16.7023,-0.5022,-0.5865,0.6003,93,17.393,335,8.3906,-5.7727,-6.3511,-0.3386,0.6866,-1.0664,63
17.707,341,7.318,-2.7027,-8.3366,1.0401,-0.4668,1.1745,86,17.294,333,3.26,0.3319,-9.9356,-0.7397,-0.3012,-0.6949,91,17.317,334,12.4608,7.0661,-16.283,-1.0274,-0.6868,0.5374,93,17.445,336,11.2411,-9.5099,-9.6323,-0.6181,0.4782,-0.7536,63
17.759,342,5.9028,-1.8222,-9.0222,0.3174,-1.0101,0.801,86,17.346,334,2.8575,-1.3898,-10.6136,-0.9914,-0.2275,-0.806,91,17.369,335,7.8208,7.0268,-16.656,-0.0733,-0.4469,-0.2757,93,17.497,337,10.8753,-6.2731,-9.4133,-0.5663,0.7899,-0.1482,63
17.811,343,6.444,-1.2527,-8.7358,-0.4457,-1.0909,0.1534,86,17.398,335,5.0576,-2.594,-11.054,-0.32,-0.7375,-0.5044,91,17.421,336,5.9273,8.6343,-13.7721,-0.7287,-0.1318,-0.811,93,17.549,338,8.5048,-7.7437,-9.2138,-1.0904,0.8629,0.4957,63
17.863,344,5.8352,-1.1364,-7.9921,-1.0027,-0.7184,-0.4659,86,17.45,336,8.6103,-0.855,-10.8096,0.2723,-1.0486,-0.7757,91,17.473,337,6.017,5.1107,-13.0885,-1.2071,0.5822,-1.1975,93,17.6,339,7.4088,-8.2701,-10.0371,-1.099,0.3631,0.965,63
17.914,345,4.9423,-1.5164,-7.6664,-1.4092,-0.1094,-0.9252,86,17.502,337,11.2033,-0.7025,-7.9998,-0.3444,-0.7295,-1.2372,91,17.524,338,5.0575,-0.0495,-14.9573,-0.2044,1.0648,-1.523,93,17.652,340,5.7694,-6.4996,-9.1262,-0.1274,-0.0832,1.3761,63
17.966,346,7.6605,-5.4211,-3.6643,-1.7059,-0.3097,-1.3504,86,17.553,338,7.7943,-1.1449,-6.0474,-0.1457,0.1467,-1.4254,91,17.576,339,8.9569,-3.5455,-8.3325,0.5273,0.1037,-1.0999,93,17.704,341,4.6818,-5.0928,-10.0136,0.5791,-0.4916,1.6847,63
18.018,347,10.6478,-9.1543,-1.4735,-1.9224,-0.2054,-1.1592,86,17.605,339,4.6283,1.6641,-6.5213,0.4245,0.0904,-0.8566,91,17.628,340,11.7428,2.7642,-14.0863,0.1227,-0.153,-0.9423,93,17.756,342,6.8241,1.5752,-7.0966,-0.2545,-0.9508,1.7884,63
18.07,348,10.1548,-9.1177,-2.3353,-2.0674,-0.3205,-0.3361,86,17.657,340,3.9806,4.0056,-7.0814,-0.3702,0.0735,-0.7113,91,17.68,341,13.8361,4.3675,-14.261,0.7052,0.469,-1.0488,93,17.808,343,10.0978,-4.1472,-7.7488,-0.2511,-0.9801,1.1194,63
18.122,349,4.0274,-4.0289,-4.19,-0.8345,-0.8223,-0.1363,86,17.709,341,3.956,3.5409,-8.1917,-0.9498,0.5748,-1.2055,91,17.732,342,11.4975,2.9779,-11.8667,-0.1605,1.0206,-0.4661,93,17.86,344,10.6645,-0.7532,-10.4456,0.3921,-0.1006,0.6342,63
18.173,350,1.2993,-2.1326,-6.6499,0.0653,-1.0863,-0.5234,86,17.761,342,4.0058,2.9816,-8.6119,-0.7378,0.9662,-1.5662,91,17.783,343,7.6739,-3.0637,-15.6688,-0.7924,0.5537,0.3326,93,17.911,345,10.8698,1.0629,-10.0935,0.9608,0.6116,0.3884,63
18.225,351,3.2307,-1.5888,-7.6088,0.3706,-0.9959,-0.9835,86,17.812,343,7.37,4.4918,-8.8735,-0.4718,0.5516,-1.8294,91,17.835,344,7.4509,-5.0759,-16.2039,-1.2531,-0.2488,0.9205,93,17.963,346,8.5323,5.9445,-15.3479,1.3759,0.3029,-0.0859,63
18.277,352,3.7763,-0.0475,-7.7722,-0.1376,-0.1893,-0.6184,86,17.864,344,10.298,5.0294,-10.8531,0.2532,0.5103,-1.5859,91,17.887,345,7.0082,-1.7404,-14.4818,-0.3906,-0.5308,1.3495,93,18.015,347,7.5015,5.8385,-17.7221,1.6789,-0.4457,-0.4511,63
18.329,353,4.8545,-0.8877,-7.5507,-0.7778,0.3195,-0.1406,86,17.916,345,8.161,4.9139,-7.4113,0.365,0.4612,-1.2245,91,17.939,346,7.0583,0.1722,-13.7144,0.3915,-0.5299,1.2623,93,18.067,348,6.6556,2.9204,-15.8275,0.5483,-0.9921,-0.5637,63
18.38,354,8.5998,-3.9874,-7.1802,-0.4286,0.2753,-0.4595,86,17.968,346,4.569,2.009,-7.8946,-0.4136,-0.3356,-0.905,91,17.991,347,9.7861,5.4776,-18.0143,0.2975,-0.888,0.6852,93,18.119,349,3.398,-1.0487,-9.8867,-0.2769,-1.0105,-0.5935,63
18.432,355,11.3333,-5.5991,-7.205,-0.9902,0.2471,-0.5295,86,18.02,347,2.9061,-0.0239,-7.75,-0.1901,-0.3835,-0.4993,91,18.042,348,12.4081,1.7882,-17.3872,0.5141,-0.7735,0.3837,93,18.17,350,7.5973,-6.0622,-4.608,0.4726,-0.3768,-0.958,63
18.484,356,6.7496,-6.7167,-6.867,-1.0087,0.2111,-0.2456,86,18.071,348,2.3638,1.2706,-6.6425,-0.1185,-0.4081,-0.2255,91,18.094,349,12.1825,2.4362,-16.4876,0.3472,-0.547,-0.1551,93,18.222,351,10.6621,0.8677,-6.8715,-0.3322,0.2585,-0.8045,63
18.536,357,3.051,-5.5363,-7.5972,-0.0618,-0.0095,-0.0173,86,18.123,349,2.6931,1.5697,-6.5604,-0.7665,-0.5484,-0.021,91,18.146,350,10.0166,2.2045,-14.5956,0.93,-0.5806,-0.7873,93,18.274,352,11.2496,-1.6838,-6.5507,0.4322,0.586,-0.2649,63
18.587,358,1.7779,-3.7188,-7.7991,0.6293,-0.1655,0.1191,86,18.175,350,5.5883,1.8469,-6.7834,-0.3427,-0.4566,0.1486,91,18.198,351,8.6664,1.5501,-13.2283,1.3553,-0.9132,-1.2486,93,18.326,353,8.7408,-0.212,-8.2753,-0.0867,0.3981,0.0099,63
18.639,359,3.1149,-3.1064,-7.4103,0.5703,0.0595,0.2043,86,18.227,351,8.1943,3.4808,-6.383,0.3283,-0.5111,0.4023,91,18.25,352,7.2799,-2.0263,-9.5441,1.4592,-0.474,-1.0509,93,18.378,354,6.3587,-1.3775,-7.9207,-0.7403,0.3758,0.3493,63
18.691,360,5.3361,-3.1074,-6.7666,0.3941,0.3258,0.2832,86,18.279,352,7.7881,3.9856,-6.0888,0.4455,-0.4889,0.5331,91,18.301,353,9.6987,-5.2162,-8.1155,0.9375,-0.3526,-0.5508,93,18.429,355,4.9579,0.4289,-9.1794,-1.015,0.6911,0.6815,63
18.743,361,8.0116,-3.9581,-6.3617,0.2335,0.5459,0.3464,86,18.33,353,7.0998,4.3343,-6.0373,0.1663,-0.6239,0.4109,91,18.353,354,11.4321,-4.7811,-8.1118,0.4618,-0.3416,-0.3899,93,18.481,356,4.1086,2.9864,-14.6807,-0.9847,0.4458,0.5642,63
18.795,362,8.9944,-4.227,-5.9014,0.0199,0.6176,0.423,86,18.382,354,7.4457,4.329,-5.9747,-0.217,-0.6588,0.1798,91,18.405,355,12.942,-1.9607,-10.3941,0.9456,-0.0121,-0.6027,93,18.533,357,7.1684,3.581,-13.0645,-0.8939,0.1653,0.3752,63
18.846,363,8.0292,-4.5124,-6.0317,-0.1389,0.557,0.6404,86,18.434,355,8.0911,4.634,-5.9717,-0.284,-0.5345,-0.1395,91,18.457,356,10.7915,-1.2128,-10.0896,0.1461,0.2676,-0.3971,93,18.585,358,8.9163,2.2262,-12.6333,-0.6085,0.4069,0.3279,63
