right_hand_timestamp,right_hand_index,right_hand_accel_x,right_hand_accel_y,right_hand_accel_z,right_hand_gyro_x,right_hand_gyro_y,right_hand_gyro_z,right_hand_battery_percentage,left_hand_timestamp,left_hand_index,left_hand_accel_x,left_hand_accel_y,left_hand_accel_z,left_hand_gyro_x,left_hand_gyro_y,left_hand_gyro_z,left_hand_battery_percentage,right_leg_timestamp,right_leg_index,right_leg_accel_x,right_leg_accel_y,right_leg_accel_z,right_leg_gyro_x,right_leg_gyro_y,right_leg_gyro_z,right_leg_battery_percentage,left_leg_timestamp,left_leg_index,left_leg_accel_x,left_leg_accel_y,left_leg_accel_z,left_leg_gyro_x,left_leg_gyro_y,left_leg_gyro_z,left_leg_battery_percentage
0.148,2,7.3078,-4.6262,-7.648,1.097,-1.0687,0.734,75,0.113,2,10.0351,3.9,-4.8422,0.2525,0.5705,-1.5177,77,0.586,11,6.2427,1.9104,-13.2834,0.3448,-1.0868,0.3183,73,0.047,0,7.9044,2.9347,-9.6421,0.5644,0.112,-1.0376,39
0.199,3,6.9723,-4.5109,-7.5851,1.0017,-0.8466,0.5087,75,0.165,3,6.811,-0.7049,-7.0962,0.627,0.191,-1.0394,77,0.637,12,5.1828,3.5143,-10.7362,-0.2114,-0.518,0.5188,73,0.099,1,6.0118,0.8242,-9.6115,0.9501,0.4176,-1.4211,39
0.251,4,6.7748,-4.682,-7.3032,0.941,-0.6889,0.2002,75,0.216,4,4.6678,-1.8151,-8.8767,0.7192,-0.2728,-0.0932,77,0.689,13,4.9537,4.9691,-8.5642,-0.8262,-0.084,0.6389,73,0.151,2,4.9096,-3.1958,-9.7963,0.491,0.4586,-1.1213,39
0.303,5,6.8844,-4.7996,-6.8711,1.0247,-0.6185,-0.1346,75,0.268,5,3.2555,-0.7905,-9.5998,1.1941,-0.4935,0.5974,77,0.741,14,4.4347,5.2391,-12.011,-0.3628,-0.7347,0.5127,73,0.203,3,4.0971,-4.3242,-9.2065,-0.0105,0.3045,-0.5626,39
0.355,6,6.9751,-4.4235,-7.0661,1.2708,-0.7483,-0.4435,75,0.32,6,2.3996,0.31,-9.7677,1.5432,-0.5117,1.1014,77,0.793,15,8.5024,3.5652,-14.0002,-0.657,-1.1814,0.6025,73,0.255,4,8.1075,0.9899,-4.1116,-0.6841,0.0558,-0.2224,39
0.383,7,0.0125,-2.2365,-8.1941,-0.58,1.1068,-0.4492,75,0.631,12,4.3923,0.7123,-7.596,-0.4384,-0.4085,0.3034,77,1.104,21,2.8863,-3.4451,-15.0598,0.5218,0.6454,-0.6872,73,0.566,10,5.2248,1.4952,-8.6027,-0.8228,0.1615,1.6233,39
0.435,8,1.0886,-2.9731,-6.2536,-0.3266,0.1686,-0.2986,75,0.682,13,3.7702,1.2984,-6.8325,-1.0,-0.3687,0.607,77,1.156,22,7.3723,-7.7514,-8.4073,0.6033,-0.0363,-0.3213,73,0.617,11,3.5577,-0.9761,-11.4985,-1.2776,-0.2916,1.56,39
0.486,9,5.8521,-2.5313,-8.9977,-0.2199,-0.4528,-0.5399,75,0.734,14,3.173,0.7247,-6.4864,-1.0679,0.1275,0.6905,77,1.207,23,10.6464,-0.3054,-7.8171,-0.0161,0.3135,-0.2206,73,0.669,12,7.114,1.3686,-11.3953,-0.2577,0.1342,0.6293,39
0.538,10,9.3287,-4.8541,-10.2069,-0.8378,-0.0693,-0.971,75,0.786,15,2.7399,0.6907,-6.688,-0.1077,0.7721,0.2817,77,1.259,24,12.837,0.7945,-8.773,0.0192,0.3791,-0.2708,73,0.721,13,10.3094,-0.7186,-11.0699,0.0121,0.5628,0.6463,39
0.59,11,7.2464,-5.1503,-9.0787,0.0031,0.0269,-0.7331,75,0.838,16,6.9196,2.0733,-7.7364,0.4461,1.2426,-0.4808,77,1.311,25,8.6591,-0.3553,-13.7533,-0.6612,0.202,0.3348,73,0.773,14,11.7674,-0.6619,-13.617,0.6835,1.0957,-0.0379,39
0.642,12,-0.2436,-0.7283,-7.5006,0.2433,0.1405,-0.1629,75,0.89,17,9.9701,4.4482,-8.5724,0.0722,1.2893,-1.0373,77,1.363,26,9.2469,-3.1325,-13.6609,-0.8549,-0.526,0.9192,73,0.825,15,10.7564,4.3032,-15.7167,1.1735,0.1329,-0.3696,39
0.694,13,0.0325,-0.8175,-7.9425,-0.1357,-0.2048,-0.5884,75,0.941,18,11.4525,3.3737,-7.6798,-0.6273,0.3488,-1.4415,77,1.414,27,7.0711,-2.1829,-11.7105,0.0519,-0.9444,1.3486,73,0.876,16,9.9071,2.1487,-14.045,0.1794,-0.5698,-0.5102,39
0.745,14,0.3008,-1.7239,-7.482,-0.4469,0.0821,-0.7237,75,0.993,19,8.5285,-0.6766,-7.6413,-0.4854,-0.418,-1.7385,77,1.466,28,6.3711,1.6407,-10.6748,-0.6345,-0.6583,1.662,73,0.928,17,7.6695,0.5817,-9.83,-0.5074,-1.0814,-0.7148,39
0.797,15,0.1292,-1.5937,-7.5077,-0.5432,0.3073,-0.6129,75,1.045,20,4.1325,-1.751,-7.4749,-0.4317,0.1284,-1.1998,77,1.518,29,7.0023,4.9171,-10.0684,-0.8545,-0.769,1.2456,73,0.98,18,7.1315,-1.8256,-7.7682,-0.7654,-0.6692,-0.8861,39
0.849,16,1.2058,-1.0524,-7.7372,-0.3623,-0.4211,-0.1792,75,1.097,21,1.9918,-1.1042,-7.28,-0.0282,-0.2411,-0.6023,77,1.57,30,10.3764,-1.6483,-13.6012,0.0529,-0.2208,0.3751,73,1.032,19,3.6584,-5.6225,-13.6508,0.116,0.1039,-1.1594,39
0.901,17,5.9376,-0.8006,-11.1562,-0.9418,0.1545,0.0541,75,1.149,22,2.0603,0.1915,-7.1585,-0.1281,-0.6982,-0.3455,77,1.622,31,12.0378,4.1489,-13.8438,-0.6,0.5172,0.3653,73,1.083,20,7.7873,1.1886,-12.1647,-0.4913,-0.0351,-0.9515,39
0.953,18,9.3912,-2.9733,-10.9553,-1.2611,0.6246,-0.081,75,1.201,23,1.8298,0.4923,-6.584,-0.4884,-0.5291,-0.2504,77,1.673,32,14.0514,8.3799,-8.7926,-1.1131,1.055,0.7382,73,1.135,21,10.8008,-3.29,-12.0499,0.0849,-0.0299,-0.6359,39
1.005,19,6.1602,-2.1358,-9.7613,-0.338,1.1383,0.355,75,1.252,24,6.2554,2.1627,-7.2968,-1.0272,-0.8685,-0.0052,77,1.725,33,11.9554,0.879,-7.9765,-0.1375,1.0761,-0.134,73,1.187,22,8.7627,-2.6417,-16.7335,-0.5333,0.1515,-0.1703,39
1.056,20,-0.7753,-0.9208,-10.3329,-0.2823,0.742,-0.0662,75,1.304,25,9.4853,2.9483,-11.5284,-0.405,-0.5083,0.2778,77,1.777,34,9.3958,2.8217,-7.0746,-0.3562,0.8711,-0.7718,73,1.239,23,8.1554,-7.2248,-13.4275,-0.1601,0.1642,0.4628,39
1.108,21,-0.5947,-1.9081,-9.7478,0.4682,0.0225,-0.4138,75,1.356,26,8.2829,3.686,-9.8332,-0.3557,-0.8364,0.3083,77,1.829,35,7.5392,-1.0347,-6.3302,0.3182,0.9225,-1.2373,73,1.29,24,5.7162,-4.6137,-11.4149,0.5578,0.8048,0.5923,39
1.16,22,-0.3943,-1.6469,-8.8878,1.0161,-0.018,-0.4123,75,1.408,27,5.9307,0.8775,-8.896,-0.9396,-1.2831,0.7197,77,1.881,36,6.6596,-2.5596,-8.0298,0.9088,0.8142,-1.5771,73,1.342,25,5.0573,-3.6269,-10.8413,1.0817,1.2723,0.5571,39
1.212,23,-0.4989,-0.5992,-8.3492,1.106,0.4914,-0.3435,75,1.46,28,4.5785,-0.926,-8.5435,-0.1955,-0.7776,0.8753,77,1.932,37,4.8464,-5.206,-10.6235,1.3398,-0.0065,-1.7761,73,1.394,26,4.0834,1.487,-13.6518,0.1124,1.6134,0.708,39
1.263,24,-0.2325,-0.7769,-8.8797,0.9253,0.113,-0.2453,75,1.512,29,3.2778,-0.6481,-9.0886,0.529,-0.1307,0.6306,77,1.984,38,8.8029,-5.5964,-7.7652,0.9464,-0.61,-1.1375,73,1.446,27,6.2397,-2.0951,-17.9449,-0.5951,0.9528,0.9228,39
1.315,25,4.8879,0.8822,-14.4773,0.1817,0.427,-0.0697,75,1.563,30,1.8771,-0.1512,-9.1699,1.0578,0.318,0.5482,77,2.036,39,11.6905,1.2674,-10.1395,0.4113,-0.7639,-0.8523,73,1.498,28,9.623,1.54,-19.6155,-0.183,0.1609,0.4246,39
1.367,26,8.625,-0.8097,-15.7895,-0.5255,-0.3577,0.294,75,1.615,31,0.7936,-0.5251,-9.1046,0.9852,0.6066,0.7404,77,2.088,40,13.798,2.0916,-11.3543,-0.0405,-0.0454,-0.4177,73,1.549,29,12.1406,1.6338,-18.3655,-0.387,0.3979,0.8996,39
1.419,27,8.0612,0.5571,-12.8189,0.0393,0.1283,0.5409,75,1.667,32,5.4271,-0.9742,-9.1476,0.4591,0.2684,0.9082,77,2.14,41,9.0193,-0.3857,-16.219,-0.7048,0.2525,0.3472,73,1.601,30,13.978,1.2875,-13.4047,0.1125,-0.374,0.3171,39
1.471,28,4.8448,0.7388,-11.9733,-0.4673,0.7761,0.3031,75,1.719,33,8.8809,0.1061,-10.8018,0.5004,-0.0677,0.9567,77,2.191,42,9.3967,-4.5378,-17.7641,-1.1896,-0.4891,0.9236,73,1.653,31,11.4259,3.9872,-16.3345,0.7568,-0.0634,-0.44,39
1.522,29,2.7047,-0.5986,-10.2655,-0.2263,-0.066,-0.2483,75,1.771,34,11.4015,2.0495,-10.0001,0.0211,-0.6828,0.6822,77,2.243,43,8.5848,-1.1582,-13.9157,-0.4804,-1.0304,1.3518,73,1.705,32,8.9318,7.1671,-14.3733,1.227,-0.3229,-0.9925,39
1.574,30,1.5718,-2.1365,-8.9169,0.4849,-0.3204,-0.3054,75,1.822,35,7.0994,0.1097,-8.2933,-0.6646,-1.171,0.0353,77,2.295,44,5.8633,0.1868,-9.1505,-0.6951,-0.7445,1.5842,73,1.757,33,9.1779,2.4818,-12.2298,1.4933,-0.6834,-1.3958,39
1.626,31,0.9538,-1.8865,-7.9407,1.0283,-0.3674,-0.0263,75,1.874,36,4.18,-0.8748,-7.1561,-0.8093,-1.5273,-0.0692,77,2.347,45,5.3838,5.4882,-14.6833,-1.0526,0.027,1.2847,73,1.808,34,8.2634,0.0965,-9.219,0.8924,-0.9229,-1.3516,39
1.678,32,1.805,-0.6602,-8.2423,0.9,-0.888,0.0582,75,1.926,37,3.7701,-0.8979,-7.344,-0.344,-1.0549,0.2035,77,2.399,46,6.7832,4.7611,-17.2697,-0.6786,0.6981,1.0676,73,1.86,35,9.1684,-5.2264,-9.6317,-0.0258,-1.0458,-0.9411,39
1.729,33,6.375,0.845,-13.522,0.5254,-0.1549,0.5768,75,1.978,38,2.9691,-0.8963,-8.4214,0.4207,-0.1649,-0.1978,77,2.451,47,7.8099,6.1811,-19.8616,-0.9688,0.9591,0.7183,73,1.912,36,11.8088,1.4777,-6.5151,-0.6959,-0.4163,-0.1618,39
1.781,34,9.7103,0.5483,-15.295,-0.2939,-0.1365,0.9077,75,2.03,39,2.3013,-1.2232,-9.0624,0.9788,0.45,-0.5899,77,2.502,48,10.9074,7.2565,-16.481,-1.2696,1.3783,0.8175,73,1.964,37,13.7359,-2.5004,-9.0544,0.0534,-0.0238,-0.1147,39
1.833,35,7.7618,0.7938,-12.7367,0.401,0.3188,0.7249,75,2.081,40,6.5995,-1.385,-10.5735,0.5092,0.2136,-0.433,77,2.554,49,9.0159,4.0017,-17.5293,-0.3244,1.6411,0.1955,73,2.015,38,14.775,-4.9768,-7.9934,-0.6064,0.6676,0.0581,39
1.885,36,4.1491,2.7196,-12.497,0.4679,0.9151,1.0147,75,2.133,41,9.7365,0.2428,-13.2214,0.3321,-0.0531,-0.1229,77,2.606,50,8.1012,8.2725,-13.7495,-0.8465,0.5404,-0.1931,73,2.067,39,11.1924,-1.748,-10.9143,-1.1197,0.72,0.7166,39
1.937,37,2.9283,1.8701,-11.2301,-0.2917,0.0423,0.2912,75,2.185,42,10.8949,1.2216,-11.4502,-0.2623,-0.4761,-0.2485,77,2.658,51,4.7731,3.7062,-11.8094,-1.293,1.0728,-0.1802,73,2.119,40,7.1159,-2.4708,-10.8043,-1.1489,0.5224,1.0115,39
1.988,38,2.6006,0.1568,-10.0888,-0.3202,-0.123,-0.0649,75,2.237,43,8.339,-0.5434,-10.5373,-0.5567,-0.2832,-0.3092,77,2.71,52,5.4645,1.5952,-11.5658,-0.9633,1.3936,-0.282,73,2.171,41,5.8357,-1.7827,-10.0945,-0.83,0.2852,1.0961,39
2.04,39,1.555,0.1482,-9.5205,-0.2067,0.3875,0.0427,75,2.289,44,5.4598,0.2534,-9.6286,0.056,0.1487,-0.0619,77,2.761,53,3.5875,0.6716,-14.4299,-0.0265,0.9447,-0.8585,73,2.222,42,4.5936,-1.5872,-9.8591,-1.0946,-0.2525,1.3031,39
2.092,40,1.2369,0.0499,-9.4971,0.0587,0.0187,0.0584,75,2.34,45,3.7637,1.2557,-9.1189,-0.3614,0.1461,0.2071,77,2.813,54,7.8841,-4.7469,-7.9475,0.6572,0.0161,-0.8657,73,2.274,43,5.2355,-0.4055,-12.1679,-1.476,-0.8344,1.4629,39
2.144,41,5.9604,0.0102,-10.8687,-0.0508,0.2134,-0.1913,75,2.392,46,2.4195,1.1462,-8.7595,-0.9438,0.1224,0.3861,77,2.865,55,11.0199,1.8874,-8.5658,0.6277,-0.3094,-0.7101,73,2.326,44,8.9384,4.9962,-13.6286,-0.9876,-0.8581,0.6825,39
2.196,42,9.4078,-2.3081,-10.9237,-0.418,0.512,-0.5636,75,2.444,47,1.4497,-0.2127,-8.8847,-0.9988,0.4954,0.328,77,2.917,56,13.3085,5.1633,-7.9031,-0.1838,-0.7416,-0.1157,73,2.378,45,11.6409,2.7669,-15.1111,-0.3591,-0.3274,0.8453,39
2.247,43,7.8154,-3.1582,-10.2988,0.1553,0.7986,-0.4366,75,2.496,48,5.8365,-1.1232,-9.5279,-0.7369,0.6063,0.1035,77,2.969,57,11.8838,2.4528,-12.5983,-0.8094,-0.0311,0.4869,73,2.43,46,13.6133,-2.5437,-10.2485,0.3386,0.1081,0.4492,39
2.299,44,0.1717,0.9328,-10.3916,0.3309,1.2653,-0.0031,75,2.548,49,9.1796,-0.9338,-13.014,0.1339,1.1216,-0.1839,77,3.02,58,10.8221,0.6132,-11.7837,-0.797,-0.4148,1.0203,73,2.481,47,8.2513,0.1891,-15.461,0.8289,0.0559,0.0351,39
2.351,45,0.7587,0.6976,-9.7902,0.1819,0.2541,-0.3445,75,2.6,50,10.6334,0.1815,-10.4061,0.3038,0.235,-0.5998,77,3.072,59,7.8943,1.6589,-9.6936,-0.9327,-0.4373,1.4224,73,2.533,48,7.4063,1.2409,-15.4035,0.1358,-0.626,-0.2644,39
2.403,46,0.8059,-0.5726,-9.4884,0.0408,0.6588,-0.1575,75,2.651,51,5.7221,-0.1629,-7.6467,0.3566,0.401,-0.2752,77,3.124,60,6.8208,3.1598,-9.5637,-1.0696,-0.1568,1.4846,73,2.585,49,6.0232,-1.6594,-12.1064,0.7268,-1.1237,-0.7111,39
2.455,47,0.0603,-0.5246,-9.2208,-0.0445,0.905,0.0647,75,2.703,52,3.0592,0.8355,-6.8893,-0.0343,-0.2963,-0.1309,77,3.176,61,5.3234,4.034,-9.421,-0.9454,-0.0969,1.1673,73,2.637,50,4.1792,-1.0827,-9.5893,0.5515,-1.0982,-0.7774,39
2.506,48,-0.0696,-1.0976,-9.1314,-0.0163,0.4458,0.1839,75,2.755,53,1.7449,1.5163,-6.7612,-0.2713,-0.1176,0.0301,77,3.228,62,9.151,3.3455,-4.2918,-0.038,-0.7441,0.4777,73,2.689,51,4.3897,-3.9901,-6.3224,-0.0276,-0.6983,-0.7607,39
2.558,49,5.0068,-2.0128,-7.1489,0.3097,-0.344,0.2275,75,2.807,54,1.4632,1.2422,-7.2422,-0.4153,0.1367,-0.1522,77,3.279,63,11.9445,4.8189,-7.412,-0.5385,-1.2165,0.6182,73,2.74,52,8.3211,0.8135,-2.0066,-0.3759,-1.1765,-0.3288,39
2.61,50,8.7118,-1.5656,-8.9492,-0.0445,0.2538,0.2199,75,2.859,55,1.0426,0.6943,-7.9692,0.0833,0.7087,-0.439,77,3.331,64,13.9834,-0.5928,-9.0902,-0.4281,-0.4494,0.5668,73,2.792,53,11.1904,4.2921,-7.6108,-0.2669,-0.6816,-0.1555,39
2.662,51,9.579,-2.0768,-8.117,-0.6311,0.6775,0.3821,75,2.91,56,2.1791,0.9273,-7.8695,0.3483,0.9484,-0.7441,77,3.383,65,14.5747,0.6415,-7.1854,-0.7561,0.3503,0.7711,73,2.844,54,13.2845,3.6322,-9.1613,-0.5618,-0.2595,-0.0039,39
2.714,52,6.8952,-0.445,-8.4294,-0.4786,1.1769,0.6252,75,2.962,57,6.5103,2.2359,-7.6067,0.6578,1.3361,-1.0574,77,3.435,66,11.3613,-1.0997,-12.5498,0.1247,0.7612,-0.0416,73,2.896,55,11.5998,2.3197,-14.6675,-0.0339,0.3725,0.0342,39
2.765,53,2.7508,-1.4559,-9.5736,-0.3005,0.2555,0.1148,75,3.014,58,9.6714,4.2222,-7.6728,-0.1023,0.4345,-0.8753,77,3.486,67,8.6065,0.1293,-11.2985,0.7191,0.6103,-0.6616,73,2.947,56,9.4998,-0.53,-14.5084,-0.7018,0.1544,0.41,39
2.817,54,2.3782,-1.7718,-9.272,0.3443,-0.4316,-0.1884,75,3.066,59,7.7623,2.8046,-6.2342,-0.6564,-0.2515,-0.5352,77,3.538,68,6.5938,-0.7973,-10.5044,1.0469,0.2314,-1.1003,73,2.999,57,6.9826,0.3656,-11.3048,0.1625,0.5408,0.6844,39
2.869,55,1.8177,-1.585,-8.5509,0.4013,0.3133,-0.3852,75,3.118,60,3.6712,1.8246,-5.9469,-0.7756,-0.3456,-0.2581,77,3.59,69,5.3531,-2.944,-11.709,1.4406,-0.2982,-1.3306,73,3.051,58,5.5702,2.4648,-11.3345,-0.1174,1.0662,0.8881,39
2.92,56,-1.1031,-2.0477,-9.3332,-0.1504,0.9111,-0.3814,75,3.169,61,2.5525,1.5577,-6.8191,-0.0418,-0.1343,0.0372,77,3.642,70,4.6998,0.0954,-15.4804,1.1764,-0.8905,-1.1725,73,3.103,59,3.9845,5.7181,-13.1856,-0.7628,0.7823,0.8484,39
2.972,57,0.3809,-3.294,-8.2694,-0.0894,0.0003,-0.0472,75,3.221,62,2.4018,2.0104,-7.2455,0.4272,0.0516,0.028,77,3.694,71,8.6959,-5.1674,-14.2555,0.2002,-0.8226,-0.6778,73,3.155,60,7.7437,9.4654,-10.8966,-0.6935,-0.0958,1.1531,39
3.024,58,5.3356,-0.3679,-10.7218,0.3198,0.5707,0.5255,75,3.273,63,1.609,0.8445,-7.4772,0.5784,0.305,-0.3021,77,3.745,72,11.6124,-3.39,-16.0269,0.3646,-0.1032,-0.6538,73,3.206,61,10.769,6.8499,-12.4234,-0.4321,-0.491,0.8249,39
3.076,59,8.9518,-1.3793,-10.2959,-0.444,1.0557,0.2069,75,3.325,64,1.2933,-0.8571,-7.4799,0.4147,0.4271,-0.0502,77,3.797,73,13.512,-3.6338,-14.7272,-0.1462,0.603,-0.3827,73,3.258,62,12.977,4.892,-13.1936,-0.3092,-0.1274,0.7518,39
3.128,60,6.387,-1.9242,-8.5202,-0.6731,1.4381,-0.37,75,3.377,65,5.8638,0.9153,-6.4417,0.0919,0.1754,0.1221,77,3.849,74,9.5435,-2.8439,-18.7534,-0.7819,0.2943,0.0918,73,3.31,63,13.4257,3.1778,-10.8871,0.3502,0.5169,0.2756,39
3.179,61,2.7045,-1.5531,-10.021,0.1831,0.4129,0.0096,75,3.428,66,9.1995,3.9806,-6.6144,-0.0857,0.0879,0.1534,77,3.901,75,8.7989,-4.2456,-16.186,-0.8042,-0.4586,0.2175,73,3.362,64,10.163,3.8492,-11.5652,0.9302,0.6065,-0.2774,39
3.231,62,2.8209,-2.0061,-10.276,0.808,-0.368,-0.3066,75,3.48,67,8.5506,4.6705,-5.9426,-0.7426,-0.023,0.1323,77,3.953,76,5.8827,-1.2562,-11.7758,-0.7023,-0.4807,0.5546,73,3.414,65,6.6101,1.9989,-9.8988,1.3536,0.6988,-0.8738,39
3.283,63,2.6602,-1.4973,-9.8184,1.2564,0.3218,-0.2234,75,3.532,68,4.6519,1.9028,-7.1155,-0.9297,-0.1816,0.1666,77,4.005,77,5.6265,-1.0249,-9.7333,-0.1408,-0.2962,0.7126,73,3.465,66,5.3332,0.6015,-9.6049,1.6626,0.651,-1.2978,39
3.335,64,1.5854,-0.5898,-9.7749,0.7657,0.878,0.076,75,3.584,69,2.9792,1.9859,-7.6273,-0.5468,-0.4081,0.6823,77,4.056,78,4.7733,1.763,-9.052,0.2671,-0.069,0.5033,73,3.517,67,4.2125,-1.4419,-9.6805,1.4589,0.5068,-1.3052,39
3.387,65,0.8236,-0.3196,-9.861,0.1464,0.738,0.3191,75,3.636,70,1.8432,2.5654,-7.5258,-0.2947,-0.3445,0.7737,77,4.108,79,8.7495,-2.7191,-9.0374,0.4564,0.2901,0.1513,73,3.569,68,4.4862,-4.3539,-15.0464,1.0035,0.5913,-0.9616,39
3.438,66,5.6587,-1.4942,-14.4986,0.2702,-0.1307,0.1229,75,3.687,71,0.8908,2.15,-7.5417,-0.0741,-0.1925,0.569,77,4.16,80,11.6515,-0.9288,-10.2808,0.2424,-0.2558,0.1643,73,3.621,69,7.1384,-3.1414,-13.6783,0.0553,0.4728,-0.4938,39
3.49,67,9.1876,-1.6003,-14.0862,-0.4802,0.2326,-0.0272,75,3.739,72,0.4059,1.8178,-7.9419,0.2701,-0.0305,0.4053,77,4.212,81,13.7695,0.4686,-9.3666,-0.0287,0.4917,0.1395,73,3.672,70,10.3272,-4.0868,-14.1953,0.3361,0.6179,-0.4139,39
3.542,68,7.9457,-4.1074,-10.4485,-0.5159,0.6375,-0.2482,75,3.791,73,5.2161,1.3573,-6.9923,0.2914,-0.3122,0.3185,77,4.263,82,12.5947,2.602,-14.8411,-0.4835,1.0372,0.1053,73,3.724,71,12.6546,-5.5341,-9.7365,-0.027,0.3435,-0.329,39
3.594,69,1.551,0.6169,-13.1642,0.2509,1.1477,0.4953,75,3.843,74,8.7268,1.7577,-6.3787,-0.0199,-0.6794,0.0905,77,4.315,83,11.072,4.4348,-11.8276,-0.7797,0.6193,-0.2191,73,3.776,72,10.5238,-2.1626,-14.1562,-0.1635,0.8264,-0.0328,39
3.645,70,1.4388,0.2233,-10.875,-0.1445,0.1683,-0.1519,75,3.894,75,11.2891,0.816,-5.8025,0.1728,-0.6765,-0.1891,77,4.367,84,7.9749,2.7219,-11.5264,-1.2443,1.0703,-0.4095,73,3.828,73,7.3087,-5.3548,-13.1347,-0.7665,0.2951,0.4794,39
3.697,71,2.0217,-0.5607,-10.0198,-0.2607,0.2241,-0.3972,75,3.946,76,7.0945,-0.5798,-6.1561,-0.1538,-0.6484,-0.4052,77,4.419,85,6.699,2.8839,-11.4652,-1.0807,1.1493,-0.3278,73,3.879,74,5.3728,-3.3715,-10.6007,-0.8428,-0.0922,0.896,39
3.749,72,1.0561,0.3166,-8.9388,-0.425,0.846,-0.2703,75,3.998,77,4.4356,-0.6883,-6.0158,-0.1482,-0.921,-0.0564,77,4.471,86,4.5004,0.5833,-13.2793,-0.1324,1.12,-0.5995,73,3.931,75,4.0308,-2.8286,-9.5346,-1.1486,-0.2475,1.221,39
3.801,73,0.0381,-1.1447,-9.6831,-0.9237,0.65,-0.434,75,4.05,78,3.6714,-0.0323,-6.2654,-0.1036,-0.6586,0.2764,77,4.522,87,3.9062,5.7776,-17.6967,-0.0539,0.144,-1.0504,73,3.983,76,3.0401,0.5741,-9.5026,-1.5154,-0.4835,1.4244,39
3.853,74,2.2096,-3.2078,-7.7628,-0.4221,-0.0751,-0.3434,75,4.102,79,2.4516,-0.0253,-8.0155,0.3708,0.1965,0.5214,77,4.574,88,4.739,5.686,-20.2714,-0.4213,0.6398,-0.6376,73,4.035,77,7.3361,4.9881,-4.5977,-1.7831,-1.0197,1.4385,39
3.904,75,6.6702,-2.8946,-8.7554,-0.1254,-0.2428,0.0503,75,4.154,80,0.4255,-0.0281,-9.5108,0.9424,0.7981,0.1934,77,4.626,89,7.7485,-0.8135,-19.9725,-0.2918,1.1238,-0.6087,73,4.087,78,10.4715,3.5797,-8.3537,-0.6828,-1.3428,0.7539,39
3.956,76,9.9258,-2.2626,-6.6678,-0.7198,-0.0565,-0.2434,75,4.206,81,0.4773,-0.3178,-10.3046,1.0091,0.5291,0.0276,77,4.677,90,9.7681,-0.4893,-19.8287,-0.3495,1.4986,-0.6681,73,4.138,79,12.7598,3.9559,-11.5909,-0.7235,-0.2951,0.8487,39
4.008,77,6.8596,-2.9503,-7.5233,0.1491,0.6412,-0.107,75,4.258,82,5.2683,0.4239,-8.8406,0.7893,0.5855,-0.1104,77,4.729,91,8.7244,1.4082,-19.3197,-0.9303,1.2149,0.1258,73,4.19,80,14.3925,3.6674,-8.2595,-0.0542,-0.4345,0.5784,39
4.06,78,2.528,0.3483,-8.8372,0.7832,-0.2014,0.5983,75,4.309,83,8.7649,1.8229,-7.0861,1.0301,0.2736,-0.1513,77,4.781,92,7.3553,-0.4299,-18.8298,-1.3542,0.2974,0.7393,73,4.242,81,10.9585,3.9867,-14.0093,0.6351,-0.3824,-0.1155,39
4.112,79,2.6406,0.3005,-9.2213,0.0188,-0.7943,0.2069,75,4.361,84,9.5798,1.6831,-5.473,0.0977,-0.473,-0.3518,77,4.833,93,5.6604,0.1976,-15.2297,-1.368,-0.335,1.1986,73,4.294,82,8.7169,4.1165,-12.8942,-0.0453,-0.9459,-0.117,39
4.163,80,2.3854,-0.2407,-10.3722,0.4334,-0.5978,0.2422,75,4.413,85,5.5297,-0.5848,-5.8099,-0.6087,-0.6033,-0.3619,77,4.885,94,4.7113,0.661,-12.5532,-1.1447,-0.4734,1.3603,73,4.345,83,6.6252,0.3032,-9.8854,-0.7102,-1.3571,-0.2765,39
4.215,81,1.6968,-0.5587,-9.7598,0.7676,-0.3664,0.2665,75,4.465,86,3.6194,0.05,-6.2126,-0.3324,-0.8843,0.0679,77,4.936,95,3.872,3.9007,-10.7876,-0.7835,-0.4279,1.1439,73,4.397,84,5.133,-2.0882,-8.8417,-0.8484,-1.041,-0.3899,39
4.267,82,1.4708,0.4107,-9.6877,0.3027,-0.1144,0.2408,75,4.517,87,2.3032,0.5833,-6.547,0.1968,-0.4397,0.6048,77,4.988,96,3.5628,5.7274,-15.8781,-0.4324,-0.9306,0.5168,73,4.449,85,4.4268,-4.6656,-7.6625,0.0423,-0.364,-0.5646,39
4.319,83,6.1311,-1.3789,-7.9598,-0.4173,-0.7528,0.5212,75,4.568,88,1.2201,1.4695,-7.036,0.4822,0.0259,0.4354,77,5.04,97,7.866,3.8066,-15.364,-0.5108,-1.3298,0.6551,73,4.501,86,8.3481,0.4018,-2.9847,0.2408,-0.9325,-0.3701,39
4.371,84,9.5323,-2.2916,-10.6064,-0.9202,0.1312,0.3039,75,4.62,89,0.9059,1.6207,-7.1902,0.4503,0.3824,0.0088,77,5.092,98,11.0067,-0.1448,-13.6724,0.2507,-0.9602,0.3114,73,4.553,87,11.2101,3.9296,-7.4755,-0.3185,-0.5892,-0.0478,39
4.422,85,8.7987,-2.54,-9.3181,-1.2414,0.7781,0.1547,75,4.672,90,3.0,1.9797,-7.1451,0.2484,0.3428,-0.4317,77,5.144,99,9.2724,1.7193,-14.4266,-0.132,-0.0224,0.0883,73,4.605,88,12.972,-0.3934,-7.3502,-0.0931,0.2289,-0.0388,39
4.474,86,5.0322,0.6008,-10.7258,-1.2401,1.2503,0.6979,75,4.724,91,7.1094,2.812,-9.1566,0.8457,0.9224,-0.8924,77,5.195,100,7.7641,0.9286,-18.5341,0.491,-0.1539,-0.5355,73,4.656,89,11.2911,-0.3248,-10.5031,-0.2707,0.2627,0.1302,39
4.526,87,2.8038,-0.2301,-9.7994,-0.9527,0.2432,0.1656,75,4.776,92,10.1086,4.1549,-9.5548,1.2231,0.5869,-0.7962,77,5.247,101,6.6164,0.985,-16.24,-0.1075,-0.1125,-1.0479,73,4.708,90,9.3758,-4.123,-8.4313,-0.0876,0.2027,0.4007,39
4.578,88,2.1453,-1.2915,-9.3261,-0.0209,-0.4772,-0.2512,75,4.827,93,6.7234,3.5708,-8.151,0.2126,-0.2443,-0.3994,77,5.299,102,4.9226,0.5793,-14.8045,0.5981,-0.2788,-1.3436,73,4.76,91,6.8617,-1.998,-7.3866,0.3283,0.752,0.5518,39
4.629,89,2.1151,-0.3688,-8.2064,0.6157,-0.4025,-0.4106,75,4.879,94,4.6446,1.7272,-8.0654,-0.5248,-0.2917,-0.0669,77,5.351,103,4.369,-1.6562,-15.7821,1.1131,-0.4143,-1.6547,73,4.812,92,5.6251,-0.9042,-7.9779,-0.0935,1.1446,0.826,39
4.681,90,2.0148,-0.3481,-9.1834,-0.0061,-0.0215,-0.4059,75,4.931,95,3.1568,1.0032,-7.8536,0.1544,0.1404,0.161,77,5.403,104,8.4544,-6.4458,-16.7867,1.4066,-0.9758,-1.0763,73,4.863,93,7.0557,-2.1405,-13.8038,-0.7453,1.0448,0.9485,39
4.733,91,6.5281,-1.6216,-14.2964,0.1139,-0.685,-0.5273,75,4.983,96,1.8898,1.139,-8.182,0.6869,0.4799,0.1566,77,5.455,105,11.4361,-3.5975,-19.4637,1.0241,-1.3716,-1.2435,73,4.915,94,8.4721,-0.3235,-15.5161,-0.1159,0.8481,0.7357,39
4.785,92,9.8221,-1.4475,-15.463,-0.2486,-0.1095,-0.1915,75,5.035,97,1.2351,0.7155,-7.8642,0.6013,0.5832,0.0791,77,5.507,106,13.6123,2.7263,-14.5593,0.0983,-0.7434,-0.5431,73,4.967,95,11.3006,-1.2196,-15.153,0.0563,1.1344,0.999,39
4.837,93,6.9825,-0.7758,-12.9457,-0.1683,0.6002,0.1452,75,5.086,98,5.8213,1.1205,-7.6965,0.3705,0.2895,-0.1185,77,5.558,107,11.5767,-0.806,-18.6309,-0.6035,-0.6034,0.0697,73,5.019,96,13.3649,-4.6379,-10.0653,0.3444,0.1622,0.3704,39
4.888,94,-0.4362,0.5886,-12.1106,0.4951,1.1205,0.5121,75,5.138,99,9.1686,2.1316,-8.7137,0.9396,0.1146,-0.2691,77,5.61,108,11.3794,-3.9136,-17.3441,-0.449,-1.1138,0.1726,73,5.071,97,9.9118,-0.7965,-12.2921,0.926,0.4773,-0.4011,39
4.94,95,-0.3354,0.5168,-9.9528,0.5926,0.1484,-0.1042,75,5.19,100,11.5847,3.7044,-7.7824,0.2455,-0.4691,-0.0982,77,5.662,109,9.7335,-0.9551,-13.0327,0.1989,-1.4863,0.5724,73,5.122,98,6.99,0.972,-11.0932,1.3505,0.3566,-0.9641,39
4.992,96,0.1842,-0.6281,-8.6702,0.4964,0.109,-0.2483,75,5.242,101,6.9309,0.7794,-6.7734,-0.2097,-0.244,-0.198,77,5.713,110,7.5833,-1.0636,-9.51,0.4011,-1.4827,0.6402,73,5.174,99,6.4245,-0.4489,-10.4335,1.6603,-0.0011,-1.3751,39
5.044,97,-0.1062,-1.1123,-7.8583,0.1253,0.5841,-0.105,75,5.294,102,4.4656,-0.3973,-6.482,-0.1333,-0.8156,0.0171,77,5.765,111,3.4323,4.3708,-14.9457,0.5124,-0.718,0.2988,73,5.226,100,5.3516,-2.5147,-8.7449,0.9965,-0.4031,-1.2258,39
5.095,98,1.3819,-2.3098,-7.5747,-0.2946,-0.1659,0.1363,75,5.345,103,2.8536,-0.0147,-6.8107,0.1908,-0.3359,0.5149,77,5.817,112,4.5879,1.145,-14.6401,1.0178,-0.5443,0.2778,73,5.278,101,5.1329,-2.8941,-12.568,0.3428,-0.2842,-0.7989,39
5.147,99,6.0662,0.0833,-10.6731,-0.185,0.3919,0.6791,75,5.397,104,2.1976,0.2101,-7.2271,0.7438,0.1155,0.586,77,5.869,113,8.5538,3.5532,-16.6837,0.3441,-0.1714,0.2421,73,5.329,102,4.0183,3.1799,-17.1539,-0.424,0.4504,-0.2443,39
5.199,100,9.485,-0.5834,-11.8207,-0.7297,0.7606,0.7581,75,5.449,105,1.9105,0.6928,-7.3829,1.0788,0.3312,0.3949,77,5.921,114,11.5087,5.027,-12.2372,-0.372,0.3931,0.4522,73,5.381,103,7.9547,0.4981,-16.2912,0.289,0.2318,-0.3088,39
5.251,101,6.5225,0.3179,-10.8175,0.1418,1.1999,0.94,75,5.501,106,6.3142,1.2132,-7.7994,0.7745,0.1523,0.0803,77,5.972,115,8.7903,5.9608,-16.9361,-0.6787,0.9652,0.0898,73,5.433,104,8.5337,-1.9249,-16.4944,-0.0518,0.5843,-0.0241,39
5.303,102,0.1633,3.5444,-8.9424,-0.1395,1.3962,1.1155,75,5.553,107,9.5283,2.1437,-8.9177,0.8357,0.0541,-0.0902,77,6.024,116,8.4537,7.472,-12.7097,-1.1533,0.7094,-0.076,73,5.485,105,7.8671,-4.5771,-14.6882,-0.7149,0.6686,0.6627,39
5.355,103,0.1731,2.6534,-9.5996,-0.7792,0.3497,0.2523,75,5.605,108,9.0706,2.7736,-7.2842,0.0763,-0.2986,0.0696,77,6.076,117,6.7357,3.5801,-12.6533,-1.3538,1.1961,-0.414,73,5.537,106,6.9696,-1.1282,-11.8615,-1.1988,0.6388,1.164,39
5.406,104,1.4223,1.3103,-8.6651,-1.1165,0.4227,-0.1199,75,5.656,109,6.3794,1.1654,-7.0422,-0.338,-0.4608,0.1397,77,6.128,118,5.3223,2.8557,-13.2183,-0.3116,1.355,-0.6127,73,5.588,107,5.0665,-1.1095,-11.2202,-1.552,0.4024,1.5299,39
5.458,105,0.8191,1.5773,-8.1496,-0.4483,0.8009,-0.3618,75,5.708,110,3.4166,1.3584,-6.252,-0.2354,-0.4682,0.3082,77,6.18,119,4.3718,-0.6962,-17.5541,0.4491,0.7542,-0.976,73,5.64,108,4.0321,1.5344,-10.1612,-1.8098,0.1452,1.6308,39
5.51,106,5.6554,1.5081,-7.6521,0.3472,-0.0848,-0.7168,75,5.76,111,2.2948,1.6129,-6.0341,-0.8206,-0.7161,0.5144,77,6.231,120,7.7675,1.4201,-20.8167,-0.0286,1.009,-0.8865,73,5.692,109,8.0601,6.412,-4.8084,-1.2199,-0.5608,1.0648,39
5.562,107,9.1852,-1.7117,-8.8712,0.2323,-0.0476,-0.9985,75,5.812,112,1.4265,0.091,-5.819,-0.9077,-0.284,0.5234,77,6.283,121,10.9348,-1.5315,-19.0509,0.6556,1.4148,-0.9067,73,5.744,110,10.9999,3.6146,-8.2218,-0.2757,-0.4065,0.9444,39
5.614,108,10.2348,-3.8531,-8.4538,0.1046,0.4758,-0.6027,75,5.863,113,3.6993,-0.0137,-4.7025,0.0093,0.073,0.2912,77,6.335,122,8.1904,-1.8924,-16.9092,-0.1145,1.7109,-0.3948,73,5.796,111,13.1455,4.9474,-9.5009,-0.2613,0.105,0.7471,39
5.665,109,5.7992,-2.2548,-8.2459,0.7501,1.0297,0.1765,75,5.915,114,7.6198,1.6697,-7.6176,0.575,0.7323,-0.4427,77,6.387,123,6.0147,-1.9967,-16.0598,-0.7588,1.6422,0.3739,73,5.847,112,8.0467,6.1068,-14.9154,0.484,0.6219,-0.0961,39
5.717,110,4.1613,-1.737,-7.9154,0.5278,0.0822,-0.219,75,5.967,115,10.4812,2.4778,-9.74,1.0914,1.1319,-1.0095,77,6.439,124,4.8126,-2.8341,-14.7653,-1.229,0.9126,0.9507,73,5.899,113,8.0128,8.0096,-15.2677,1.0279,-0.2129,-0.5304,39
5.769,111,5.3401,-0.9976,-7.6941,0.1991,-0.5376,-0.2276,75,6.019,116,7.18,1.8944,-10.3163,1.2985,0.8452,-0.9289,77,6.49,125,4.0791,-0.9011,-12.4937,-1.0467,0.196,1.2965,73,5.951,114,6.7671,4.2902,-12.3666,0.1891,-0.8222,-0.9414,39
5.821,112,3.6565,-0.4515,-8.2583,-0.2405,0.2901,0.1447,75,6.071,117,3.3107,0.7582,-10.028,0.8101,0.7303,-0.6267,77,6.542,126,3.3164,1.3585,-11.1785,-0.1233,0.2467,1.0693,73,6.003,115,5.771,2.4729,-9.1792,-0.5381,-0.8971,-0.8656,39
5.873,113,2.405,0.6028,-8.8477,-0.0528,-0.1456,0.3491,75,6.123,118,1.5517,1.0352,-9.3324,0.8988,0.0825,-0.0336,77,6.594,127,7.6862,0.5015,-5.5745,0.5859,-0.4933,0.9336,73,6.055,116,5.1916,-1.4536,-7.497,-1.0428,-0.7063,-0.8137,39
5.924,114,6.8129,0.6049,-10.3649,-0.1562,-0.7756,0.2842,75,6.174,119,0.9654,1.8022,-8.9035,0.6131,-0.4641,0.2917,77,6.646,128,10.8755,1.3113,-8.0864,-0.1137,-1.0334,0.9534,73,6.106,117,7.6551,-2.1893,-9.3986,-0.0864,-1.0731,-0.6285,39
5.976,115,10.0299,-1.0926,-11.8482,-0.7903,-0.5883,0.3042,75,6.226,120,0.8992,1.5604,-8.4032,-0.0371,-0.4349,0.3428,77,6.697,129,13.2031,-1.5489,-8.1978,0.0375,-0.1864,0.6654,73,6.158,118,10.7044,1.6621,-11.6072,-0.7401,-0.5823,-0.1904,39
6.028,116,9.9593,-2.7356,-10.3947,-0.4068,-0.0038,0.4312,75,6.278,121,2.3922,1.7863,-7.4178,-0.444,-0.9308,0.2074,77,6.749,130,11.7975,1.9807,-7.9044,-0.3972,0.5423,0.442,73,6.21,119,12.9298,-1.1245,-9.8983,0.1301,0.1301,-0.276,39
6.08,117,6.8515,-0.1831,-10.1391,-0.2166,0.6796,0.6769,75,6.33,122,6.6658,2.6623,-9.0185,-0.5902,-0.6043,-0.0854,77,6.801,131,8.7296,1.8486,-13.7603,0.3866,0.4378,-0.3152,73,6.262,120,11.7409,0.0844,-13.382,-0.4658,0.2205,0.1657,39
6.131,118,2.9084,-1.1466,-10.6023,-0.1653,-0.0745,0.163,75,6.382,123,9.7849,3.0629,-9.6808,-0.7348,-0.6746,0.0433,77,6.853,132,6.9382,2.2846,-12.5788,0.9587,0.1765,-0.9041,73,6.314,121,9.6952,-2.3033,-11.3725,0.2372,0.3709,0.7196,39
6.183,119,2.4537,-1.1302,-10.1834,0.5537,-0.7232,0.0073,75,6.433,124,7.5587,1.1202,-8.2487,-1.2163,-1.0586,0.5352,77,6.905,133,4.9503,1.1049,-11.5771,1.3762,-0.186,-1.3339,73,6.365,122,6.8689,-0.8422,-9.8031,0.4821,0.7813,0.9637,39
6.235,120,2.7846,0.723,-9.1802,0.9118,-0.2785,-0.0961,75,6.485,125,4.6479,-0.5082,-7.5061,-0.9635,-0.7837,0.7022,77,6.956,134,4.4525,-1.5815,-10.1498,1.681,-0.4738,-1.6475,73,6.417,123,5.5722,0.8562,-9.8418,-0.3002,1.0324,1.2957,39
6.287,121,2.4894,-0.1057,-9.7955,0.111,0.126,-0.0819,75,6.537,126,3.107,-0.6461,-7.9554,-0.0315,-0.0236,0.7049,77,7.008,135,8.4747,-5.9295,-14.1822,1.9034,-1.0178,-1.0148,73,6.469,124,5.62,2.9905,-15.1641,-0.8961,0.5028,1.3987,39
6.339,122,6.8745,-1.4745,-12.223,0.0878,-0.5715,-0.0452,75,6.589,127,1.842,0.4948,-8.0991,0.6487,0.4156,0.7535,77,7.06,136,7.6651,1.0243,-14.2595,0.7139,-1.0783,-0.7207,73,6.521,125,9.219,7.4747,-19.0486,-0.8258,0.7299,0.7107,39
6.39,123,10.0749,-3.1023,-13.9,-0.6133,0.0197,-0.0109,75,6.641,128,1.3712,1.0631,-7.5179,0.2151,0.447,0.9429,77,7.112,137,10.1934,0.0078,-13.9579,0.0338,-1.098,-0.0878,73,6.573,126,11.8457,2.418,-17.0414,-0.0456,0.5317,0.6812,39
6.442,124,8.1833,-3.6851,-12.375,-0.4621,0.4692,0.0785,75,6.692,129,4.4347,0.8592,-7.0964,-0.4951,0.2665,0.829,77,7.164,138,5.2497,-5.2314,-18.1919,-0.6505,-0.409,0.4863,73,6.624,127,13.6643,0.2855,-13.1937,0.6414,0.7602,-0.1742,39
6.494,125,1.3033,-0.5972,-10.6084,-0.4959,1.0247,0.0449,75,6.744,130,8.1565,0.9505,-9.6823,0.2463,0.394,0.3942,77,7.215,139,6.3141,-6.2753,-16.7408,-1.15,-0.9719,1.0187,73,6.676,128,9.6915,2.7899,-12.5614,1.1428,0.9544,-0.7986,39
6.545,126,0.7334,-1.4633,-8.2455,-0.2108,0.0785,-0.1771,75,6.796,131,9.0216,3.2816,-7.9892,0.0321,-0.3011,0.3628,77,7.267,140,5.004,-4.614,-10.6136,-1.5145,-1.3827,1.4208,73,6.728,129,5.9804,4.1703,-12.2853,1.5087,1.0341,-1.2542,39
6.597,127,0.7363,-1.8494,-6.7015,-0.0095,0.1698,-0.2709,75,6.848,132,5.3277,0.59,-6.3549,-0.6566,-0.751,-0.0001,77,7.319,141,4.1501,-5.5615,-6.2243,-0.4405,-0.8062,1.1407,73,6.78,130,5.5797,-0.19,-9.8788,1.6872,0.4785,-1.4982,39
6.649,128,1.0761,-2.7977,-5.8189,-0.2673,0.3365,0.0654,75,6.9,133,4.7905,-0.5523,-6.2792,0.1229,-0.7592,-0.1214,77,7.371,142,8.1857,1.2929,-1.9587,-0.6589,-1.2618,1.1857,73,6.831,131,4.4915,-1.8513,-8.0584,0.5543,0.2067,-0.9511,39
6.701,129,5.843,-4.0565,-10.5186,0.4793,-0.4238,0.4225,75,6.952,134,2.8508,-0.3322,-7.0574,0.7614,0.0383,-0.3462,77,7.423,143,11.2401,-4.2934,-4.1269,-0.5805,-1.5485,1.0755,73,6.883,132,8.3954,3.941,-3.2736,0.2276,-0.5159,-0.3266,39
6.753,130,9.3221,-3.4187,-12.2887,-0.1507,0.0673,0.5855,75,7.003,135,2.4047,0.0808,-7.0398,1.1134,0.3918,-0.5351,77,7.474,144,13.4393,-0.4941,-3.0843,-1.0989,-0.6174,1.1097,73,6.935,133,11.2446,1.362,-5.7185,0.6598,-0.5813,-0.2557,39
6.804,131,8.2036,-1.8962,-12.1449,0.5586,0.682,0.6205,75,7.055,136,6.0351,-0.1921,-7.4183,0.8083,0.1691,-0.7952,77,7.526,145,9.9785,-3.8592,-5.7561,-0.1324,0.1802,0.2803,73,6.987,134,10.7668,-2.303,-6.5452,0.3939,0.2462,-0.1156,39
6.856,132,1.7673,1.7079,-10.6009,0.1667,0.9475,0.1914,75,7.107,137,9.3246,1.1644,-8.997,1.2483,0.4176,-1.0618,77,7.578,146,8.7192,2.4761,-4.1164,-0.6455,0.6775,-0.019,73,7.039,135,9.3401,-0.2221,-8.5518,-0.3896,0.1821,0.5616,39
6.908,133,1.7141,1.0813,-9.4715,-0.2516,0.0611,-0.2713,75,7.159,138,9.8237,3.546,-8.48,0.7492,0.1946,-0.4138,77,7.63,147,5.9947,0.6136,-6.1886,-0.905,1.1728,-0.2283,73,7.09,136,6.5498,-3.0215,-8.6732,-0.9614,-0.2822,1.0902,39
6.96,134,1.3313,0.0144,-8.3384,-0.5444,0.6164,-0.552,75,7.211,139,6.6586,1.6671,-7.6027,-0.1332,-0.1566,-0.2016,77,7.682,148,4.4446,-1.264,-8.9984,0.016,1.5343,-0.6595,73,7.142,137,5.608,-1.8151,-6.7834,-1.0505,-0.4227,1.4761,39
7.012,135,0.4847,-0.5571,-7.1015,-0.1695,0.494,-0.4552,75,7.262,140,3.8029,2.0397,-7.1083,-0.004,0.0249,0.0036,77,7.733,149,3.1429,4.4294,-14.5723,-0.3256,0.4898,-0.8281,73,7.194,138,4.5753,-0.7311,-6.1858,-0.705,-0.2353,1.7395,39
7.063,136,5.4114,-0.6951,-7.2528,0.5507,-0.3088,-0.2978,75,7.314,141,2.5813,2.4336,-7.2402,-0.1252,0.0926,0.1177,77,7.785,150,6.3675,6.9068,-16.3016,-0.8421,0.5971,-0.2579,73,7.245,139,8.4566,4.7586,-1.9069,-1.1781,-0.8385,1.386,39
7.115,137,9.0071,-3.072,-8.676,0.1074,0.1615,-0.3475,75,7.366,142,1.5934,1.9353,-7.4032,-0.3192,0.3779,0.0361,77,7.837,151,9.9131,2.3715,-15.8923,-0.0151,0.9628,-0.4481,73,7.297,140,11.2893,0.9669,-5.3516,-0.1852,-0.6849,0.9632,39
7.167,138,9.2591,-4.39,-8.464,0.472,0.4889,-0.166,75,7.418,143,2.343,1.7486,-7.0606,-0.3933,0.4825,-0.2224,77,7.889,152,6.8683,0.4868,-18.1488,-0.368,1.3811,0.1009,73,7.349,141,13.3567,2.0067,-8.0687,-0.8122,0.1851,1.0197,39
7.219,139,5.9794,-1.4169,-8.8749,0.3347,1.0392,0.2715,75,7.47,144,6.6299,2.3371,-7.6784,-0.1503,0.8124,-0.6356,77,7.94,153,5.764,-2.925,-17.839,-0.863,0.9298,0.7351,73,7.401,142,8.8381,6.2238,-13.8701,0.0819,0.2917,0.2368,39
7.271,140,3.8025,-0.1004,-8.5274,-0.4331,0.0891,-0.451,75,7.521,145,9.7587,3.298,-8.3845,0.562,0.8692,-0.911,77,7.992,154,4.353,-2.0287,-15.3477,-1.3051,0.7569,1.2143,73,7.453,143,8.8792,6.9113,-14.1264,0.0151,-0.4539,-0.1482,39
7.322,141,4.2228,-1.2624,-7.3651,-0.6208,0.0538,-0.5541,75,7.573,146,6.4488,2.7335,-7.5225,0.5815,0.6707,-0.454,77,8.044,155,4.8424,3.4592,-12.7604,-1.6277,0.6519,1.564,73,7.505,144,6.6489,2.7044,-11.0553,-0.6661,-0.9981,-0.6766,39
7.374,142,2.9227,-1.3128,-7.5586,-1.0507,0.5543,-0.437,75,7.625,147,2.7912,2.7409,-7.1748,0.3292,-0.0491,0.2184,77,8.096,156,6.5806,4.3092,-6.729,-0.746,0.6544,1.6173,73,7.556,145,5.9136,0.2781,-7.8531,-0.4844,-0.6416,-0.9042,39
7.426,143,4.9203,-1.5479,-8.4494,-1.0449,-0.2648,-0.0171,75,7.677,148,2.1199,3.6993,-6.4912,-0.4008,-0.4286,0.6469,77,8.148,157,10.0685,-2.092,-11.16,0.1321,0.6746,0.9933,73,7.608,146,6.3921,-5.0938,-13.7127,0.1403,-0.0343,-1.172,39
7.478,144,8.6487,-1.282,-10.9671,-0.7019,-0.0845,0.1596,75,7.729,149,1.3991,3.8227,-5.8803,-0.3153,-0.1707,0.6789,77,8.199,158,11.9201,1.0203,-14.1356,0.1014,0.4123,0.4974,73,7.66,147,5.2977,1.5744,-17.9893,-0.4445,0.595,-0.6728,39
7.529,145,10.8877,-3.2774,-11.1931,-0.3578,0.0208,-0.1055,75,7.78,150,0.4275,4.4384,-5.65,-0.3529,0.0603,0.2299,77,8.251,159,13.9656,6.0966,-10.9813,-0.535,0.9793,0.7279,73,7.712,148,8.9838,-2.5323,-16.7759,0.3435,0.5513,-0.5827,39
7.581,146,7.7822,-2.724,-9.8696,0.4132,0.6902,0.0154,75,7.832,151,5.2319,4.9599,-7.0217,-0.746,-0.4685,-0.4534,77,8.303,160,10.1008,-0.3709,-13.4368,0.286,1.0949,-0.1427,73,7.763,149,8.3273,-4.7523,-17.1693,0.1194,0.8397,-0.226,39
7.633,147,2.9482,-0.2256,-8.5879,0.7977,1.0348,0.3446,75,7.884,152,8.7384,3.8128,-10.1526,0.1272,-0.0545,-1.0086,77,8.355,161,10.2184,4.668,-8.4453,0.8853,0.455,-0.7617,73,7.815,150,6.4263,-5.1822,-16.9313,-0.5209,0.4849,0.4005,39
7.685,148,2.0446,0.2427,-7.6353,1.1286,0.0859,0.1964,75,7.936,153,8.1151,2.9217,-8.7626,-0.5846,-0.6567,-0.4214,77,8.407,162,7.9332,-1.8301,-7.6939,1.3227,0.1853,-1.2299,73,7.867,151,4.3152,-2.7724,-13.7372,0.0723,0.9179,0.936,39
7.737,149,2.8983,1.2086,-6.58,1.1744,0.2462,-0.0485,75,7.988,154,4.6797,0.9638,-7.2295,-0.9438,-0.7507,-0.225,77,8.459,163,6.6818,-0.122,-7.1646,1.6419,-0.5382,-1.5716,73,7.919,152,3.7023,-0.7658,-12.7979,-0.5175,1.1606,1.3501,39
7.788,150,2.6354,0.2655,-7.1435,0.5827,0.3607,-0.0026,75,8.039,155,2.823,-0.1375,-6.9677,-0.5813,-0.3508,-0.0383,77,8.51,164,10.1424,-5.3261,-13.2339,1.6557,-0.9911,-1.0964,73,7.971,153,3.9941,2.9353,-15.7001,-1.0548,0.8476,1.5236,39
7.84,151,6.981,-0.6791,-11.4882,0.1988,0.4112,0.1276,75,8.091,156,2.0231,0.198,-6.603,0.1071,0.0562,0.0682,77,8.562,165,8.765,1.4647,-16.8966,0.6537,-1.3967,-0.9748,73,8.022,154,6.2378,6.1162,-17.6766,-0.7887,1.0944,0.9401,39
7.892,152,8.7641,-3.6185,-12.5547,0.0194,0.6873,0.3283,75,8.143,157,1.1323,0.2587,-6.3869,0.3892,0.4075,0.2236,77,8.614,166,9.9451,-0.3398,-15.7935,-0.1856,-1.1543,-0.1063,73,8.074,155,9.6699,2.6417,-15.8281,-0.5147,0.6654,1.2216,39
7.944,153,7.189,-2.0503,-11.3314,0.5316,0.9191,0.3723,75,8.195,158,5.7463,2.9325,-6.6248,0.2332,0.3573,0.06,77,8.666,167,8.1826,-5.4851,-15.9804,-0.8107,-1.4143,0.5911,73,8.126,156,9.8422,-0.0936,-12.9809,0.299,0.9352,0.2584,39
7.995,154,2.758,0.2215,-10.7248,-0.0026,1.3532,0.0992,75,8.247,159,9.1138,5.442,-8.613,0.3342,0.081,-0.1557,77,8.718,168,8.2697,-6.3877,-13.2039,-0.9582,-1.7056,1.1081,73,8.178,157,7.0062,2.1798,-13.0732,0.8929,0.856,-0.4828,39
8.047,155,1.5706,-0.55,-9.1251,-0.2287,0.3183,-0.2557,75,8.298,160,8.4221,5.843,-7.0079,-0.2041,-0.2799,0.3433,77,8.769,169,5.7884,-3.5721,-10.087,-1.0507,-1.445,1.4865,73,8.229,158,4.7908,3.2735,-10.8852,1.3264,0.9238,-1.0238,39
8.099,156,1.1978,-1.1145,-7.7819,-0.1982,0.162,-0.3506,75,8.35,161,4.3174,3.9045,-6.1134,-0.4926,-0.3526,0.2657,77,8.821,170,6.1027,-1.2419,-7.3259,-0.8624,-0.4883,1.653,73,8.281,159,5.4022,-0.2817,-10.4046,1.6427,0.8852,-1.4186,39
8.151,157,2.4885,-2.2673,-6.899,-0.3006,-0.5169,-0.1125,75,8.402,162,2.8531,2.6805,-5.7852,-0.4833,-0.5281,0.3667,77,8.873,171,9.5662,3.6522,-10.4127,-1.303,0.3124,1.2915,73,8.333,160,3.5591,-2.5204,-10.1105,0.6804,0.5216,-1.1205,39
8.203,158,6.8739,-1.1844,-9.5553,-0.3123,0.176,0.2956,75,8.454,163,2.1224,2.1898,-6.3524,0.1179,-0.0696,0.5477,77,8.925,172,12.2476,2.6515,-10.3202,-0.3893,0.6819,0.9366,73,8.385,161,5.7791,1.5879,-11.6054,-0.1805,0.9379,-0.4493,39
8.255,159,10.0744,-1.7187,-10.3733,-0.2901,0.278,0.2168,75,8.506,164,2.0948,2.5825,-6.4948,0.5924,0.3084,0.4396,77,8.976,173,11.0862,2.3973,-10.2275,-0.94,1.176,0.8961,73,8.437,162,9.3351,0.7526,-12.6681,0.323,0.9321,-0.3769,39
8.306,160,7.2841,0.2569,-9.7776,0.3475,0.8853,0.4318,75,8.558,165,6.4488,3.9531,-6.7808,0.2608,0.3119,-0.2168,77,9.028,174,9.5489,3.5402,-10.7477,-0.0095,0.8613,0.1297,73,8.488,163,9.5406,-3.0894,-10.4744,0.0913,1.3652,-0.1312,39
8.358,161,1.8666,1.2984,-10.301,-0.0631,0.7145,-0.0852,75,8.609,166,9.6265,4.9676,-8.146,0.7185,0.1589,-0.6974,77,9.08,175,7.6485,2.6396,-9.5144,-0.6822,1.306,-0.4121,73,8.54,164,7.1704,-3.304,-12.405,-0.6105,0.5497,0.5846,39
8.41,162,1.7781,1.4292,-10.1463,-0.0783,0.0324,-0.4744,75,8.661,167,6.4347,5.5778,-6.2246,-0.1183,-0.1096,-0.0591,77,9.132,176,7.5394,1.6316,-9.5232,-1.0881,1.5055,-0.2949,73,8.592,165,5.5182,-3.8867,-10.481,-0.6293,0.0619,1.107,39
8.462,163,1.2107,0.3295,-9.1811,-0.0333,0.3079,-0.7616,75,8.713,168,5.0878,3.2269,-5.8638,-0.7402,-0.3694,-0.062,77,9.184,177,5.9874,-3.4171,-12.9441,-0.128,1.2265,-0.4399,73,8.644,166,3.9103,-0.5095,-8.5031,-0.7673,0.2207,1.4614,39
8.514,164,0.2493,-0.4409,-8.6754,0.5786,-0.1034,-0.7737,75,8.765,169,3.1462,2.2374,-6.2873,-0.232,-0.2206,-0.0017,77,9.235,178,9.6356,-7.731,-6.8631,0.5831,0.2217,-0.2166,73,8.695,167,3.941,0.9568,-9.3295,-0.6798,0.172,1.6572,39
8.565,165,5.2396,0.5252,-10.6215,0.5967,-0.5415,-1.1712,75,8.817,170,2.1683,2.1141,-7.0337,0.0947,0.0133,0.1107,77,9.287,179,12.2983,-1.6002,-9.5152,0.2424,-0.3166,-0.3052,73,8.747,168,7.9936,5.2461,-4.2013,-0.9632,0.4707,1.3563,39
8.617,166,8.8817,-2.395,-11.1998,-0.2398,-0.9381,-0.7115,75,8.868,171,1.1724,1.4844,-7.6863,0.276,0.332,0.0866,77,9.339,180,14.2416,-0.8748,-10.5289,0.5527,-0.1389,-0.4303,73,8.799,169,10.9514,-0.5442,-7.0706,-0.3409,0.5455,1.3781,39
8.669,167,7.1452,-2.4281,-8.9906,0.4994,-0.2806,0.0157,75,8.92,172,5.6037,2.1596,-7.1911,-0.0841,0.0745,-0.1896,77,9.391,181,11.1805,-4.4212,-13.4404,-0.1652,0.2322,0.2596,73,8.851,170,13.1101,-5.694,-4.3972,0.1797,-0.0584,0.6084,39
8.721,168,-0.1985,3.0263,-7.5031,0.576,0.4776,0.2628,75,8.972,173,9.0097,4.157,-5.2186,-0.3565,0.0974,-0.3804,77,9.443,182,9.259,-8.4638,-12.662,-0.6849,-0.3019,0.8672,73,8.903,171,8.1117,0.1484,-11.1904,0.8058,-0.1472,0.0236,39
8.773,169,0.4478,1.1143,-8.4496,-0.2544,-0.3207,-0.0466,75,9.024,174,11.4271,4.273,-4.4282,-0.5231,-0.0362,-0.532,77,9.494,183,6.2892,-5.0629,-10.6039,-1.1718,-0.1347,1.3106,73,8.955,172,7.6782,0.1808,-12.2008,-0.0889,-0.7742,-0.294,39
8.824,170,1.0562,0.4696,-9.1259,-0.1354,0.4483,0.1193,75,9.076,175,7.3605,1.5316,-5.7456,-0.6189,0.1847,-0.4716,77,9.546,184,6.5439,-0.9568,-9.2348,-1.5304,-0.1203,1.6343,73,9.006,173,6.4996,-0.9763,-10.9073,-0.3763,-1.2319,-0.7209,39
8.876,171,0.625,0.8382,-9.9983,-0.2862,0.43,0.5885,75,9.127,176,3.6326,1.3241,-6.266,-0.0852,-0.1241,0.0606,77,9.598,185,10.0417,2.9496,-4.1559,-0.4432,-0.7612,0.912,73,9.058,174,5.1902,-1.7365,-7.6149,-0.5194,-1.3566,-0.8301,39
8.928,172,5.5138,-1.348,-12.1485,-0.6245,0.085,0.8744,75,9.179,177,2.1939,2.1982,-6.3494,-0.444,-0.2359,0.4505,77,9.65,186,12.5947,0.2366,-7.1433,-0.9987,-0.3888,1.0949,73,9.11,175,5.469,-3.9258,-13.5389,0.267,-1.4136,-0.5335,39
8.98,173,9.0818,-2.961,-12.9396,-1.1332,0.2828,0.4803,75,9.231,178,1.4094,2.1951,-6.276,-0.2502,-0.0462,0.5648,77,9.702,187,14.4579,-5.0644,-6.3341,-0.2081,0.1004,0.7848,73,9.162,176,9.1088,2.4255,-15.3818,-0.4822,-0.9038,-0.298,39
9.032,174,7.8802,-4.2258,-9.9112,-0.3751,0.4781,0.1305,75,9.283,179,3.336,3.0285,-5.8687,-0.2136,-0.14,0.393,77,9.753,188,11.2954,-2.5523,-10.2751,0.1869,0.7516,0.233,73,9.214,177,11.1278,-0.9557,-13.3072,0.2395,0.0087,0.005,39
9.083,175,5.1579,-0.8046,-9.4521,0.129,1.0248,-0.0996,75,9.335,180,7.3546,3.4966,-7.3775,-0.6673,-0.7235,0.1854,77,9.805,189,8.6824,-0.9202,-15.1731,0.813,0.4819,-0.5039,73,9.265,178,9.8037,-3.1388,-13.5447,-0.5023,0.1107,0.446,39
9.135,176,1.9438,-1.0807,-9.334,-0.5137,0.7274,-0.5801,75,9.386,181,9.8435,3.4892,-8.2001,-1.0054,-1.0695,0.4421,77,9.857,190,7.4626,0.1273,-13.0102,1.0939,0.0278,-1.0418,73,9.317,179,8.5485,-4.0799,-10.991,0.2382,0.3433,0.9234,39
9.187,177,1.4388,-1.7602,-8.5055,-0.1247,-0.0347,-0.7071,75,9.438,182,7.3457,1.6901,-7.5595,-1.4138,-1.4533,0.2631,77,9.909,191,5.6431,-1.8856,-11.3664,1.4749,-0.1371,-1.4344,73,9.369,180,6.4085,-2.6896,-9.5,0.538,0.9201,1.0408,39
9.239,178,1.4091,-0.9486,-7.3907,0.5717,-0.0249,-0.6351,75,9.49,183,4.5829,0.662,-6.4063,-1.3277,-1.7333,0.3063,77,9.961,192,4.2697,-1.3023,-12.261,1.753,-0.4025,-1.715,73,9.421,181,6.2587,-0.2903,-9.3586,0.8968,1.3565,1.2165,39
9.29,179,2.2974,-1.1175,-7.1952,0.6132,-0.5887,-0.3077,75,9.542,184,3.9499,0.4805,-6.3367,-0.9124,-1.1671,0.4624,77,10.012,193,8.382,-2.6092,-10.3657,0.8496,-0.3227,-1.1742,73,9.473,182,7.0285,-4.8048,-14.8115,-0.0225,1.2586,1.4182,39
9.342,180,6.7344,-2.0736,-10.4711,-0.0679,0.2528,-0.0763,75,9.594,185,2.8276,-0.1613,-6.2506,-0.485,-0.3716,0.181,77,10.064,194,11.3833,-7.1413,-11.0137,1.2516,0.2484,-1.2042,73,9.524,183,9.932,-1.0143,-18.229,-0.125,1.0954,1.1337,39
9.394,181,7.6805,-3.2771,-9.8473,0.3418,0.0768,0.1679,75,9.645,186,2.5372,-0.7136,-6.3333,-0.239,-0.0478,-0.1473,77,10.116,195,13.5738,-0.5468,-9.6699,0.2383,0.5369,-0.2379,73,9.576,184,9.804,0.106,-16.1128,-0.4958,0.4917,1.0004,39
9.446,182,5.1889,-0.6945,-9.2282,0.8363,0.7374,0.2137,75,9.697,187,6.7717,0.0715,-9.4431,-0.4509,0.5063,-0.0803,77,10.168,196,12.7984,-1.6066,-12.7012,-0.5013,-0.2816,0.4812,73,9.628,185,5.7915,4.6001,-18.3654,0.3128,0.6994,0.0605,39
9.498,183,1.4433,-0.9762,-9.2467,0.2249,0.1672,-0.1396,75,9.749,188,9.8622,0.2386,-11.2073,0.3426,1.0486,-0.5897,77,10.22,197,10.7592,-3.7047,-10.7231,-0.1821,-0.8789,0.9756,73,9.68,186,5.5148,5.971,-17.2799,0.903,0.2179,-0.6273,39
9.549,184,1.2288,-1.4058,-7.9107,0.5056,-0.1758,-0.1725,75,9.801,189,7.1061,2.6468,-9.2197,0.4497,0.2684,-0.1875,77,10.271,198,7.6607,2.5779,-6.2448,-0.4795,-0.9507,1.3898,73,9.732,187,4.4836,5.0896,-15.0737,1.0985,-0.2936,-1.1292,39
9.601,185,1.0118,-0.7497,-6.9028,0.4939,0.2242,-0.0313,75,9.853,190,3.6095,0.6719,-8.9808,-0.3518,0.0745,0.0272,77,10.323,199,2.3097,7.2334,-12.5626,-1.0051,-0.9096,0.9267,73,9.783,188,4.0965,0.6475,-11.7396,1.1445,-0.4973,-1.4956,39
9.653,186,5.796,-2.1814,-7.5448,0.046,-0.5057,0.5311,75,9.904,191,3.123,-0.4734,-8.8028,0.2825,-0.1401,0.2619,77,10.375,200,6.9515,1.6364,-14.9402,-0.057,-1.0451,0.6329,73,9.835,189,5.8079,-4.8242,-16.5493,0.3603,-0.4603,-1.3743,39
9.705,187,9.2878,-2.5124,-10.911,-0.6428,0.3133,0.781,75,9.956,192,2.613,0.0833,-9.1875,0.8779,0.1224,0.3656,77,10.427,201,9.3583,4.2874,-13.5826,-0.657,-0.2153,0.4379,73,9.887,190,9.3561,-5.7455,-15.8972,-0.2651,-0.3916,-0.8371,39
9.757,188,8.1294,-1.875,-9.802,0.2052,0.5734,0.7147,75,10.008,193,3.7601,0.9887,-8.2338,1.153,0.1099,0.1966,77,10.478,202,7.819,2.8782,-17.918,-0.2354,0.5212,0.1157,73,9.939,191,11.9458,-3.0618,-11.9711,-0.0182,-0.0973,-0.6181,39
9.808,189,1.3694,3.1803,-8.536,0.0039,1.1009,0.4683,75,10.06,194,7.6642,2.3573,-9.3104,1.137,0.3739,-0.0246,77,10.53,203,6.0955,4.5291,-17.3486,-0.1191,0.6588,-0.3255,73,9.991,192,9.9049,-3.1811,-14.7086,-0.6756,0.3242,-0.0327,39
9.86,190,1.2066,1.4138,-8.7607,-0.5624,0.2257,0.0741,75,10.112,195,10.5136,3.5753,-8.7866,1.3397,0.1108,-0.0093,77,10.582,204,4.6302,3.1155,-14.9192,-0.6534,1.093,-0.6485,73,10.042,193,8.0613,-4.8686,-12.6151,-1.1701,-0.1409,0.6537,39
9.912,191,0.7843,0.7317,-8.2604,-0.0219,0.5211,-0.1319,75,10.163,196,6.4882,3.5683,-7.1806,0.3574,-0.1752,0.2296,77,10.634,205,4.7987,2.0061,-13.1941,-0.3553,0.9053,-0.8423,73,10.094,194,6.0584,-3.5559,-11.1842,-1.4668,-0.2859,1.1575,39
9.964,192,-0.5268,0.5047,-7.5077,0.1205,0.5901,-0.1643,75,10.215,197,3.6984,2.9229,-6.2606,-0.1869,-0.4173,0.3397,77,10.686,206,4.5829,-0.8078,-15.9607,0.4172,0.5392,-1.0977,73,10.146,195,4.8703,-2.0918,-10.1199,-1.7003,-0.5155,1.5251,39
10.016,193,0.7557,-0.5577,-7.6847,0.0725,-0.2009,0.0631,75,10.267,198,2.7398,2.4279,-6.2733,-0.3203,-0.3101,0.4671,77,10.738,207,8.6105,-5.8266,-13.3644,-0.0202,-0.2798,-0.6836,73,10.198,196,5.6047,3.7655,-13.4809,-1.9181,-0.9089,1.5832,39
10.067,194,5.6092,-1.6479,-10.0837,-0.3377,0.5346,0.1651,75,10.319,199,1.8229,2.0211,-6.533,-0.15,0.1156,0.4709,77,10.789,208,11.5501,-9.4896,-11.47,0.5325,-0.1708,-0.7251,73,10.25,197,8.733,0.7222,-11.6494,-0.7978,-1.1475,0.6416,39
10.119,195,9.1514,-3.7365,-10.3957,-0.4435,0.3809,-0.1116,75,10.371,200,1.3857,1.8839,-6.6673,0.1699,0.57,0.2055,77,10.841,209,13.6955,-2.8813,-10.5932,-0.2866,0.5288,0.0459,73,10.302,198,11.491,1.9285,-13.6765,-0.6303,-0.1655,0.8926,39
10.171,196,5.4776,-2.3126,-8.1915,0.3507,0.913,0.2632,75,10.422,201,5.9312,2.0303,-8.2138,-0.1113,0.7328,-0.3128,77,10.893,210,11.502,-2.6259,-12.2663,-0.8844,0.1477,0.7113,73,10.353,199,9.1043,2.5357,-15.3097,0.2147,0.5642,0.0219,39
10.223,197,3.3988,-0.3837,-6.7868,0.4072,-0.003,0.2095,75,10.474,202,9.2488,2.3908,-9.2864,0.5905,0.8954,-0.8777,77,10.945,211,8.3595,-4.0518,-11.8397,-1.0939,-0.1355,1.1968,73,10.405,200,7.503,4.419,-18.2368,0.8314,-0.255,-0.2994,39
10.275,198,3.1402,-0.3998,-7.1392,-0.0404,0.3942,-0.1592,75,10.526,203,8.1966,2.7998,-7.693,-0.1452,0.4556,-0.6362,77,10.996,212,7.7869,-1.3822,-10.0857,-0.8773,-0.63,1.5512,73,10.457,201,6.8134,2.8985,-15.46,-0.0703,-0.8529,-0.4852,39
10.326,199,1.6947,-0.9469,-6.9795,0.0241,0.6934,-0.1531,75,10.578,204,5.0743,1.4261,-7.895,0.1884,0.2689,-0.2967,77,11.048,213,5.9035,3.6115,-8.2533,-0.647,-0.683,1.4213,73,10.509,202,5.4026,-0.4572,-10.8209,-0.418,-0.8911,-0.5429,39
10.378,200,2.7286,-0.6981,-7.1762,0.2413,-0.142,0.215,75,10.63,205,2.5926,1.5304,-7.4641,0.1174,0.0681,0.1049,77,11.1,214,9.5744,2.9103,-3.4396,0.0197,-1.1719,1.4626,73,10.56,203,5.6727,-1.4319,-13.1487,-0.7732,-0.2095,-0.5665,39
10.43,201,7.0491,-2.2344,-8.8139,-0.1096,-0.2631,0.3675,75,10.681,206,1.8442,2.0442,-6.8515,-0.2064,-0.2082,0.322,77,11.152,215,12.2536,3.3879,-4.2627,-0.3196,-0.5148,1.1108,73,10.612,204,9.2575,-6.3419,-8.0327,0.0067,0.1941,-0.7019,39
10.482,202,10.2023,-3.8768,-9.9955,-0.7574,0.2126,0.2759,75,10.733,207,1.8776,2.0402,-6.0781,-0.2916,0.0391,0.2358,77,11.204,216,14.1231,3.0191,-3.8389,-0.3454,0.2929,1.0166,73,10.664,205,11.8738,-0.7095,-10.1071,-0.6722,0.3217,-0.4044,39
10.533,203,7.4685,-3.7226,-8.7312,0.0782,0.7793,0.4741,75,10.785,208,5.374,2.6034,-6.0758,-0.1068,0.0917,-0.2168,77,11.256,217,12.5274,0.6369,-6.3473,0.4245,0.4469,0.1267,73,10.716,206,12.1958,-0.8475,-7.6717,0.1841,0.8582,-0.428,39
10.585,204,2.2622,-0.7731,-8.9616,-0.2383,0.2591,0.2049,75,10.837,209,8.8421,2.4226,-8.8164,0.4667,0.3867,-0.6327,77,11.307,218,10.4434,5.8167,-6.9045,0.6627,0.0727,-0.5742,73,10.768,207,10.1651,-1.9335,-8.9105,-0.5427,0.5704,0.0662,39
10.637,205,1.621,-0.868,-8.8047,0.2414,-0.1975,-0.1222,75,10.889,210,8.713,3.7789,-8.6101,0.3674,-0.0693,-0.2297,77,11.359,219,8.7524,1.7471,-7.1179,1.1602,-0.0114,-1.0931,73,10.819,208,8.1358,-2.6952,-7.7397,0.0718,0.8409,0.5893,39
10.689,206,1.0749,-0.1445,-7.9764,0.6472,-0.0138,-0.3466,75,10.941,211,5.9041,1.7159,-7.59,-0.4119,-0.3471,-0.0744,77,11.411,220,7.3489,1.571,-6.6135,1.5233,-0.5672,-1.4718,73,10.871,209,6.5912,-1.3449,-7.0198,-0.0449,1.1499,0.8997,39
10.741,207,0.8755,-0.2343,-7.5433,0.4472,-0.0328,-0.3502,75,10.992,212,3.8892,0.2014,-7.2398,-0.0245,-0.1157,0.0846,77,11.463,221,8.64,-4.0904,-9.0471,1.7883,-1.0211,-1.676,73,10.923,210,4.7885,1.5367,-9.4618,-0.7095,0.8166,1.1683,39
10.792,208,5.6966,-4.2392,-8.4053,0.4293,-0.6933,-0.3439,75,11.044,213,2.4155,0.2486,-7.1506,0.6507,0.1518,0.2098,77,11.514,222,8.0524,0.7314,-10.555,0.63,-0.0669,-0.7608,73,10.975,211,8.6122,5.4714,-13.3636,-1.0288,1.0232,0.7436,39
10.844,209,9.2152,-4.9584,-10.1513,-0.2736,-0.3594,0.0879,75,11.096,214,1.4215,1.0686,-6.4126,0.7423,0.4004,0.2728,77,11.566,223,7.1772,-4.7033,-13.6476,1.0809,0.6295,-0.6084,73,11.026,212,11.4028,1.1309,-12.5579,-0.408,0.8266,0.7677,39
10.896,210,7.7329,-4.2338,-8.8151,0.1855,0.4158,0.3138,75,11.148,215,2.5136,1.895,-5.5744,0.4115,0.341,0.1733,77,11.618,224,3.7225,-2.9061,-17.9655,0.1137,1.1378,-0.1177,73,11.078,213,11.0959,-3.1525,-12.576,-0.6523,0.0269,0.2011,39
10.947,211,0.5124,0.5827,-8.6434,0.2407,0.8523,0.378,75,11.2,216,6.7544,3.688,-6.233,0.8246,0.4334,-0.117,77,11.67,225,4.9748,-5.0068,-18.7118,-0.2258,0.157,0.332,73,11.13,214,8.2238,0.9937,-14.6511,0.1986,0.2805,-0.5246,39
11.0,212,0.9053,0.3182,-8.0587,-0.1067,0.0823,0.0147,75,11.252,217,9.2001,4.8557,-6.242,0.9281,0.1337,-0.1039,77,11.722,226,4.6115,-2.1077,-13.9217,0.4867,-0.558,0.79,73,11.182,215,5.4085,2.8649,-12.765,0.8196,0.4787,-1.0543,39
11.052,213,0.3097,0.0229,-7.5996,-0.2718,0.6613,-0.1743,75,11.303,218,5.4439,2.3959,-5.9259,-0.0027,-0.4059,-0.1251,77,11.773,227,4.1526,-2.0917,-9.0256,0.7066,-0.4783,1.0681,73,11.234,216,5.1799,1.8083,-11.7627,0.8167,0.2285,-1.4409,39
11.103,214,0.6712,-0.7225,-6.7722,-0.5928,0.095,-0.0151,75,11.355,219,3.4604,0.6989,-5.5753,-0.0219,-0.8299,0.0835,77,11.825,228,8.2965,1.6972,-4.0032,0.8543,-0.9023,0.6893,73,11.285,217,6.3174,-0.6627,-12.1621,0.7923,-0.2641,-1.1778,39
11.155,215,5.5475,-2.7548,-7.944,-0.7538,-0.4028,0.0205,75,11.407,220,2.179,0.5615,-5.7203,0.1191,-0.5675,0.5556,77,11.877,229,11.3209,-2.8448,-10.0546,1.3,-1.3319,0.579,73,11.337,218,9.728,-4.5678,-12.0987,-0.0988,-0.8595,-0.4506,39
11.207,216,9.1064,-4.599,-9.425,-0.994,-0.116,-0.0056,75,11.459,221,1.4725,1.0374,-5.5148,0.1787,-0.356,0.7366,77,11.929,230,13.0683,-2.0497,-9.8318,0.4956,-0.7015,0.5783,73,11.389,219,12.2172,-3.7328,-13.1894,-0.3735,-0.5789,-0.2534,39
11.259,217,7.2001,-2.752,-8.5339,-0.0517,0.3801,0.2899,75,11.511,222,5.6342,1.431,-5.8545,0.0284,-0.176,0.307,77,11.981,231,10.3886,-0.373,-11.9817,1.0383,-0.6473,0.1534,73,11.441,220,12.7215,-3.8366,-9.9318,-0.3326,0.2625,-0.1802,39
11.31,218,1.6125,0.3456,-8.7071,-0.3741,0.469,-0.0246,75,11.563,223,9.032,1.7059,-7.8454,0.6925,0.3224,-0.2086,77,12.032,232,8.7579,5.079,-10.1482,0.1597,-1.0474,-0.3089,73,11.493,221,9.5659,-4.196,-11.3024,-0.9198,0.0855,0.4941,39
11.362,219,1.4379,0.023,-8.7576,-0.3484,-0.153,-0.2706,75,11.614,224,8.9033,3.0857,-7.3473,0.7511,0.2225,-0.0897,77,12.084,233,4.6317,0.8717,-9.9145,0.0539,-0.0873,-0.657,73,11.544,222,7.9743,-3.5698,-10.2562,-0.6535,-0.0331,0.9894,39
11.414,220,0.3527,-0.5974,-7.7816,-0.1931,0.4011,-0.4188,75,11.666,225,5.614,1.6317,-6.5786,-0.1318,-0.1547,-0.1747,77,12.136,234,4.604,2.9313,-8.4849,-0.4787,0.5682,-0.9235,73,11.596,223,4.7748,1.1838,-7.6056,-1.0684,-0.0537,1.4024,39
11.466,221,-0.0517,-1.2318,-6.9277,-0.0322,0.0821,-0.2685,75,11.718,226,2.8267,1.1063,-6.449,0.2048,0.0392,-0.1642,77,12.188,235,3.331,7.4913,-14.1975,-0.2674,0.1476,-1.2752,73,11.648,224,5.4107,-0.6623,-7.8984,-1.4568,-0.2399,1.7039,39
11.518,222,5.0199,-2.1444,-6.651,-0.0914,-0.6094,0.0629,75,11.77,227,2.0585,1.7884,-6.9499,0.4736,0.2555,-0.0625,77,12.24,236,6.6375,10.8194,-13.7604,-0.8704,-0.2651,-0.4817,73,11.7,225,6.5309,4.8088,-8.424,-1.7403,-0.664,1.727,39
11.569,223,8.7213,-4.114,-9.5959,-0.3012,-0.2256,0.0249,75,11.822,228,1.1513,1.8871,-6.9983,0.3409,0.5842,-0.2854,77,12.291,237,10.0581,4.7934,-13.5258,-0.0002,0.4849,-0.8053,73,11.752,226,9.8839,-1.7871,-10.0963,-0.5955,-0.5233,0.9795,39
11.621,224,9.7277,-4.1148,-8.0038,0.3646,-0.3843,0.1271,75,11.873,229,2.1436,2.4401,-6.0557,0.1421,0.6088,-0.6851,77,12.343,238,6.1939,3.6873,-15.3054,-0.6753,1.0322,-0.18,73,11.803,227,12.3008,1.2577,-11.7005,-0.986,0.303,1.0714,39
11.673,225,6.0469,-0.4375,-8.3112,0.9116,0.4019,0.354,75,11.925,230,6.4844,3.214,-6.631,0.2825,1.0329,-1.083,77,12.395,239,5.8856,2.4798,-16.1172,-1.1681,0.8007,0.5146,73,11.855,228,9.1762,6.2101,-16.5207,-0.045,0.6595,0.2388,39
11.725,226,4.732,-0.592,-7.4799,0.1085,-0.376,-0.1428,75,11.977,231,9.6525,4.7815,-7.3993,0.2064,0.5366,-1.0281,77,12.447,240,4.1073,0.556,-14.6202,-1.264,0.1403,1.0533,73,11.907,229,11.0352,7.048,-16.0046,-0.0879,-0.1855,0.0137,39
11.777,227,3.764,-1.3666,-7.2206,0.2398,-0.1203,-0.3358,75,12.029,232,6.4534,2.9019,-6.2219,-0.1876,-0.2617,-0.7701,77,12.499,241,4.778,1.9109,-12.6677,-1.4535,-0.4754,1.4465,73,11.959,230,8.7553,3.0201,-10.7287,-0.7412,-0.8021,-0.4891,39
11.828,228,3.5368,-1.0236,-6.9732,-0.0741,0.0249,-0.2548,75,12.081,233,3.2393,1.5082,-5.9019,-0.1661,-0.5797,-0.1968,77,12.551,242,4.2619,6.7259,-12.6593,-1.59,-0.2296,1.2942,73,12.01,231,7.518,1.6605,-6.841,-0.4285,-0.3263,-0.8001,39
11.88,229,5.9881,-2.0712,-6.9612,-0.4139,-0.213,0.2634,75,12.132,234,1.9222,1.3925,-6.1267,0.1569,-0.5848,0.3823,77,12.602,243,8.3762,1.6598,-12.0084,-0.4839,-0.6949,0.6084,73,12.062,232,7.4771,0.1334,-12.9741,-0.049,0.4232,-0.8176,39
11.932,230,9.428,-2.8411,-8.0637,-0.8841,0.3218,0.7061,75,12.184,235,1.0557,2.6375,-5.6623,0.3538,-0.3443,0.5956,77,12.654,244,11.3791,3.0669,-13.8906,-1.0284,-0.433,0.5349,73,12.114,233,6.1924,-1.4514,-14.8314,0.6389,0.5496,-0.7442,39
11.984,231,10.3221,-4.6079,-7.9864,-1.0108,0.7326,0.2717,75,12.236,236,1.0506,3.785,-4.6869,0.0918,-0.2765,0.3334,77,12.706,245,11.4981,5.8032,-11.2688,-1.257,0.057,0.7076,73,12.166,234,9.6368,-6.3561,-12.6782,0.7712,0.8182,-0.2344,39
12.035,232,6.4137,-2.8631,-7.7067,-0.1104,1.2171,0.2895,75,12.288,237,5.6866,3.9458,-5.1667,-0.5923,-0.4025,-0.0972,77,12.758,246,10.5933,-1.0016,-12.4167,-0.2409,0.0702,-0.157,73,12.218,235,6.5488,-5.0262,-16.0006,0.1252,1.0358,-0.034,39
12.087,233,3.8743,-2.7515,-6.9789,0.3582,0.219,0.4064,75,12.34,238,9.0702,4.3665,-8.3943,0.2395,0.1127,-0.0928,77,12.81,247,8.6708,3.5725,-10.3292,0.4964,-0.2377,-0.7886,73,12.269,236,6.815,-7.271,-13.512,-0.5857,0.4724,0.318,39
12.139,234,3.2627,-1.1051,-6.3252,0.9358,-0.0967,0.3079,75,12.391,239,7.9037,5.1233,-7.8383,-0.4402,-0.4747,0.1408,77,12.861,248,8.0063,-0.585,-8.6262,1.0389,-0.2507,-1.2496,73,12.321,237,5.2145,-5.976,-11.2734,0.0003,0.9543,0.8032,39
12.191,235,2.3422,-0.5088,-6.1143,1.3518,0.1105,0.0524,75,12.443,240,4.7668,1.5468,-7.5803,-0.6954,-0.3278,0.1925,77,12.913,249,7.0577,-0.7133,-9.3842,1.4347,-0.3761,-1.586,73,12.373,238,4.9534,-4.7913,-10.9076,-0.0002,1.3632,1.2357,39
12.242,236,3.6105,-1.0076,-6.4562,0.8634,-0.4941,0.1651,75,12.495,241,2.645,0.6459,-7.6903,-0.0027,0.0429,0.3331,77,12.965,250,10.4168,-5.7576,-11.7313,1.7237,-0.5905,-1.3844,73,12.425,239,-0.1532,-1.685,-15.9421,-0.6773,0.7821,1.5265,39
12.294,237,7.6927,-2.3228,-7.9382,-0.0007,0.3218,0.3656,75,12.547,242,1.892,0.8887,-7.8196,0.4846,0.3229,0.4018,77,13.017,251,12.8684,-3.9729,-11.9376,1.4512,-0.5879,-1.4125,73,12.476,240,3.3702,-2.717,-12.3455,0.1804,-0.0535,0.7876,39
12.346,238,10.3254,-3.0661,-8.4582,-0.3432,0.6564,0.5724,75,12.599,243,1.3138,1.1928,-7.487,0.6093,0.4489,0.4491,77,13.069,252,14.6577,1.1335,-11.5974,0.5552,-1.0992,-0.7049,73,12.528,241,6.9315,0.3325,-12.4262,-0.2506,0.4915,1.2548,39
12.398,239,6.7614,-1.6022,-8.2594,0.0586,1.1615,0.323,75,12.651,244,5.8788,2.4782,-8.5506,0.4909,0.2931,0.2722,77,13.12,253,13.9009,-1.7805,-16.4692,-0.27,-1.4756,0.1633,73,12.58,242,10.1762,-0.6774,-8.5405,0.4608,-0.2619,0.4965,39
12.45,240,2.8984,-1.3905,-8.7996,-0.2952,0.2881,-0.3063,75,12.702,245,9.2105,4.6833,-9.1104,0.5024,0.0489,0.2595,77,13.172,254,13.5739,-4.5601,-15.0757,-0.6744,-1.7504,0.7658,73,12.632,243,7.2062,2.4948,-11.9789,1.011,-0.0343,-0.309,39
12.501,241,1.8945,-1.4052,-8.1426,-0.0008,-0.0344,-0.5067,75,12.754,246,9.2404,4.5413,-7.5149,0.207,-0.5387,0.1055,77,13.224,255,9.1341,-1.5648,-11.597,-0.9731,-1.7137,1.2366,73,12.683,244,4.4408,4.2396,-12.546,1.4125,-0.1352,-0.897,39
12.553,242,0.8666,-1.5552,-7.0789,0.0998,-0.3079,-0.5721,75,12.806,247,4.9134,1.644,-6.3365,-0.3323,-0.8243,0.2214,77,13.276,256,9.2766,1.2413,-9.7395,-1.3855,-1.1256,1.5154,73,12.735,245,5.1902,0.9999,-10.5595,1.625,-0.6842,-1.326,39
12.605,243,1.795,-2.0886,-5.8132,-0.0035,-0.6711,-0.2964,75,12.858,248,3.5558,0.6133,-6.0484,-0.5253,-1.163,0.64,77,13.328,257,12.0362,4.2043,-9.9936,-0.3942,-0.481,1.203,73,12.787,246,6.0851,-2.1324,-9.208,0.577,-0.8098,-1.037,39
12.657,244,6.3677,-1.7801,-9.1079,-0.4149,0.0297,0.2124,75,12.91,249,2.7552,-0.1345,-6.8416,-0.0488,-0.8028,0.9228,77,13.379,258,14.0503,0.9455,-10.8664,-0.4968,0.0065,0.9285,73,12.839,247,9.5585,2.7654,-4.1126,-0.256,-0.8361,-0.4507,39
12.709,245,9.705,-3.02,-10.2237,-0.8077,0.2076,0.1429,75,12.961,250,2.8099,-0.9094,-7.798,0.6361,-0.2521,0.8472,77,13.431,259,15.5203,2.0909,-8.0868,-0.6148,0.6601,0.732,73,12.891,248,12.0935,-0.6369,-7.4018,0.4518,-0.5715,-0.4017,39
12.76,246,7.6456,0.4255,-10.0002,0.0849,0.8226,0.3301,75,13.013,251,6.8364,-0.578,-9.21,0.8836,0.0568,0.654,77,13.483,260,14.078,2.1852,-8.8845,0.1348,0.174,0.2345,73,12.942,249,13.0482,-3.1964,-6.9942,-0.3473,0.0078,-0.1258,39
12.812,247,4.9759,1.4848,-9.919,-0.6154,0.2379,-0.4342,75,13.065,252,9.9094,2.1415,-10.3388,0.9302,-0.0948,0.6463,77,13.535,261,11.3587,5.5036,-6.8236,-0.0895,0.4559,-0.3588,73,12.994,250,10.5444,-1.7246,-9.5812,-0.9305,-0.0825,0.5869,39
12.864,248,3.9795,0.026,-9.6299,-0.5182,0.2526,-0.992,75,13.117,253,8.932,4.9571,-6.4175,0.0242,-0.7308,0.3985,77,13.586,262,8.4689,3.4268,-7.4402,-0.5269,1.0111,-0.6602,73,13.046,251,8.5114,-6.3772,-10.6891,-1.3562,-0.6908,1.1087,39
12.916,249,2.11,-2.3409,-8.0548,-0.2485,0.6543,-1.3325,75,13.169,254,7.6919,1.4623,-4.5435,-0.6624,-1.0215,0.2818,77,13.638,263,7.8186,2.808,-10.7879,-0.2432,1.3087,-0.9113,73,13.098,252,6.81,-3.7184,-9.9152,-0.3849,-0.7548,1.4895,39
12.968,250,-0.882,-4.1034,-7.8909,-0.0866,0.7214,-0.927,75,13.22,255,5.2993,2.1469,-4.4601,-0.2035,-0.0664,0.3251,77,13.69,264,4.9895,5.6795,-15.8784,0.499,0.4721,-1.2942,73,13.15,253,6.0355,-1.0172,-8.8423,-0.4301,-1.0123,1.7669,39
13.019,251,3.8587,-5.4413,-6.5815,-0.5182,-0.1429,-0.0471,75,13.272,256,5.3729,2.1688,-8.5237,-0.149,0.6299,-0.0297,77,13.742,265,5.4484,8.0755,-13.6211,-0.311,0.6709,-0.6995,73,13.201,254,7.1473,4.5498,-13.887,-0.4857,-0.9428,1.4826,39
13.071,252,7.8739,-5.2515,-9.1053,0.2824,-0.5199,-0.013,75,13.324,257,1.9932,-0.2478,-11.4662,0.2222,1.1388,-0.7081,77,13.794,266,9.2422,3.1463,-14.6142,0.3916,1.1584,-0.9663,73,13.253,255,10.3337,1.1232,-15.1395,0.3202,-0.6886,0.9185,39
13.123,253,10.8043,-0.435,-8.9389,0.8805,-0.9071,0.5283,75,13.376,258,4.7296,-1.0447,-11.8371,-0.1813,0.6786,-0.5388,77,13.845,267,8.1955,2.0441,-15.8212,-0.3894,1.5238,-0.4196,73,13.305,256,12.6593,1.7804,-15.4061,0.1213,0.1623,0.8165,39
13.175,254,2.3532,2.8744,-10.4417,-0.0109,0.0161,0.6714,75,13.428,259,8.3718,-0.7413,-7.9908,0.5365,0.8551,-0.3287,77,13.897,268,9.3763,-2.2364,-16.7691,-0.7542,0.4388,0.3715,73,13.357,257,9.401,6.0056,-19.2252,0.7632,0.8034,0.0396,39
13.227,255,2.5975,2.2611,-8.8071,-0.2434,-0.6575,0.369,75,13.479,260,11.03,-0.2365,-3.7547,0.5535,0.4106,-0.2447,77,13.949,269,5.891,-0.4214,-12.4109,-1.2071,0.3898,0.9489,73,13.409,258,10.1495,7.1544,-18.9797,0.8195,-0.0804,-0.5019,39
13.278,256,1.8984,0.7801,-8.1499,-0.6301,0.1468,0.0002,75,13.531,261,6.0241,0.3755,-2.8368,0.6939,-0.0191,-0.0367,77,14.001,270,5.5204,1.2226,-9.3879,-1.5562,0.0636,1.3703,73,13.46,259,7.0225,2.7885,-13.1298,0.1118,-0.7255,-0.9968,39
13.33,257,1.6227,0.1176,-7.7416,-0.514,0.1016,0.2229,75,13.583,262,4.0709,1.0371,-3.4811,0.0709,-0.4347,0.3121,77,14.053,271,6.8304,4.676,-14.8566,-1.7991,0.518,1.3295,73,13.512,260,5.8519,0.4471,-9.0759,-0.1304,-0.3045,-1.1512,39
13.382,258,5.8954,-0.6188,-7.1118,-0.5608,-0.5369,0.4584,75,13.635,263,2.577,2.0397,-3.5331,-0.3909,0.1983,0.6576,77,14.105,272,10.2509,-1.8243,-15.6361,-0.6365,0.0306,1.1215,73,13.564,261,6.7571,-4.8357,-14.6052,0.5695,-0.6287,-0.9782,39
13.434,259,9.3603,-2.5295,-8.3457,-1.0406,0.2499,0.5404,75,13.687,264,1.4365,2.4192,-3.5065,-0.2847,0.6187,0.6568,77,14.156,273,11.1217,-0.7176,-17.222,-0.9881,-0.3165,0.7524,73,13.616,262,10.0489,1.7629,-14.566,-0.1898,-0.7188,-0.5961,39
13.486,260,8.6934,-2.2302,-7.3076,-0.7244,0.4808,0.6643,75,13.738,265,0.9276,2.3411,-3.435,-0.2658,1.0096,0.302,77,14.208,274,10.1398,4.8282,-14.8381,-0.3628,-0.2222,0.4073,73,13.667,263,12.4078,-0.0246,-13.1428,0.4741,0.0973,-0.3495,39
13.537,261,3.6722,0.1524,-8.1379,-0.2973,1.033,0.5128,75,13.79,266,5.5969,2.535,-4.2743,-0.3938,0.6504,-0.3836,77,14.26,275,8.0694,0.7078,-16.6472,0.4118,0.0637,-0.3767,73,13.719,264,10.2835,-1.8655,-15.8366,-0.2664,-0.0369,-0.0343,39
13.589,262,2.4633,0.5241,-7.5031,0.0179,0.1141,0.4231,75,13.842,267,8.8163,1.4299,-6.6843,-0.6205,0.2954,-0.3866,77,14.312,276,6.8585,0.9816,-12.1905,0.5371,0.1296,-0.949,73,13.771,265,8.445,-4.1149,-14.0046,-0.5279,-0.0603,0.4157,39
13.641,263,1.1338,1.2999,-7.5343,0.5221,-0.1003,0.1989,75,13.894,268,6.7962,0.5354,-6.9119,-0.9752,-0.457,-0.4029,77,14.364,277,4.8853,-1.8248,-12.8119,1.0677,0.402,-1.3666,73,13.823,266,6.3511,-3.8157,-11.5979,0.0165,0.6216,0.7235,39
13.693,264,1.4921,1.5083,-6.8973,0.7032,-0.2645,-0.1651,75,13.946,269,4.1106,-1.5273,-7.3205,-1.3796,-0.5255,-0.2635,77,14.415,278,6.9313,-0.3529,-6.7666,1.3062,-0.3749,-1.5817,73,13.875,267,6.682,-1.2791,-12.8704,0.3648,1.0338,1.0571,39
13.744,265,6.1466,-0.1286,-6.357,0.8657,-0.8623,-0.0914,75,13.997,270,2.5489,-1.5085,-7.3098,-0.3352,-0.546,0.1504,77,14.467,279,9.3822,-1.0515,-9.2512,0.5668,0.079,-0.5933,73,13.926,268,9.9941,4.3586,-6.7857,-0.3799,0.0877,1.146,39
13.796,266,9.5437,-2.762,-8.5933,0.1124,0.0244,0.0933,75,14.049,271,2.0784,-1.1229,-7.2024,0.4271,-0.4446,0.4429,77,14.519,280,11.2842,-6.0045,-11.6919,1.0902,0.736,-0.74,73,13.978,269,11.8259,1.9561,-9.2215,0.3974,-0.1435,0.6819,39
13.848,267,9.4869,-3.2306,-9.2376,0.2977,0.1156,0.3822,75,14.101,272,1.7949,-0.979,-5.0959,0.0108,-0.6505,0.4061,77,14.571,281,9.428,-3.1725,-11.0302,0.1205,1.2074,-0.0364,73,14.03,270,13.7484,0.9369,-9.1203,-0.3649,-0.6419,0.4025,39
13.9,268,2.4372,-0.1933,-9.7357,0.3177,0.684,0.2195,75,14.153,273,6.2299,-0.9206,-6.3987,0.4535,0.0189,0.2338,77,14.622,282,7.3417,-4.6357,-15.099,-0.095,0.2597,0.217,73,14.082,271,11.9704,5.6947,-11.776,0.4083,-0.4916,-0.3319,39
13.952,269,2.1336,0.4769,-7.9806,0.6707,-0.1701,0.0553,75,14.205,274,9.4667,1.0265,-6.8227,0.6477,-0.0749,-0.0183,77,14.674,283,7.6476,-2.9322,-12.6459,0.5821,-0.4839,0.4686,73,14.133,272,10.5466,7.8129,-10.7181,0.9084,-0.728,-0.9137,39
14.003,270,1.564,0.769,-5.9976,1.158,-0.2058,0.0201,75,14.257,275,6.2366,-0.2007,-6.5251,-0.2073,-0.7274,-0.1735,77,14.726,284,4.4744,-1.5613,-9.5748,0.5495,-0.4604,0.7322,73,14.185,273,7.9612,4.1893,-9.891,0.4869,-0.5926,-1.3382,39
14.055,271,2.2609,2.6632,-4.3011,0.9019,0.0104,-0.0291,75,14.308,276,3.4312,-0.2185,-7.1003,-0.1149,-1.0297,-0.1631,77,14.778,285,5.8995,4.2124,-14.993,-0.1397,0.0856,1.0115,73,14.237,274,6.048,0.8813,-10.3579,0.9937,-0.283,-1.6481,39
14.107,272,4.3055,2.3671,-5.198,-0.0191,-0.1593,-0.0114,75,14.36,277,3.1589,-0.067,-8.907,-0.1763,-0.9328,0.0625,77,14.83,286,5.5993,2.4954,-12.1416,-0.0351,0.5377,1.0973,73,14.289,275,4.2917,1.2773,-12.9572,0.9575,-0.1245,-1.4294,39
14.159,273,8.2,-1.6699,-10.7036,-0.1872,0.5662,0.2241,75,14.412,278,1.6869,-0.9002,-9.9498,0.4524,-0.6174,-0.1875,77,14.881,287,7.2177,3.9932,-14.6875,-0.1896,1.0708,0.8311,73,14.341,276,8.2496,5.2696,-11.2389,0.0217,-0.1251,-0.7527,39
14.211,274,10.7146,-3.0922,-11.5677,0.4364,-0.2543,0.3181,75,14.464,279,2.251,-0.3095,-10.0786,0.0003,-1.1232,-0.0096,77,14.933,288,8.4211,3.9266,-11.4485,-0.5797,1.4599,1.0099,73,14.392,277,11.1382,3.2533,-10.7774,0.6905,-0.3884,-0.6215,39
14.262,275,8.1222,1.4836,-11.5459,0.6793,0.4968,0.4636,75,14.516,280,6.5627,0.4063,-12.2571,-0.6798,-1.4925,0.0056,77,14.985,289,5.7987,4.3928,-11.9619,-0.5313,1.4872,0.5617,73,14.444,278,10.8409,1.1122,-13.5651,0.2314,0.3915,-0.2315,39
14.314,276,4.3122,0.4689,-11.6603,0.2055,-0.2389,0.141,75,14.567,281,9.7097,1.7224,-15.5381,-0.5278,-1.4335,-0.1257,77,15.037,290,5.4772,7.7032,-10.4722,-1.058,1.4599,0.0821,73,14.496,279,9.7911,-3.1421,-12.0871,-0.3713,0.0618,0.511,39
14.366,277,3.993,0.3385,-10.9978,0.1076,-0.8437,-0.0514,75,14.619,282,8.3374,-0.0451,-12.9918,-1.0643,-0.4414,-0.3052,77,15.089,291,4.1142,3.802,-10.5177,-0.8049,1.7102,-0.4858,73,14.548,280,7.4887,-1.4067,-10.1509,-0.295,0.1148,1.0533,39
14.418,278,2.9599,0.763,-9.6214,-0.1422,-0.0848,-0.1502,75,14.671,283,4.3363,-1.2142,-11.4273,-0.6734,-0.5747,-0.3888,77,15.14,292,3.0902,2.7712,-11.5207,0.089,1.5833,-0.9825,73,14.6,281,6.1478,-2.0961,-9.4094,-0.8924,-0.0065,1.4491,39
14.47,279,1.408,0.4851,-8.7703,-0.233,-0.081,-0.1343,75,14.723,284,3.4969,-0.755,-9.8169,-0.9826,-0.6266,0.3761,77,15.192,293,3.2498,2.7216,-15.0636,0.7415,0.4821,-0.2793,73,14.651,282,5.0656,0.929,-10.0183,-1.3284,-0.483,1.7379,39
14.521,280,6.0853,-1.5716,-8.4315,-0.3672,-0.7284,-0.0119,75,14.775,285,2.1923,-1.3665,-9.1469,-1.3972,-0.735,0.9264,77,15.244,294,4.563,7.3382,-12.0524,0.023,0.4565,-0.1113,73,14.703,283,8.8144,5.9702,-5.3086,-1.4633,-0.6619,1.0963,39
14.573,281,9.4989,-6.3447,-12.2385,-0.863,-0.5479,0.1397,75,14.827,286,2.0814,-1.7966,-9.0325,-0.9185,-0.3941,1.2332,77,15.296,295,7.7536,5.8103,-13.9952,0.5359,0.4186,-0.2193,73,14.755,284,11.5504,-0.9395,-8.7067,-0.3933,-0.5694,0.7856,39
14.625,282,11.0519,-4.8376,-10.7782,-0.1046,-0.6129,0.3426,75,14.879,287,2.5603,-1.2459,-10.9934,0.0013,0.327,1.0964,77,15.348,296,8.2153,-0.9965,-14.0713,-0.2569,0.9839,0.148,73,14.807,285,13.5473,-2.8946,-10.8109,-0.8828,0.1734,0.7111,39
14.677,283,7.2942,-0.7897,-10.5243,0.0791,0.2351,0.5286,75,14.93,288,6.7885,1.6327,-15.9633,0.5251,0.8683,0.4649,77,15.399,297,8.01,-0.4904,-14.8134,-0.8627,0.4726,0.7857,73,14.858,286,11.4517,0.9307,-14.5038,0.0304,0.8115,0.031,39
14.728,284,5.4502,-1.0263,-8.72,-0.1157,-0.4977,0.1635,75,14.982,289,9.8745,1.0202,-19.128,0.6481,1.2864,-0.2643,77,15.451,298,5.0775,-0.4044,-10.5124,-1.1761,0.4399,1.2455,73,14.91,287,9.1962,2.4928,-14.9731,0.6718,-0.0745,-0.4343,39
14.78,285,4.4512,-1.0376,-8.1497,0.5381,-0.3423,-0.0631,75,15.034,290,7.0725,-1.2165,-15.9856,-0.207,0.4539,-0.1674,77,15.503,299,4.7429,5.0567,-7.5612,-0.4208,0.8154,1.1644,73,14.962,288,7.1159,0.0595,-10.326,0.1867,-0.5583,-0.7649,39
14.832,286,3.5673,0.1244,-8.042,0.4406,-0.163,-0.1739,75,15.086,291,4.7441,-1.8642,-13.4922,-0.8283,0.0135,0.4336,77,15.555,300,6.5338,6.3718,-10.8534,0.2701,-0.0436,0.4429,73,15.014,289,6.6972,-1.8007,-7.8319,0.0237,-0.126,-0.8085,39
14.884,287,7.5219,-2.0851,-8.2767,0.052,-0.7883,-0.1164,75,15.138,292,3.6377,-1.4439,-11.5441,-0.4593,0.3456,0.6311,77,15.607,301,10.0344,0.0461,-10.229,-0.0665,-0.4122,0.5506,73,15.066,290,8.2758,-2.202,-8.5387,0.529,-0.608,-0.6971,39
14.936,288,9.3308,-3.0639,-9.7415,-0.3108,0.0683,-0.1784,75,15.189,293,2.0556,-1.136,-10.1848,-0.1967,0.0215,0.4611,77,15.658,302,12.1386,-3.1282,-10.4143,-0.0999,-0.4482,0.3881,73,15.117,291,11.1574,-0.6616,-8.0673,0.2771,-0.5738,-0.5322,39
14.987,289,8.8302,-2.7398,-9.7827,-0.76,0.4541,0.1428,75,15.241,294,3.1519,-1.4635,-11.0294,0.2036,-0.0444,0.402,77,15.71,303,11.807,-0.9446,-10.7323,0.0825,-0.1457,0.3092,73,15.169,292,11.0314,0.9101,-9.1317,0.2546,-0.3346,-0.3736,39
15.039,290,7.9653,-2.1728,-9.0833,-0.8419,0.5266,0.3491,75,15.293,295,7.1876,0.0554,-13.1695,0.8204,0.4224,0.0887,77,15.762,304,10.4912,-0.9751,-11.1086,0.3498,0.058,0.2346,73,15.221,293,10.1709,-0.1367,-9.6814,0.1611,-0.1734,-0.2557,39
15.091,291,7.4278,-1.5897,-8.402,-0.4791,0.6265,0.3576,75,15.345,296,7.586,0.1126,-13.28,1.2494,0.8028,-0.352,77,15.813,305,9.9248,-1.5547,-11.5069,0.3937,0.1045,0.287,73,15.273,294,8.8744,-0.0048,-10.7687,0.1758,-0.1254,-0.1658,39
