right_hand_timestamp,right_hand_index,right_hand_accel_x,right_hand_accel_y,right_hand_accel_z,right_hand_gyro_x,right_hand_gyro_y,right_hand_gyro_z,right_hand_battery_percentage,left_hand_timestamp,left_hand_index,left_hand_accel_x,left_hand_accel_y,left_hand_accel_z,left_hand_gyro_x,left_hand_gyro_y,left_hand_gyro_z,left_hand_battery_percentage,right_leg_timestamp,right_leg_index,right_leg_accel_x,right_leg_accel_y,right_leg_accel_z,right_leg_gyro_x,right_leg_gyro_y,right_leg_gyro_z,right_leg_battery_percentage,left_leg_timestamp,left_leg_index,left_leg_accel_x,left_leg_accel_y,left_leg_accel_z,left_leg_gyro_x,left_leg_gyro_y,left_leg_gyro_z,left_leg_battery_percentage
0.656,12,12.799,-0.5829,-12.9805,0.4746,0.297,-0.3616,75,0.041,0,6.8597,4.1209,-11.0933,0.7411,0.3339,-0.487,74,0.183,3,9.5001,-0.2105,-11.0644,0.0906,-0.0016,0.2651,70,0.9,17,5.0679,-1.7854,-12.6491,-0.3743,-0.6023,0.9036,39
0.707,13,10.2577,1.9659,-13.4536,0.6422,-0.4486,-0.9378,75,0.093,1,5.7865,4.2565,-9.4697,0.781,0.4609,-0.4722,74,0.235,4,9.3466,-0.4337,-9.9584,-0.0932,-0.3589,0.2317,70,0.952,18,8.8161,-3.1114,-14.8004,-0.0597,0.152,0.0182,39
0.759,14,7.8445,0.938,-11.9764,-0.2087,-0.9863,-1.3596,75,0.145,2,2.5684,5.9391,-7.5659,0.0883,1.0153,-0.421,74,0.286,5,8.2236,-1.267,-11.5055,-0.3156,-0.7047,0.2904,70,1.003,19,8.4088,0.4837,-14.8845,0.6311,0.7959,-0.6548,39
0.811,15,8.842,-2.6718,-11.4477,-0.8297,-0.1061,-1.5801,75,0.197,3,6.7944,6.4157,-9.0167,-0.6156,0.0684,0.3581,74,0.338,6,8.9425,-1.2757,-12.0835,-0.3026,-0.9314,0.274,70,1.055,20,4.1815,-0.6325,-15.1946,1.1353,0.5733,-0.5337,39
0.863,16,6.2333,-5.3794,-14.7488,-1.2829,0.605,-1.372,75,0.248,4,9.8787,10.0093,-12.1934,0.2224,0.729,0.0191,74,0.39,7,10.1061,-1.3479,-14.0882,-0.1691,-0.8515,0.2162,70,1.107,21,4.0736,2.3201,-16.1439,0.2119,-0.0646,-0.2352,39
0.914,17,4.9544,-5.7249,-15.4883,-0.262,-0.2278,-1.1007,75,0.3,5,7.5996,10.9221,-13.3035,-0.2868,0.8135,-0.5482,74,0.442,8,12.6416,-2.7063,-14.3259,-0.1169,-0.1722,-0.1408,70,1.159,22,1.8859,-2.1878,-13.7827,0.3642,-0.0818,-0.3024,39
0.966,18,8.6736,-3.4701,-16.3773,0.4832,-0.8356,-0.7402,75,0.352,6,4.5173,6.9665,-12.8999,-0.6088,0.957,-1.0864,74,0.494,9,10.8922,-4.0908,-10.8534,-0.7605,0.5479,-0.1359,70,1.21,23,0.7395,-4.4526,-18.0404,0.4141,-0.279,0.2932,39
1.018,19,11.388,0.8708,-15.5604,1.027,-0.4638,-0.0208,75,0.404,7,3.3965,5.9813,-13.1825,-0.4876,0.0258,-1.4793,74,0.545,10,8.7399,-5.5613,-10.2082,0.0789,0.6093,0.2365,70,1.262,24,5.657,-4.1848,-15.8051,-0.3627,-0.5817,0.1176,39
1.07,20,9.9794,2.1876,-11.9825,0.0781,-0.2782,0.6613,75,0.456,8,6.4406,3.1702,-12.0345,-1.0359,-0.6538,-1.7605,74,0.597,11,3.6137,-3.0284,-10.8205,0.7341,1.093,-0.0734,70,1.314,25,9.246,-3.4713,-13.6407,-0.2585,-0.0913,-0.1246,39
1.122,21,7.3606,0.8494,-11.4073,0.6768,-0.1268,0.6469,75,0.508,9,3.992,4.0414,-8.7857,-0.1104,-0.014,-1.9712,74,0.649,12,2.5573,-0.5817,-12.6281,-0.1394,1.1384,0.2595,70,1.366,26,11.364,-2.7163,-9.4675,0.0345,-0.1725,0.1813,39
1.173,22,5.8414,3.1109,-10.4271,1.1683,0.4023,0.3998,75,0.559,10,3.7194,4.4858,-8.5656,-0.7606,-0.6829,-1.9393,74,0.701,13,3.7161,-4.1739,-17.2214,0.5748,0.2439,0.1229,70,1.418,27,11.4452,-2.8965,-8.1587,-0.6519,0.1425,0.8126,39
1.225,23,4.0926,3.6032,-9.6038,0.2203,0.7551,-0.0199,75,0.611,11,7.6344,5.0345,-11.845,0.1166,0.081,-1.011,74,0.753,14,7.9779,-6.4289,-13.1709,-0.2542,-0.0499,0.69,70,1.469,28,5.9593,-1.1832,-9.1524,0.1523,0.7889,0.8129,39
1.277,24,8.0445,0.9746,-11.4978,-0.1056,0.4007,0.1099,75,0.663,12,7.3123,7.531,-13.006,0.177,0.4143,-0.1367,74,0.804,15,8.3386,-1.3408,-15.7555,-0.8566,0.5391,0.4309,70,1.521,29,7.1611,-0.2475,-11.0034,-0.0535,0.8986,0.6169,39
1.329,25,10.9289,1.0257,-16.3881,0.5973,0.9744,0.3648,75,0.715,13,6.4779,3.9543,-13.2927,0.6181,0.9815,-0.2775,74,0.856,16,5.9413,1.1237,-17.7586,-0.7849,0.5046,-0.3017,70,1.573,30,10.3438,5.1115,-16.0119,0.6352,-0.0109,0.16,39
1.38,26,9.9825,4.5886,-15.0542,-0.1667,1.3936,0.9429,75,0.767,14,2.929,4.7824,-15.0917,1.1229,1.3954,0.41,74,0.908,17,3.9347,-2.677,-17.3185,-1.0092,-0.2012,-0.8942,70,1.625,31,12.511,2.7597,-15.937,0.0694,0.3061,-0.0586,39
1.432,27,2.9318,7.4116,-14.7779,-0.6731,1.6995,1.2031,75,0.818,15,-2.1797,6.3669,-14.933,1.3273,1.4665,0.1627,74,0.96,18,2.23,-1.7514,-15.4204,-0.3676,-0.7741,-1.3266,70,1.676,32,12.2443,1.1531,-15.5743,0.6522,0.4342,-0.7142,39
1.484,28,0.6317,5.045,-12.0811,0.1773,0.5711,0.203,75,0.87,16,-3.1872,7.1228,-14.2537,1.2603,1.2706,-0.3106,74,1.012,19,2.7152,-2.5093,-18.3164,0.4083,-0.8193,-1.4459,70,1.728,33,8.7332,-0.0737,-18.5992,1.1507,-0.2427,-1.1927,39
1.536,29,4.6943,-1.5157,-6.2262,-0.43,-0.1889,-0.527,75,0.922,17,2.5938,10.1393,-18.3428,0.9959,0.2546,0.4387,74,1.063,20,7.2474,-3.0113,-17.1868,0.1217,-0.5457,-0.635,70,1.78,34,8.53,-2.0336,-17.4218,1.5145,-0.8439,-0.7975,39
1.588,30,3.6008,-4.5726,-4.956,0.3413,0.5243,0.2178,75,0.974,18,1.22,12.7269,-14.454,1.3491,0.8556,0.5292,74,1.115,21,10.5552,-2.9933,-19.2381,0.1621,0.2801,-0.7577,70,1.832,35,3.7313,-1.5377,-11.438,1.3394,-1.2066,-0.3745,39
1.639,31,7.6857,-5.2657,-2.931,0.9235,0.2816,0.8208,75,1.026,19,-0.5975,9.4229,-13.4196,0.3046,1.3035,-0.2983,74,1.167,22,6.2138,-4.6469,-22.0457,-0.5569,0.8828,0.0114,70,1.884,36,7.8405,2.2328,-9.1815,0.303,-1.5474,0.2348,39
1.691,32,10.6669,-2.4441,-9.7448,1.3484,0.8879,1.2757,75,1.077,20,-3.1508,6.67,-13.0059,0.5338,1.3376,-0.2167,74,1.219,23,7.9571,-6.0927,-23.438,0.2462,-0.0291,0.3656,70,1.935,37,9.1579,1.3519,-11.9573,0.2585,-1.0562,0.5446,39
1.743,33,7.8913,3.2338,-11.1276,0.4234,1.1452,1.6077,75,1.129,21,0.5081,8.0873,-13.3038,1.0612,0.3036,-0.7928,74,1.271,24,5.1993,-1.9892,-18.0183,0.8562,-0.6946,0.9352,70,1.987,38,10.4068,0.1784,-13.2868,0.2161,-0.4968,0.2797,39
1.795,34,3.5711,4.4636,-11.9427,-0.3683,1.5182,0.5159,75,1.181,22,-0.1862,5.7367,-12.3434,0.6712,0.9007,-1.265,74,1.322,25,4.2736,0.6834,-13.9018,1.1347,-0.1414,1.258,70,2.039,39,12.6907,-2.5999,-9.423,-0.247,0.2803,0.6843,39
1.847,35,0.3251,-0.4559,-11.8631,-0.9462,1.3499,-0.2986,75,1.233,23,0.3606,6.8348,-12.3894,1.0036,-0.0153,-1.6096,74,1.374,26,8.3848,5.8507,-7.5621,0.1762,-0.6507,1.3087,70,2.091,40,11.9697,-7.1943,-13.3397,-0.8574,0.8895,1.1797,39
1.898,36,0.4127,-4.087,-9.3061,-1.368,0.3159,-0.3436,75,1.285,24,5.1831,10.3152,-15.3247,0.4607,0.2913,-0.7032,74,1.426,27,11.3853,-0.9278,-9.1738,0.8051,-0.4046,0.9162,70,2.142,41,9.2013,-2.2948,-10.6726,-0.2238,1.1205,1.5414,39
1.95,37,0.335,-6.749,-8.2924,-0.6568,0.7803,0.4256,75,1.336,25,3.7725,9.5018,-15.1169,-0.3438,0.7196,-0.2808,74,1.478,28,13.5753,0.4018,-12.0338,-0.0876,-0.1669,0.6895,70,2.194,42,7.2601,0.4991,-10.5376,-0.5149,0.9533,1.6758,39
2.002,38,5.3021,-5.9389,-6.1409,0.195,-0.0999,0.1735,75,1.388,26,-2.7838,9.7373,-13.0225,0.1896,1.2042,0.4605,74,1.529,29,12.9151,3.2708,-11.0231,-0.7392,0.0164,0.386,70,2.246,43,5.6414,-4.9326,-15.672,-1.0386,1.3363,1.4076,39
2.054,39,8.9273,-5.9421,-8.6337,-0.4201,-0.3396,0.2016,75,1.44,27,-4.1714,9.1796,-14.0273,-0.5417,0.4723,0.0349,74,1.581,30,10.4458,2.8908,-13.4751,0.1371,-0.4905,-0.3786,70,2.298,44,9.2347,-6.1412,-14.2721,-0.5614,1.2157,1.3362,39
2.106,40,6.7863,-2.1827,-7.3455,0.3677,0.0737,0.2648,75,1.492,28,0.0119,5.6596,-14.3344,-0.6864,-0.3175,0.3871,74,1.633,31,7.7515,2.1508,-10.9577,-0.5752,0.2989,-0.9487,70,2.35,45,11.8571,-5.7675,-15.247,-0.1995,1.4458,0.43,39
2.157,41,2.0352,2.8177,-8.7593,-0.3537,0.7362,-0.2822,75,1.544,29,-1.9038,5.9152,-12.2995,-0.3324,0.4473,-0.2597,74,1.685,32,6.3595,-0.3679,-13.3949,0.1424,0.8965,-1.3632,70,2.402,46,7.0712,-3.1365,-19.1091,0.5291,0.8884,-0.3086,39
2.209,42,0.4083,0.1187,-10.8694,0.0693,0.8043,-0.7078,75,1.595,30,2.0199,6.472,-16.9165,-0.6057,-0.3462,-0.8759,74,1.737,33,3.7914,2.1988,-16.5633,-0.2242,0.0884,-0.7086,70,2.453,47,10.2781,0.3366,-18.233,-0.2771,-0.0184,0.1877,39
2.261,43,1.0308,0.9622,-11.9499,0.6668,-0.0823,-1.1917,75,1.647,31,6.0469,7.9679,-18.298,0.2297,0.4264,-0.8386,74,1.788,34,8.0329,0.5491,-18.1597,-0.3984,-0.3227,-0.3704,70,2.505,48,5.7242,-0.6673,-14.7263,-0.8516,-0.5738,-0.083,39
2.312,44,5.7545,4.2406,-10.0562,0.18,-0.7294,-1.5448,75,1.699,32,4.686,7.7461,-16.5375,0.3628,0.5869,-0.5131,74,1.84,35,11.1285,2.9285,-15.2969,-0.5129,-0.1463,-0.0331,70,2.557,49,4.9725,-2.604,-11.8814,-0.3526,-0.4511,-0.7319,39
2.364,45,9.2575,-1.9248,-10.9927,0.5235,-1.154,-1.7943,75,1.751,33,2.1844,6.1123,-16.7608,0.7199,1.1074,-0.4298,74,1.892,36,10.8368,-3.0997,-12.7692,-1.0496,0.1492,0.3382,70,2.609,50,8.7464,-0.6564,-6.9376,0.4174,-0.4922,-1.0294,39
2.416,46,11.8141,3.2346,-10.5812,1.0565,-0.1598,-0.6854,75,1.803,34,-1.1868,8.4482,-16.3499,0.861,0.1356,-0.3683,74,1.944,37,6.856,-5.6266,-10.1047,-0.7179,0.7036,0.8517,70,2.66,51,11.5008,-1.8206,-13.0446,-0.3675,-0.9549,-0.6272,39
2.468,47,5.8474,4.4799,-7.7324,0.0937,0.5658,-0.0194,75,1.855,35,0.9821,7.6406,-14.2379,0.6859,-0.5737,-0.6311,74,1.996,38,3.9615,-4.1884,-11.6781,0.1526,1.1919,0.9217,70,2.712,52,13.5111,0.4815,-9.999,0.1718,-0.409,-0.4852,39
2.52,48,3.7976,0.9214,-7.7503,0.6328,0.4527,0.3367,75,1.906,36,0.7936,9.1346,-11.4505,0.2429,-1.0914,-1.1407,74,2.047,39,3.3037,-2.8328,-15.9072,0.5103,1.2069,1.2882,70,2.764,53,11.9268,1.8815,-9.1184,-0.5517,0.3864,0.3262,39
2.571,49,5.9132,0.7437,-7.5574,1.1362,0.6219,0.892,75,1.958,37,5.4991,11.4046,-12.3061,0.0554,-1.4692,-1.5189,74,2.099,40,2.3487,-5.4981,-19.6146,0.28,0.5366,1.6078,70,2.816,54,9.8003,0.5055,-8.5826,-0.2715,0.967,0.9184,39
2.623,50,6.3606,1.2158,-9.1501,0.4659,1.1363,1.314,75,2.01,38,8.9334,11.5374,-13.3159,0.4892,-0.3932,-1.0759,74,2.151,41,6.9799,-1.0026,-18.3545,0.0514,0.8736,0.8577,70,2.868,55,6.5507,0.5644,-8.5451,0.199,1.3907,0.5734,39
2.675,51,9.6999,1.6267,-11.5073,0.1532,1.5117,1.6357,75,2.062,39,7.2317,8.4552,-13.2721,-0.323,0.3783,-1.0712,74,2.203,42,8.6977,0.0403,-18.6153,-0.4504,1.3159,0.569,70,2.919,56,6.0819,3.7332,-14.2178,-0.5319,1.7,0.9428,39
2.727,52,12.137,0.2721,-11.4616,-0.0938,1.6829,1.3842,75,2.114,40,2.4127,2.6767,-16.3057,-0.4139,0.9552,-1.3034,74,2.255,43,8.8239,-5.2076,-21.5911,-0.1413,0.9796,-0.2289,70,2.971,57,5.501,8.0168,-18.3579,0.2865,0.5739,0.3057,39
2.778,53,9.1145,3.5397,-10.5063,-0.6506,0.9979,1.4816,75,2.165,41,0.5204,3.3792,-14.7443,0.3304,0.6887,-0.3749,74,2.307,44,7.3341,-3.1479,-19.3317,-0.7783,0.0415,-0.6797,70,3.023,58,9.1322,3.2108,-20.0703,-0.1856,0.7679,0.1901,39
2.83,54,4.6819,4.3787,-7.8253,-1.1522,0.1639,0.8718,75,2.217,42,0.04,4.6612,-13.6449,0.5888,0.4031,-0.1039,74,2.358,45,4.7597,-2.2454,-16.6106,-0.5532,-0.4431,-1.1701,70,3.074,59,10.8281,3.2704,-18.6792,0.4454,0.8225,-0.5269,39
2.882,55,0.2803,3.496,-6.6364,-1.5093,0.802,-0.0388,75,2.269,43,-2.2702,5.1881,-14.736,0.2091,0.3294,-0.2664,74,2.41,46,5.0061,-5.093,-20.0857,0.2728,-0.6873,-1.528,70,3.126,60,7.4754,-0.9038,-21.6141,0.995,0.3761,-1.0527,39
2.934,56,0.3706,-0.8478,-7.7452,-1.779,-0.084,-0.2912,75,2.321,44,3.263,9.1133,-18.6948,0.8243,-0.4323,0.4407,74,2.462,47,8.9194,-6.6436,-15.0873,-0.4327,-0.7796,-0.5237,70,3.178,61,7.0391,0.2563,-19.5462,0.6839,-0.3923,-1.0763,39
2.986,57,1.7746,-5.2924,-9.4481,-0.6271,0.1435,0.1897,75,2.373,45,2.3411,11.9704,-14.684,0.0663,-0.2111,0.9417,74,2.514,48,11.7755,-4.7333,-16.4253,-0.2017,0.0571,-0.749,70,3.23,62,2.8891,-0.1338,-16.2014,0.803,-0.9081,-1.4567,39
3.037,58,6.3528,-5.0576,-6.4212,0.2167,-0.0004,0.8151,75,2.424,46,1.5779,5.7779,-16.1282,-0.6317,0.0421,0.3282,74,2.566,49,7.981,-6.719,-19.9928,-0.8224,0.7192,-0.1814,70,3.282,63,3.4866,-4.8481,-15.1523,0.4645,-0.8127,-1.2293,39
3.089,59,9.6942,-6.5075,-8.4721,-0.1317,0.5495,1.2411,75,2.476,47,0.8677,4.7067,-15.4339,0.2107,0.1699,-0.2279,74,2.617,50,8.3548,-9.8893,-19.6845,-0.4289,-0.1485,0.5139,70,3.333,64,7.662,1.7538,-18.7094,-0.338,-1.2599,-0.465,39
3.141,60,10.3493,-1.4457,-7.9888,0.2595,0.2603,0.4846,75,2.528,48,0.3575,3.3234,-15.1305,0.2778,-0.0661,-0.5074,74,2.669,51,5.7646,-5.4673,-16.3076,0.3635,-0.7818,1.0517,70,3.385,65,7.3929,-4.0168,-17.6749,0.3315,-0.7249,-0.336,39
3.193,61,6.2758,3.6806,-9.0019,-0.488,0.5332,0.0918,75,2.58,49,-0.3168,5.2615,-13.1175,0.8676,0.1907,-0.8092,74,2.721,52,2.9896,-3.5224,-13.1873,0.5669,-0.4932,1.4453,70,3.437,66,10.513,-5.5898,-15.3402,0.1376,0.0527,-0.3297,39
3.244,62,6.0479,1.964,-9.4624,-1.0301,0.1383,-0.6081,75,2.632,50,-3.651,7.3345,-10.6151,0.0437,-0.4835,-1.0572,74,2.773,53,3.0036,0.4399,-17.6296,-0.0381,0.3184,1.6855,70,3.489,67,10.9476,0.1481,-13.8925,-0.5766,0.7234,0.4397,39
3.296,63,4.8978,-1.9685,-12.2688,-1.4292,0.7833,-1.119,75,2.683,51,2.2552,10.6799,-15.6872,0.3431,-1.0255,-0.1236,74,2.824,54,7.4579,-0.953,-16.4493,0.0485,0.3697,1.1649,70,3.541,68,8.4635,-5.1787,-13.1983,-1.0914,0.5283,1.0013,39
3.348,64,-0.9486,-6.6344,-13.8703,-1.2224,1.2541,-0.4288,75,2.735,52,0.9802,13.1215,-13.8255,0.7038,-0.0694,-0.2912,74,2.876,55,10.7089,0.9705,-15.8287,-0.1423,0.6093,0.8105,70,3.592,69,4.7603,-0.0519,-11.0475,-0.4895,0.9512,1.4111,39
3.4,65,-0.7139,-10.0398,-12.9121,-0.707,0.246,0.3637,75,2.787,53,-0.1746,8.1188,-12.8316,-0.1664,0.521,0.0182,74,2.928,56,11.0152,3.3565,-13.3955,-0.7634,0.8376,0.4716,70,3.644,70,6.4669,1.3639,-10.4325,0.1482,1.0151,1.5024,39
3.452,66,4.5366,-9.3242,-12.3392,0.1584,-0.4898,0.3587,75,2.839,54,-4.3879,7.5996,-11.6877,-0.0658,1.0593,0.6786,74,2.98,57,9.4538,-0.8452,-15.1319,-0.0845,0.2837,-0.1701,70,3.696,71,6.2656,3.9441,-13.1634,-0.169,0.4022,1.0859,39
3.504,67,8.3686,-4.5941,-9.1722,0.3857,-0.3228,0.786,75,2.891,55,-3.2551,5.2646,-12.3209,-0.7281,0.1005,0.6305,74,3.032,58,6.3606,1.8684,-12.9764,-0.7369,0.4979,-0.6282,70,3.748,72,9.6902,-1.4253,-11.3047,0.1565,0.5962,1.1047,39
3.555,68,3.3928,0.1262,-8.4584,-0.2901,0.4469,1.2503,75,2.943,56,-2.4522,4.9577,-12.4729,-0.0759,0.5851,0.7456,74,3.083,59,4.9107,1.6667,-12.4838,-0.8654,1.0418,-0.987,70,3.8,73,8.5331,-1.7606,-14.5353,0.7226,1.0665,0.1351,39
3.607,69,2.4919,1.0633,-11.7415,-0.5567,1.0068,0.2374,75,2.994,57,-2.2176,6.4107,-11.8816,0.2391,-0.1509,0.2529,74,3.135,60,4.7913,-2.5506,-14.4761,0.045,1.3716,-1.3944,70,3.851,74,6.181,0.3863,-18.0619,1.202,0.1212,-0.3919,39
3.659,70,3.2705,2.8946,-12.4247,-0.3388,0.0655,-0.5018,75,3.046,58,3.3014,10.0056,-16.0816,-0.3838,-0.7828,-0.2496,74,3.187,61,3.7195,-2.1571,-14.6904,0.7093,0.3549,-1.1955,70,3.903,75,7.0869,4.1203,-16.7036,0.2002,-0.5784,0.0185,39
3.711,71,4.1444,1.8777,-11.9198,-0.7712,0.3588,-1.0414,75,3.098,59,7.2961,10.9624,-15.351,0.3895,-0.0772,-0.3194,74,3.239,62,7.9804,3.205,-16.0885,-0.1575,-0.0163,-0.7795,70,3.955,76,5.8028,3.4627,-13.5052,0.4986,-1.0821,-0.6579,39
3.762,72,8.0823,-0.6038,-11.1085,-0.9066,-0.4075,-1.4351,75,3.15,60,2.6884,9.0341,-14.5536,-0.3958,0.6228,-0.3198,74,3.291,63,11.0902,3.3754,-12.9445,-0.2697,0.2654,-0.404,70,4.007,77,5.7872,0.7252,-12.6039,1.0386,-1.0124,-1.1516,39
3.814,73,10.9565,-2.2718,-11.3816,-1.3378,-0.7609,-1.4266,75,3.202,61,-3.7079,7.1154,-13.8353,-0.8,1.1336,0.4319,74,3.342,64,9.4673,-2.7735,-13.8039,-0.8657,0.2725,-0.0115,70,4.059,78,9.3411,-1.6766,-6.5911,1.4327,-1.2615,-1.3432,39
3.866,74,8.9297,-3.892,-8.2893,-0.3978,-0.0567,-0.3646,75,3.254,62,-1.689,6.4697,-13.7259,-1.2632,0.1547,-0.1788,74,3.394,65,8.2042,-3.5887,-10.5777,0.0447,0.8584,0.553,70,4.11,79,11.9348,-5.5021,-10.4139,1.6368,-0.4851,-0.4865,39
3.918,75,4.6451,-4.4305,-7.4889,0.3841,0.641,-0.0166,75,3.306,63,-2.4616,7.7104,-12.0388,-1.2425,-0.5578,-0.8169,74,3.446,66,5.583,-3.3981,-12.0041,0.3842,1.3049,1.0795,70,4.162,80,13.8278,-4.0547,-8.4456,1.0219,0.1878,-0.344,39
3.97,76,3.8361,-3.9096,-8.033,0.006,-0.0257,0.5739,75,3.357,64,0.9891,10.1664,-9.7829,-1.5868,-1.0798,-1.2826,74,3.498,67,4.9339,-1.3934,-15.433,0.764,1.4253,1.4116,70,4.214,81,12.3293,-3.7251,-8.4366,0.5705,0.7104,0.2158,39
4.021,77,5.6949,-3.7976,-8.9348,0.3231,0.5941,1.0848,75,3.409,65,4.7266,10.4049,-15.0798,-1.8382,-1.4607,-1.3426,74,3.55,68,4.7846,-6.254,-19.2686,1.1632,1.0681,1.6711,70,4.266,82,8.9932,-3.1957,-7.149,0.4169,1.2035,0.6643,39
4.073,78,6.1415,-3.6313,-7.8466,0.9102,0.9238,1.4684,75,3.461,66,6.0026,10.8131,-15.6876,-0.6698,-0.387,-1.0867,74,3.602,69,5.8666,-1.6932,-18.9691,0.7282,1.4044,1.1212,70,4.318,83,7.8516,-1.8817,-8.0397,0.9789,1.5633,0.1681,39
4.125,79,9.5399,-4.0458,-10.294,1.3387,1.3465,1.7483,75,3.513,67,4.4573,7.7922,-14.0641,-1.0845,-0.4816,-0.1278,74,3.653,70,9.1672,1.8665,-16.9678,0.1366,1.7033,0.3054,70,4.369,84,7.1648,-0.2572,-11.6366,1.2635,1.8259,-0.1281,39
4.177,80,12.0203,-3.5505,-10.6711,0.4139,1.6652,1.9265,75,3.565,68,2.6197,4.6382,-12.6057,-1.337,0.03,0.4857,74,3.705,71,9.012,1.5466,-17.1551,-0.5277,0.5698,-0.0166,70,4.421,85,4.4573,0.2166,-9.7084,0.3401,1.0037,0.2605,39
4.229,81,8.5133,-0.2472,-11.2004,-0.3753,1.7215,2.0827,75,3.616,69,1.1606,4.0502,-11.6314,-0.3756,0.701,1.0198,74,3.757,72,7.3405,0.552,-14.8108,-1.0604,-0.2576,-0.5334,70,4.473,86,7.0503,-5.1387,-5.0942,0.5548,1.2619,0.2489,39
4.28,82,0.681,3.4472,-11.2,-0.9513,1.9388,2.0396,75,3.668,70,-0.9,6.5663,-11.5409,-0.0399,1.1448,0.6867,74,3.809,73,6.384,3.6191,-13.217,-1.1252,-0.3871,-1.0061,70,4.525,87,10.2629,-3.8622,-7.0233,0.7178,1.2472,-0.4897,39
4.332,83,-1.8179,-0.3369,-12.3627,-0.7027,0.7457,1.0025,75,3.72,71,-2.7158,9.0757,-9.6151,0.1902,1.0311,0.3813,74,3.861,74,5.2514,-1.3432,-11.4385,-0.2527,-0.3868,-1.4083,70,4.576,88,6.1735,-4.2856,-13.1071,1.1986,0.7665,-1.0283,39
4.384,84,-2.2932,-3.2186,-10.4996,-0.5317,-0.1251,0.6533,75,3.772,72,-0.201,10.961,-14.9573,0.0402,0.0799,0.8088,74,3.912,75,9.0984,-5.3224,-8.6517,0.2916,-0.836,-0.7923,70,4.628,89,7.7893,-0.4588,-14.3709,0.8398,-0.1074,-0.4175,39
4.436,85,-1.0134,-5.7303,-10.4005,-0.5739,-0.7606,1.1534,75,3.824,73,4.2398,12.6301,-16.1009,0.7011,0.7374,0.0856,74,3.964,76,11.9062,-0.3709,-14.0297,-0.232,-0.4278,-0.6943,70,4.68,90,6.1945,-1.2792,-9.9352,-0.0642,-0.7424,-0.0478,39
4.487,86,4.318,-9.3799,-11.6054,0.2539,-1.2245,1.5185,75,3.875,74,0.874,8.1967,-14.1914,-0.06,1.1141,-0.1517,74,4.016,77,11.1161,-0.2574,-11.8488,-0.8445,0.3661,0.0532,70,4.732,91,5.629,-5.066,-6.3508,0.5996,-1.2087,-0.1417,39
4.539,87,8.209,-9.7964,-9.4762,0.7419,-0.6388,1.6494,75,3.927,75,-0.0426,4.9164,-12.351,0.0347,0.6319,0.3084,74,4.068,78,9.9772,-5.1411,-15.7351,-0.8603,-0.4062,0.5616,70,4.784,92,7.554,-3.5856,-2.0273,-0.2395,-1.5489,-0.0065,39
4.591,88,6.4911,-7.9402,-8.6372,0.9312,-0.3908,0.7285,75,3.979,76,0.176,5.5008,-13.3035,0.697,-0.2115,-0.4576,74,4.119,79,8.7695,-0.1248,-14.1012,0.0486,-0.9699,0.9146,70,4.835,93,10.6306,-7.9137,-4.8703,0.2056,-1.3499,0.4813,39
4.643,89,8.1368,-0.4052,-8.1529,0.6779,-0.1662,-0.1434,75,4.031,77,0.0232,7.0373,-9.97,-0.1713,-0.3439,-0.3032,74,4.171,80,6.0545,-1.1884,-11.5936,0.196,-1.2579,1.3074,70,4.887,94,11.7731,-6.5693,-6.6938,-0.2222,-0.3003,0.4394,39
4.695,90,10.9962,-1.8181,-9.325,-0.1826,0.5611,-0.7798,75,4.083,78,-0.7786,6.7061,-9.9508,-0.4285,-0.3258,-0.8661,74,4.223,81,5.9784,0.8865,-10.211,0.8195,-0.2397,1.4516,70,4.939,95,10.9652,-3.8352,-5.5826,-0.8392,0.4658,1.001,39
4.746,91,11.4281,-3.1071,-14.2464,-0.8106,1.0919,-1.2442,75,4.135,79,3.6168,7.9267,-11.0476,0.2735,-0.3119,-1.1118,74,4.275,82,9.6291,5.9989,-8.3768,-0.0117,0.2831,1.595,70,4.991,96,7.4072,-3.3926,-11.3916,-1.2896,0.7453,1.4109,39
4.798,92,8.1709,-6.0588,-17.3766,0.0736,1.4794,-1.568,75,4.186,80,5.3442,9.5405,-14.8771,0.6601,0.4515,-0.5132,74,4.327,83,12.2935,4.1159,-9.634,0.5882,0.6394,1.0137,70,5.042,97,5.1133,-3.0841,-10.9277,-0.5305,-0.0054,1.7101,39
4.85,93,1.6573,-8.3585,-18.6358,-0.5417,1.7621,-1.5283,75,4.238,81,1.8094,7.6786,-14.7449,0.3811,1.0086,0.2204,74,4.379,84,14.2381,3.9662,-8.5938,-0.2459,1.0782,0.7365,70,5.094,98,4.8748,-0.4448,-9.4727,0.2875,-0.1061,1.6055,39
4.902,94,3.8505,-7.7007,-15.7121,-1.0727,0.6167,-0.5034,75,4.29,82,-3.5606,7.3616,-11.3312,-0.4019,0.151,0.8262,74,4.43,85,12.5244,0.551,-12.7101,-0.1238,0.2353,0.2492,70,5.146,99,3.0789,-5.145,-14.2698,-0.3378,0.6075,1.822,39
4.954,95,7.8679,-10.818,-15.7535,-1.4603,1.1325,-0.9607,75,4.342,83,-2.6811,5.8132,-11.9887,-0.9733,-0.5624,1.2684,74,4.482,86,5.7725,2.5634,-10.8004,-0.7656,0.5417,-0.4306,70,5.198,100,7.3644,-9.0519,-17.057,0.2477,0.5559,1.3339,39
5.005,96,5.1619,-11.4593,-11.3277,-0.3914,1.3259,-1.3032,75,4.394,84,0.756,3.0429,-10.6302,-0.0449,0.2671,0.4255,74,4.534,87,5.8047,5.1146,-9.7018,-0.6252,1.0737,-0.9883,70,5.25,101,8.1437,-8.3549,-17.4906,0.5778,1.0907,0.4964,39
5.057,97,3.9956,-7.4875,-10.0858,0.3887,1.6501,-1.398,75,4.445,85,-2.5163,6.3893,-11.3985,-0.1707,0.344,0.1314,74,4.586,88,4.6005,1.1291,-12.221,-0.1641,1.3414,-1.3953,70,5.302,102,6.0244,-3.6167,-20.3937,1.0964,0.1705,-0.3091,39
5.109,98,4.0868,-5.8539,-11.3324,-0.3937,1.8867,-1.5476,75,4.497,86,3.0834,4.1411,-6.7849,-0.5891,-0.4216,-0.0332,74,4.638,89,2.8082,-0.9261,-16.9243,0.5567,0.4725,-1.6924,70,5.353,103,6.2522,-1.3315,-21.0222,0.1231,-0.5423,-0.0568,39
5.161,99,4.2452,-4.1669,-13.526,0.3865,2.0595,-1.784,75,4.549,87,7.1703,4.8814,-11.2403,0.0858,-0.3808,-0.7091,74,4.689,90,7.3153,-5.3399,-15.4672,-0.2689,0.2839,-0.5599,70,5.405,104,4.3541,-3.0,-18.1401,-0.4309,-0.8732,-0.4444,39
5.213,100,3.3239,-5.4357,-14.915,0.4913,2.1694,-1.8943,75,4.601,88,5.2431,6.0214,-12.2503,0.631,0.4012,-0.5179,74,4.741,91,10.6048,-6.6832,-14.1269,-0.0307,0.7052,-0.3157,70,5.457,105,3.3711,-0.9704,-13.1757,0.0509,-0.7061,-0.9958,39
5.264,101,7.4835,-7.9677,-16.6627,1.033,0.914,-1.9498,75,4.653,89,-0.0628,7.1483,-9.0147,0.7702,0.6638,-0.0619,74,4.793,92,5.6671,-10.1147,-14.1437,-0.6976,1.1011,-0.0349,70,5.509,106,7.565,2.6085,-9.1158,0.7119,-0.9067,-1.3114,39
5.316,102,10.5194,-8.0543,-15.5106,1.4283,-0.0023,-1.166,75,4.704,90,-0.965,5.9013,-9.3473,-0.0784,-0.0858,0.4864,74,4.845,93,8.7027,-8.463,-11.5977,-1.1844,0.4871,0.4851,70,5.561,107,10.6386,0.6878,-13.6804,-0.1575,-1.259,-1.3118,39
5.368,103,10.4096,-3.0008,-13.5919,1.7168,0.2655,-0.1744,75,4.756,91,-1.631,8.7137,-10.7117,0.4955,-0.5221,-0.0037,74,4.896,94,6.1238,-7.4358,-12.3358,-0.1879,0.6601,0.6946,70,5.612,108,12.8818,2.4671,-11.9372,0.5597,-1.1526,-0.9237,39
5.42,104,9.7426,-0.3954,-12.9825,1.45,0.0082,0.5494,75,4.808,92,0.9596,10.0781,-11.2574,0.6038,-1.0538,-0.6891,74,4.948,95,5.0829,-5.5612,-15.3693,0.4592,1.1433,0.8566,70,5.664,109,10.8628,-1.2813,-12.3635,-0.1314,-0.9107,0.0061,39
5.472,105,7.6158,0.2751,-12.0535,0.4452,0.5313,1.0776,75,4.86,93,5.6202,10.8658,-13.4495,-0.2389,-1.4417,-1.1893,74,5.0,96,2.4494,0.825,-16.5354,0.0334,0.7785,1.09,70,5.716,110,8.3772,-1.2392,-8.02,0.5663,-0.1627,0.6848,39
5.523,106,5.19,-0.4347,-11.5819,0.959,0.6204,1.2628,75,4.912,94,9.0218,6.9968,-11.6559,-0.687,-0.5168,-0.847,74,5.052,97,7.0534,4.2914,-9.4842,0.3988,0.8125,0.4984,70,5.768,111,3.9024,2.5938,-8.5116,0.2259,0.5662,0.7948,39
5.575,107,8.8455,2.0472,-10.0134,1.3743,-0.2166,0.7321,75,4.964,95,6.1427,4.8456,-10.726,-1.1795,-0.2601,0.0472,74,5.104,98,10.2438,6.9277,-8.989,-0.2512,1.2714,-0.0793,70,5.819,112,5.4307,-3.4037,-14.1933,-0.472,1.0982,1.0718,39
5.627,108,11.5134,2.625,-11.1598,0.4043,-0.0998,0.9752,75,5.015,96,3.1884,0.7279,-12.1387,-1.5409,0.4536,0.6997,74,5.156,99,8.5078,2.7822,-13.045,0.4932,0.5058,-0.7319,70,5.871,113,5.025,-2.4973,-18.3401,-0.4634,0.2657,0.469,39
5.679,109,9.9495,1.0373,-8.9581,0.135,-0.0161,0.4541,75,5.067,97,1.2813,3.2659,-14.7271,-0.4529,0.6614,0.94,74,5.207,100,7.6337,2.7081,-13.4084,-0.3152,-0.3042,-1.155,70,5.923,114,8.7847,-2.5862,-21.3666,-0.6364,0.2864,0.3143,39
5.731,110,5.7317,0.1513,-6.7527,0.7571,0.5205,-0.0176,75,5.119,98,0.6708,3.5387,-14.7035,-0.1747,0.9279,0.6365,74,5.259,101,4.1082,0.4815,-11.525,-0.0326,-0.8954,-1.5102,70,5.975,115,9.8595,-0.5903,-18.5729,0.2102,0.4472,-0.442,39
5.782,111,2.1619,-3.9518,-6.8489,0.361,0.197,-0.688,75,5.171,99,2.0595,6.6419,-12.4173,0.5442,0.3552,0.7279,74,5.311,102,2.5924,-0.6959,-6.704,0.0599,-1.1462,-1.496,70,6.027,116,7.7041,-3.6033,-19.1263,0.7571,-0.0663,-0.994,39
5.834,112,2.8307,-6.136,-8.2107,0.9379,0.0471,-0.6711,75,5.223,100,6.423,3.0305,-17.0025,-0.0307,0.5871,0.8782,74,5.363,103,7.1578,-4.4584,-2.3088,-0.1012,-1.3539,-0.5266,70,6.078,117,6.642,0.2194,-16.1238,1.2272,-0.7152,-1.3498,39
5.886,113,3.2283,-5.1458,-9.4223,1.3588,0.3456,0.1868,75,5.274,101,9.0349,5.0557,-15.2428,0.6493,0.5175,1.3064,74,5.415,104,10.167,-1.3181,-8.6996,-0.7491,-0.3098,-0.3371,70,6.13,118,4.5625,-2.2505,-12.8559,1.0344,-1.0496,-1.6566,39
5.937,114,7.4138,-6.6905,-9.005,1.5717,-0.0175,0.813,75,5.326,102,0.9241,7.2044,-13.9042,1.1456,0.8136,1.3736,74,5.466,105,9.0152,-3.576,-14.3543,-1.2219,0.3907,0.4292,70,6.182,119,4.6179,-4.191,-9.3291,1.2107,-0.9857,-1.3779,39
5.989,115,10.4685,-3.6266,-12.0764,1.23,0.6387,1.27,75,5.378,103,0.9957,5.5565,-13.328,0.9458,0.6996,0.3161,74,5.518,106,9.0724,-5.3869,-16.04,-0.2153,-0.3882,0.6878,70,6.234,120,3.3927,-5.9767,-14.79,0.2065,-1.0555,-0.3757,39
6.041,116,10.8059,-1.198,-10.987,1.1397,0.0795,0.4135,75,5.43,104,0.841,5.3331,-12.7394,1.2562,0.7143,0.0071,74,5.57,107,5.7957,-2.6671,-12.4578,0.4352,-0.9567,1.1387,70,6.285,121,7.5935,-9.6588,-14.6127,0.6833,-0.5422,0.0203,39
6.093,117,7.6365,2.3655,-9.8902,0.8823,-0.1561,-0.3733,75,5.482,105,-0.1431,5.1848,-12.024,0.7406,0.6534,-0.4032,74,5.622,108,4.4142,0.0353,-10.035,0.9941,-0.4135,1.3526,70,6.337,122,10.6593,-7.3826,-13.9183,0.2065,0.2552,-0.2269,39
6.145,118,8.5889,4.2077,-8.1273,-0.0335,-0.0681,-0.9476,75,5.533,106,-0.2428,6.0358,-10.7055,0.2465,0.1539,-0.8036,74,5.674,109,5.1198,2.6951,-15.2815,0.8496,0.3765,1.3326,70,6.389,123,10.605,-4.8835,-11.1865,-0.4798,0.8702,0.4568,39
6.196,119,8.0486,-1.7298,-10.267,-0.7018,0.5054,-1.3667,75,5.585,107,4.7427,5.5572,-14.7,-0.4367,-0.5604,-0.231,74,5.725,110,7.6727,7.3189,-8.6061,-0.0552,0.8339,1.5902,70,6.441,124,8.2863,-8.8206,-12.4609,-0.9712,0.5155,1.0137,39
6.249,120,5.3064,-4.1086,-10.8704,-1.1525,1.0513,-1.5299,75,5.637,108,8.3813,5.9423,-14.2497,0.353,0.2125,-0.0907,74,5.777,111,10.8656,5.4521,-8.9593,0.6363,1.0911,1.0474,70,6.493,125,5.6241,-5.0917,-10.5873,-0.0341,0.2567,1.4202,39
6.3,121,2.1156,-6.3182,-11.0104,-1.5185,1.279,-0.9324,75,5.689,109,5.2374,5.3744,-12.9177,0.0503,0.8342,0.5941,74,5.829,112,11.0485,1.5362,-7.2641,-0.2056,1.278,0.5329,70,6.544,126,5.3363,-3.4191,-8.9863,0.5693,0.3343,1.5276,39
6.352,122,6.6016,-1.7969,-14.2598,-1.1782,0.2641,-1.1839,75,5.741,110,0.592,6.0816,-11.9547,-0.4603,0.058,1.0773,74,5.881,113,11.1505,1.8254,-11.3993,0.2281,0.2593,0.0966,70,6.596,127,2.62,2.7967,-14.5398,-0.2616,0.929,1.6332,39
6.404,123,7.6035,-0.9884,-9.7453,-0.705,0.6173,-1.526,75,5.792,111,0.6023,4.4707,-11.8913,-0.7023,-0.2642,0.7158,74,5.933,114,6.9073,5.0542,-8.9642,-0.5087,0.2217,-0.5244,70,6.648,128,7.0295,-1.5314,-11.9584,0.4747,1.153,1.1731,39
6.456,124,4.0749,-0.9694,-9.1641,0.0445,1.015,-1.6867,75,5.844,112,1.9763,4.2276,-10.6552,-0.3216,-0.1207,0.7036,74,5.984,115,6.2484,4.5019,-9.9275,-0.1795,0.8402,-1.0381,70,6.7,129,7.6507,-3.6326,-11.5755,1.0211,1.505,0.1848,39
6.508,125,2.61,3.9138,-10.5619,0.1957,1.1719,-1.7817,75,5.896,113,0.1971,4.9256,-9.4244,0.0469,0.5128,0.0483,74,6.036,116,6.1459,2.6852,-12.8104,0.4909,1.2055,-1.4316,70,6.752,130,7.3558,-1.1239,-13.9661,1.132,0.4316,0.2822,39
6.559,126,3.0799,2.5709,-12.321,-0.5346,0.582,-1.9755,75,5.948,114,5.0637,-0.52,-14.8182,-0.6105,-0.2984,0.6688,74,6.088,117,7.6434,-3.2773,-6.7655,1.0346,0.2064,-1.2318,70,6.804,131,7.5504,-1.3187,-13.6242,0.1491,-0.3518,0.6593,39
6.611,127,2.7846,1.0333,-11.5273,-0.4534,1.0884,-1.7747,75,6.0,115,8.4112,0.3358,-14.721,0.0957,0.0367,0.0742,74,6.14,118,10.8443,2.96,-12.9427,0.0799,-0.1998,-0.9389,70,6.855,132,4.7481,-0.6455,-10.1398,0.2293,-0.7514,0.1656,39
6.663,128,6.352,-0.0179,-13.4622,0.1112,0.1377,-1.9372,75,6.052,116,5.0556,1.0619,-12.4582,0.428,0.7059,-0.5496,74,6.192,119,13.1804,6.3184,-10.189,-0.343,0.3605,-0.3694,70,6.907,133,3.9508,-5.5844,-15.35,0.3632,-0.2211,-0.5506,39
6.715,129,9.6936,-4.5252,-12.8963,0.7555,-0.5685,-2.089,75,6.103,117,1.3822,2.7142,-11.6376,0.4822,-0.1526,0.2643,74,6.243,120,8.5605,-0.6256,-12.6394,-0.9255,0.8058,0.2303,70,6.959,134,8.0007,-3.1267,-8.5954,-0.0844,-0.6674,-0.7668,39
6.766,130,11.3032,2.0872,-11.8281,1.2258,0.1495,-1.2968,75,6.155,118,0.8401,3.7909,-11.867,-0.3281,-0.1811,0.7412,74,6.295,121,6.5985,-2.7294,-13.2695,0.001,0.7039,0.8451,70,7.011,135,10.9566,-4.4087,-10.3615,0.3225,-0.5566,-0.4685,39
6.818,131,5.3096,5.6655,-10.9226,0.2228,0.7915,-0.8369,75,6.207,119,0.5261,4.4694,-11.5894,-0.9195,-0.4114,0.8487,74,6.347,122,5.3442,0.3819,-13.1958,0.6773,0.6978,1.2783,70,7.062,136,11.6764,-7.2607,-7.3772,0.5373,-0.2566,-0.0918,39
6.87,132,3.3279,1.5766,-13.6589,-0.5148,0.5775,-0.0481,75,6.259,120,4.6062,2.208,-12.8823,-1.2035,-0.4818,0.0646,74,6.399,123,3.9424,2.5597,-15.6126,0.8405,0.3575,1.5612,70,7.114,137,9.263,-8.2809,-9.7659,-0.2175,-0.0095,0.5555,39
6.922,133,4.8643,2.1554,-11.4016,0.2987,0.8903,0.172,75,6.311,121,8.2817,-2.7367,-17.3419,-0.4454,-0.4872,-0.6229,74,6.451,124,4.102,4.5565,-15.4152,0.2203,0.1721,1.4697,70,7.166,138,6.4648,-3.9108,-7.042,0.5159,0.6456,1.0786,39
6.973,134,3.6854,1.9055,-10.0535,0.421,1.3284,0.6504,75,6.362,122,8.99,-0.4858,-13.8528,0.072,0.3235,-1.1409,74,6.502,125,8.2596,4.3216,-14.5117,-0.0934,0.5547,0.8299,70,7.218,139,6.8846,-0.4008,-9.6541,-0.1919,1.1562,0.6968,39
7.025,135,7.7473,4.5785,-15.334,0.9816,0.6135,0.7915,75,6.414,123,4.8437,-1.2509,-14.4326,-0.0443,0.9152,-0.4784,74,6.554,126,8.6255,6.9348,-14.8779,-0.2022,0.8456,-0.0205,70,7.27,140,5.5739,-5.5893,-15.0272,-0.8171,1.5288,1.1096,39
7.077,136,10.712,8.0683,-14.2173,0.4968,0.425,1.2543,75,6.466,124,2.6499,-0.8851,-14.262,0.5998,0.9402,0.2221,74,6.606,127,6.9422,5.6097,-15.9026,0.3807,0.0779,-0.5277,70,7.322,141,9.1854,-3.5701,-8.3598,0.0119,0.449,0.5625,39
7.129,137,6.8317,6.5151,-11.0026,-0.217,0.5108,1.4261,75,6.518,125,1.9342,2.828,-13.1164,1.1095,0.222,0.4985,74,6.658,128,6.6069,2.8921,-15.1951,-0.3973,-0.6165,-1.0549,70,7.373,142,11.8212,-4.9481,-9.8996,-0.3519,1.0114,0.2056,39
7.181,138,0.5569,2.5964,-7.9443,0.516,0.7543,1.1976,75,6.57,126,1.52,4.08,-12.4517,0.6981,0.4275,0.2138,74,6.71,129,3.0731,3.0152,-12.7337,-0.7291,-1.1234,-1.4439,70,7.425,143,10.5982,0.5088,-12.913,0.4178,1.0524,-0.5213,39
7.232,139,-0.5881,2.9697,-7.7257,0.7528,-0.0442,0.251,75,6.621,127,2.6679,7.5363,-15.2625,1.1587,-0.2238,-0.5095,74,6.761,130,1.2823,-2.0689,-17.2985,0.1444,-1.2965,-1.7279,70,7.477,144,8.16,0.3469,-15.4631,0.9796,0.1013,-0.8027,39
7.284,140,-0.2305,1.2231,-8.7066,-0.1279,-0.1829,0.4079,75,6.673,128,6.8671,6.9507,-16.146,1.0611,0.2353,-0.7751,74,6.813,131,6.2017,0.2699,-18.3369,-0.5698,-0.7558,-1.1012,70,7.529,145,5.3078,-0.6514,-13.6028,0.2045,-0.5929,-0.8951,39
7.336,141,1.4794,-1.2065,-8.8957,0.1542,-0.761,0.277,75,6.725,129,6.3984,5.5851,-12.073,0.1639,0.5982,-0.0064,74,6.865,132,9.792,-1.2505,-17.385,-0.0209,0.1268,-1.1195,70,7.58,146,3.2763,-2.711,-10.607,0.4013,-0.7328,-1.3201,39
7.388,142,6.1374,-1.423,-12.2575,0.7869,-1.197,0.7005,75,6.777,130,3.0408,5.3538,-13.8798,-0.5604,1.1157,0.6607,74,6.917,133,6.8805,-6.1497,-20.3387,-0.6905,0.2802,-0.1393,70,7.632,147,3.0209,-5.2005,-13.8323,0.9458,-0.9289,-1.6015,39
7.44,143,9.5369,-0.5853,-13.1685,0.1456,-0.6662,0.7473,75,6.829,131,1.1632,4.1454,-13.2454,-0.1638,1.3983,0.2839,74,6.969,134,6.7951,-6.6071,-17.8952,0.1726,-0.4689,0.4454,70,7.684,148,7.3221,-1.7681,-18.0766,0.0132,-1.1966,-0.7664,39
7.491,144,7.4027,-0.637,-11.1093,-0.3912,-0.2633,0.4681,75,6.88,132,0.1648,3.8593,-13.0361,0.5522,0.8827,-0.4792,74,7.02,135,6.509,-3.9,-14.2279,0.8025,-0.9049,0.9118,70,7.736,149,9.245,-3.1918,-16.9687,0.6132,-0.7183,-0.7504,39
7.543,145,3.7722,1.3813,-11.5545,-0.6452,0.4902,0.2012,75,6.932,133,-1.43,4.6648,-11.702,-0.2152,0.6032,-0.5213,74,7.072,136,5.6674,-0.7076,-12.0863,0.8276,-0.4392,1.1858,70,7.788,150,11.8647,-3.3472,-12.4946,0.0487,0.1607,-0.2864,39
7.595,146,2.1832,-0.8325,-12.3238,-1.1482,-0.2529,-0.5283,75,6.984,134,0.4625,5.3404,-9.8219,-0.1821,-0.2273,-1.0669,74,7.124,137,5.8814,0.1365,-14.3432,0.365,0.2842,1.5291,70,7.84,151,8.9407,-5.7751,-15.6212,-0.6415,0.8022,0.4713,39
7.647,147,4.6501,-1.9306,-10.0725,-1.484,-0.6137,-1.0595,75,7.036,135,5.2575,1.1744,-15.1083,-0.5062,0.0078,-0.1133,74,7.176,138,9.5583,-4.9236,-9.9483,0.6714,0.0591,1.0689,70,7.891,152,7.3273,-3.5323,-12.4253,-0.0272,0.7596,1.0243,39
7.699,148,3.1311,-1.8162,-9.8939,-1.5138,0.2345,-0.7209,75,7.088,136,6.5284,3.9842,-14.3503,0.1937,0.1873,0.1429,74,7.227,139,12.2418,1.3554,-9.0223,-0.1629,-0.0468,0.6699,70,7.943,153,6.0629,-3.0953,-11.642,-0.1686,1.2373,1.2073,39
7.75,149,2.3795,-3.6474,-8.8942,-0.6494,-0.3506,-0.7256,75,7.139,137,2.3112,4.2079,-13.7868,0.2725,0.8158,0.5352,74,7.279,140,10.9454,2.7436,-10.1961,-0.7075,-0.1572,0.3726,70,7.995,154,4.9994,1.0725,-12.532,0.1017,1.479,1.5109,39
7.802,150,6.7943,-3.8297,-14.4879,0.2004,-0.9252,-0.3611,75,7.191,138,-0.2546,4.6525,-12.9656,-0.356,0.061,0.8751,74,7.331,141,9.3012,3.7179,-13.5674,-0.706,-0.6135,-0.0544,70,8.047,155,8.7661,6.0749,-16.56,-0.1115,0.4176,1.1961,39
7.854,151,10.0164,1.4363,-11.6941,-0.1728,-0.1383,0.4131,75,7.243,139,0.0408,4.3152,-12.7251,-0.7378,-0.6281,0.8206,74,7.383,142,5.117,2.7821,-11.475,-1.1905,0.0753,-0.5546,70,8.099,156,10.5972,0.3907,-13.519,0.3072,0.51,0.8402,39
7.906,152,5.193,4.8523,-12.181,-0.8035,0.5815,0.9781,75,7.295,140,0.1733,3.9842,-11.4311,-0.1221,0.129,0.2881,74,7.435,143,4.5393,3.3278,-11.2248,-0.9477,0.7333,-1.0632,70,8.151,157,10.6814,3.0012,-16.7025,0.8989,0.7867,-0.0582,39
7.958,153,1.5391,4.8556,-14.8211,-0.974,0.1995,0.0388,75,7.347,141,-0.8619,5.194,-11.6402,-0.416,0.7732,-0.4761,74,7.487,144,5.6636,-2.8083,-13.0648,-0.0151,1.2136,-1.45,70,8.202,158,6.9917,-0.1811,-19.6821,1.3307,0.0108,-0.3388,39
8.009,154,6.1809,6.5251,-11.6338,-1.3531,-0.5237,-0.6468,75,7.399,142,4.2909,2.6795,-16.4353,0.1526,0.9085,-1.0336,74,7.538,145,9.3993,-3.4339,-6.9512,-0.4722,0.2123,-0.5339,70,8.254,159,7.6119,1.5173,-19.3495,0.2941,-0.6589,0.3828,39
8.061,155,6.5835,3.9908,-10.397,-1.4715,-0.636,-1.1472,75,7.451,143,6.183,5.7322,-11.7321,-0.0888,0.968,-0.8279,74,7.59,146,12.1258,2.8457,-10.1309,-0.8514,0.3065,-0.3869,70,8.306,160,2.5583,0.3339,-14.0051,-0.314,-0.6248,-0.086,39
8.113,156,9.8625,2.8938,-11.8019,-0.415,-1.1309,-1.5124,75,7.503,144,3.715,4.4033,-11.558,-0.7448,1.1558,0.0052,74,7.642,147,12.8671,2.4173,-8.2661,-1.2966,0.7889,0.2919,70,8.358,161,1.4679,-5.0531,-18.2027,0.233,-0.0085,-0.7342,39
8.165,157,12.2557,1.0543,-12.3942,0.3715,-1.2801,-1.7789,75,7.554,145,0.8779,1.7926,-13.4911,-0.8113,1.5226,-0.0789,74,7.694,148,10.1738,-3.4728,-13.8006,-1.6215,0.2003,0.7651,70,8.41,162,6.1886,-2.4718,-11.2603,-0.507,-0.4198,-1.0564,39
8.217,158,8.1783,3.1914,-8.0688,0.9455,-0.2519,-0.6217,75,7.606,146,0.1084,2.1992,-12.303,-0.4082,0.4386,0.2717,74,7.746,149,8.0102,-1.5809,-12.969,-0.5069,0.4549,1.1865,70,8.461,163,8.2356,-3.6708,-12.304,0.3046,-0.1134,-0.7894,39
8.268,159,3.1931,2.1902,-7.3595,0.0675,0.4986,-1.0459,75,7.658,147,1.0131,2.5636,-11.218,0.0573,-0.3525,-0.1469,74,7.797,150,6.5972,-2.153,-13.4675,0.1096,0.8297,1.5132,70,8.513,164,5.8271,-3.1049,-13.1875,-0.0333,0.6022,-0.1965,39
8.32,160,2.2646,1.5128,-8.8224,-0.6281,-0.1956,-0.6353,75,7.71,148,1.7934,3.6069,-11.5463,-0.0435,-0.9205,-0.646,74,7.849,151,2.5879,3.0529,-16.1639,0.3689,0.8835,1.6395,70,8.565,165,3.417,-6.7569,-15.3286,0.3919,0.9474,0.1831,39
8.372,161,6.7104,-0.5653,-11.2088,-0.5854,-0.2492,0.213,75,7.762,149,6.2288,1.8326,-16.2574,0.214,-0.1599,-0.8479,74,7.901,152,7.1545,5.5798,-9.213,-0.0681,0.0563,1.8685,70,8.617,166,2.9962,-3.4249,-13.0043,0.9607,1.0371,0.002,39
8.424,162,4.7415,0.9937,-11.003,0.2471,0.5006,0.8321,75,7.813,150,6.1329,2.4063,-14.6293,0.014,0.5624,-0.4761,74,7.953,153,7.0422,6.3349,-13.2257,0.3809,0.6232,1.0407,70,8.668,167,2.8463,-3.774,-11.7921,0.6077,1.3422,0.2444,39
8.476,163,8.5182,1.3735,-10.2721,0.6761,-0.304,1.1952,75,7.865,151,4.0415,1.5955,-13.4988,-0.47,1.0895,0.3007,74,8.005,154,9.0989,6.107,-12.9686,-0.032,1.1332,0.5645,70,8.72,168,2.1613,-1.5503,-12.0471,0.4426,1.5327,0.599,39
8.527,164,11.2745,1.9813,-12.6001,0.9512,-0.1058,1.0151,75,7.917,152,-2.1828,0.2312,-13.5535,-0.0404,1.4743,0.8348,74,8.056,155,8.6,3.7494,-16.0068,-0.0516,0.174,-0.052,70,8.772,169,6.6947,-0.115,-16.4323,0.3246,0.4554,0.3061,39
8.579,165,7.9482,1.5775,-9.0564,0.6097,0.2833,1.4118,75,7.969,153,0.4839,2.5676,-10.337,0.6423,0.4033,1.2746,74,8.108,156,7.5211,2.5313,-13.9307,-0.7129,-0.5464,-0.5788,70,8.824,170,10.0034,-0.3146,-14.7807,0.3781,0.9153,-0.1091,39
8.631,166,2.733,2.0841,-9.5434,0.0412,0.8892,1.6058,75,8.021,154,0.2128,2.8196,-9.6076,1.1269,0.9734,0.2439,74,8.16,157,4.8126,2.432,-12.3661,0.0312,-0.6102,-1.0965,70,8.876,171,8.5687,1.1068,-16.7419,0.9506,0.4324,-0.751,39
8.683,167,0.8693,0.6556,-10.1879,0.6792,-0.0204,0.7612,75,8.072,155,1.3388,5.6243,-9.1157,0.8374,0.1697,-0.4813,74,8.212,158,5.5326,0.52,-16.5595,0.633,-0.6086,-1.4743,70,8.927,172,8.8261,3.8773,-15.1166,0.1799,-0.3512,-0.6288,39
8.735,168,1.4671,-0.8012,-10.9654,1.1701,-0.6842,0.1889,75,8.124,156,5.897,-1.1559,-11.9945,0.2691,0.465,-0.2463,74,8.264,159,9.3037,4.1197,-14.1199,-0.1797,-0.5809,-0.6215,70,8.979,173,5.4857,-0.4901,-14.161,-0.3387,-0.7165,-1.0114,39
8.786,169,6.1284,-2.0881,-10.0064,1.5284,-0.1829,0.1746,75,8.176,157,2.7497,2.8904,-10.4134,0.2214,1.0185,-0.7485,74,8.315,160,12.056,0.4023,-14.4511,0.1141,0.2293,-0.6948,70,9.031,174,5.093,-0.6739,-15.7594,-0.9207,0.162,-0.7486,39
8.838,170,9.5303,-2.7013,-10.7088,1.1311,0.0619,0.8041,75,8.228,158,1.7195,2.2237,-10.835,-0.5184,1.4224,0.1191,74,8.367,161,7.746,-4.9434,-18.552,-0.5919,0.8457,0.1707,70,9.083,175,4.5505,-3.2397,-19.4831,-0.3474,-0.3827,-0.3595,39
8.89,171,12.0133,-3.2265,-11.8167,0.1481,-0.0269,0.3557,75,8.28,159,0.1131,1.7673,-10.1222,-0.3913,1.7078,0.0707,74,8.419,162,7.8618,-3.6867,-18.7478,0.2445,-0.0562,0.5861,70,9.134,176,8.4384,-3.1369,-21.029,-0.9108,-0.7055,0.0217,39
8.942,172,7.9325,-0.5245,-11.022,0.3207,0.3874,0.3135,75,8.331,160,0.1146,2.2336,-9.5548,0.3862,0.5756,-0.584,74,8.471,163,6.114,-1.1601,-16.4485,-0.4968,-0.7144,1.0906,70,9.186,177,10.6689,-4.1385,-18.6818,-0.4981,0.163,-0.236,39
8.993,173,3.8126,1.8866,-11.4938,-0.2067,0.9652,-0.4463,75,8.383,161,-0.4372,3.1615,-9.4747,0.9536,0.1769,-0.6825,74,8.522,164,-0.0,-3.7759,-15.9191,0.1315,0.0682,0.9257,70,9.238,178,11.6978,-3.9669,-15.5597,-1.0406,0.7814,0.3621,39
9.045,174,2.554,-0.0732,-11.0685,-0.8283,0.0694,-1.0009,75,8.435,162,4.5704,7.0746,-9.3099,0.0159,-0.5273,-1.1845,74,8.574,165,4.9373,2.5961,-18.3607,-0.3961,-0.1719,1.2108,70,9.29,179,8.3985,-7.1874,-16.1053,-1.4366,0.8343,0.9446,39
9.097,175,5.8836,-2.2456,-8.1205,-0.4077,-0.614,-1.2173,75,8.487,163,8.2556,0.3201,-14.7346,-0.6464,-1.0575,-0.2114,74,8.626,166,8.8692,-3.3423,-16.2977,0.2914,-0.0407,0.8028,70,9.342,180,6.8547,-4.0377,-14.286,-0.7293,0.451,1.3698,39
9.149,176,4.8477,-2.1383,-7.5174,0.1594,0.2343,-0.4946,75,8.539,164,5.4264,3.4974,-11.7622,0.1999,-0.0928,-0.8407,74,8.678,167,11.7389,-3.1877,-14.122,-0.4626,0.1537,0.5946,70,9.393,181,5.134,-3.4433,-12.9731,0.0616,0.2156,1.1457,39
9.201,177,8.5956,-1.3996,-6.9185,0.4222,-0.4983,-0.9913,75,8.59,165,1.7913,2.7915,-11.1587,-0.4599,0.6065,-0.8092,74,8.73,168,10.9793,-1.4897,-13.1111,-0.5978,-0.1931,0.1715,70,9.445,182,3.6505,2.7245,-17.4496,-0.3392,0.5712,1.4261,39
9.253,178,11.3311,-1.613,-7.2506,0.9825,-1.033,-1.3986,75,8.642,166,-0.1114,3.0415,-11.3426,-0.4486,0.749,0.0748,74,8.782,169,8.9827,1.4433,-13.1438,0.2403,-0.6932,-0.5268,70,9.497,183,7.7816,-3.3084,-16.855,0.3894,0.5561,1.2845,39
9.304,179,7.6366,0.6363,-6.3555,0.6848,-0.1008,-0.5761,75,8.694,167,0.2415,2.3847,-10.9368,-0.7955,-0.105,-0.1309,74,8.833,170,4.758,1.3503,-10.6261,-0.3907,0.0347,-1.0578,70,9.549,184,10.7966,-3.228,-17.4525,0.6525,1.0908,0.365,39
9.356,180,1.9655,2.9158,-6.7355,-0.1776,0.6088,-0.8159,75,8.746,168,2.189,1.902,-10.5188,-0.2648,-0.2931,-0.5223,74,8.885,171,4.7252,0.4825,-10.7781,-0.2753,0.7037,-1.4429,70,9.601,185,6.8998,-0.1037,-20.7188,1.1509,0.8959,-0.405,39
9.408,181,0.7384,0.7286,-7.9438,-0.807,0.2071,-0.9724,75,8.798,169,4.4298,4.8028,-12.6573,-0.0814,-0.7493,-1.0676,74,8.937,172,3.1011,-3.4412,-15.8712,0.4756,0.8816,-1.7271,70,9.652,186,6.7224,2.8633,-19.3055,0.2497,-0.0129,0.0349,39
9.46,182,1.1597,-0.5819,-8.2631,-0.4746,-0.5182,-0.9273,75,8.85,170,8.153,-1.7555,-15.1119,-0.561,0.1187,-1.2612,74,8.989,173,7.5291,-5.3906,-11.7623,-0.0869,0.6199,-0.8532,70,9.704,187,2.5048,0.4179,-16.5084,-0.4949,-0.0061,0.0779,39
9.512,183,3.7058,-0.1214,-8.6407,-0.1804,-0.1372,-0.3993,75,8.901,171,4.3078,2.8804,-13.9712,0.2623,0.7657,-1.1729,74,9.04,174,10.7608,-2.8104,-10.072,-0.7387,0.8649,-0.1113,70,9.756,188,2.0241,0.5691,-13.0534,-0.4102,0.009,-0.2742,39
9.563,184,7.7623,-0.3543,-10.2114,0.5427,-0.4707,-0.4696,75,8.953,172,1.9002,2.17,-13.6787,-0.4886,0.988,-0.3828,74,9.092,175,8.6296,-4.8162,-12.1104,-1.2143,1.1557,0.5723,70,9.808,189,5.988,-4.8814,-6.9192,0.3753,-0.5458,-0.2073,39
9.615,185,10.7228,1.029,-12.3255,0.8783,-0.0829,-0.2015,75,9.005,173,0.5982,2.0869,-14.0194,-0.1389,1.4002,0.386,74,9.144,176,7.343,-5.9109,-12.8393,-0.211,0.5834,0.8539,70,9.86,190,9.4876,0.4663,-13.0312,-0.4032,-0.8585,-0.5155,39
9.667,186,5.9115,2.4054,-9.8279,0.6831,0.6205,0.5296,75,9.057,174,-0.6948,3.6956,-13.3703,0.5703,0.4154,0.3154,74,9.196,177,5.7727,-3.5432,-13.0976,0.5226,0.4546,1.0677,70,9.911,191,12.0418,1.5026,-12.7272,0.3804,-0.4836,-0.5161,39
9.719,187,1.5786,1.5024,-11.976,0.5141,1.1353,0.4092,75,9.109,175,-0.306,5.6818,-13.2184,0.6963,-0.1544,-0.3044,74,9.248,178,4.421,-2.3216,-14.6062,1.0579,0.5345,0.9158,70,9.963,192,8.8076,-1.8822,-11.7949,0.186,0.0498,-0.1073,39
9.77,188,1.3802,0.8426,-11.0562,0.6908,0.1593,0.0335,75,9.16,176,4.3449,8.8082,-14.9,-0.1453,-0.7853,-0.9086,74,9.299,179,4.246,1.8452,-14.8314,0.1117,0.4013,1.1821,70,10.015,193,8.424,-3.661,-10.8961,-0.5101,0.167,0.602,39
9.822,189,3.6415,-0.0483,-9.6847,1.1785,-0.1962,-0.613,75,9.212,177,8.091,3.0178,-14.9986,-0.4095,0.1059,-1.1402,74,9.351,180,8.3646,0.8539,-15.6351,0.7581,0.1429,0.7936,70,10.066,194,5.6554,-1.9275,-9.554,-0.5554,0.7662,1.0963,39
9.874,190,3.4705,1.0808,-9.0257,1.5237,0.5276,-0.2294,75,9.264,178,4.8552,5.8105,-12.3379,-0.1217,0.7564,-0.8261,74,9.403,181,9.7405,4.5142,-15.7112,0.2058,0.7773,0.2969,70,10.118,195,5.4791,-1.4477,-10.3177,0.2693,1.231,0.8607,39
9.926,191,7.5905,4.2829,-14.5838,0.4347,0.8536,0.5092,75,9.316,179,2.571,2.9969,-12.6606,-0.7689,1.1744,-0.5436,74,9.455,182,8.1327,3.3983,-16.3826,0.7934,0.913,-0.446,70,10.17,196,3.2754,-3.3514,-15.5115,0.078,1.5552,1.0061,39
9.978,192,10.5975,3.29,-12.7664,-0.1285,1.0037,0.9013,75,9.368,180,1.1036,2.1925,-12.1166,-0.2675,1.5362,-0.4968,74,9.507,183,5.5499,4.933,-16.7744,1.0076,0.0226,-0.8117,70,10.222,197,7.5079,-3.2542,-8.7132,0.4292,0.4682,0.5857,39
10.029,193,6.0921,2.9068,-10.5117,0.4751,1.173,0.8276,75,9.419,181,0.2716,2.3107,-12.2202,0.4765,1.686,-0.061,74,9.559,184,5.5083,1.9859,-14.5706,0.0602,-0.6569,-1.0463,70,10.274,198,9.9598,-4.633,-9.2388,-0.1249,1.0267,0.2126,39
10.081,194,-1.086,2.0727,-15.1846,0.2092,1.5385,0.145,75,9.471,182,-0.0208,3.9238,-11.9063,0.2601,1.1873,-0.4468,74,9.61,185,2.4484,3.8385,-12.3816,-0.3285,-1.0924,-1.2271,70,10.325,199,8.2671,-0.5255,-12.5755,0.5815,0.8844,-0.3982,39
10.133,195,-0.8271,1.0453,-13.4185,-0.0178,0.4535,-0.5693,75,9.523,183,3.3908,3.6557,-16.6296,0.5534,0.1938,-0.7205,74,9.662,186,1.0242,1.5971,-17.0415,0.4364,-0.8188,-1.5693,70,10.377,200,6.513,2.0423,-13.442,1.0934,0.0326,-0.9496,39
10.185,196,2.6122,-2.2284,-9.1815,0.0795,-0.3383,-0.9465,75,9.575,184,7.3946,7.3437,-18.3234,1.0756,0.6973,-0.4649,74,9.714,187,6.0133,-0.6272,-16.135,-0.1457,-0.4543,-0.7272,70,10.429,201,5.2625,1.1777,-14.0953,1.3732,-0.643,-1.3639,39
10.237,197,2.9409,-2.0377,-8.7205,0.5483,-0.1134,-0.5418,75,9.627,185,5.6046,8.8712,-16.868,0.4091,1.188,0.1412,74,9.766,188,9.6545,0.0503,-15.8262,-0.422,0.3468,-0.4085,70,10.481,202,3.7116,-2.3899,-12.4618,1.1595,-1.1361,-1.2872,39
10.288,198,7.204,-1.241,-8.1081,0.4009,0.1261,0.2491,75,9.678,186,2.6912,7.9022,-17.2898,-0.3814,1.5461,0.7685,74,9.818,189,6.4425,-5.2004,-19.5555,-0.9832,0.9314,-0.2273,70,10.532,203,3.4783,-5.2404,-8.4165,1.0604,-1.4951,-0.8156,39
10.34,199,10.3154,-0.6688,-10.9134,0.4435,0.1234,0.4923,75,9.73,187,-0.0227,6.4568,-16.3808,-0.3411,0.5997,0.3145,74,9.869,190,6.9365,-4.3239,-19.8122,-0.0525,0.0064,-0.0802,70,10.584,204,7.6559,0.2722,-10.3984,0.4207,-1.758,-0.4801,39
10.392,200,10.24,0.921,-10.3452,-0.0638,-0.0009,0.4966,75,9.782,188,0.1305,5.322,-15.4672,-0.3091,-0.235,-0.4568,74,9.921,191,5.3021,-1.7544,-14.8515,0.6382,-0.6687,0.1816,70,10.636,205,9.4511,-3.2108,-13.1934,0.5629,-1.1765,-0.2417,39
10.444,201,6.5158,3.5131,-10.5677,-0.3778,0.6436,0.5406,75,9.834,189,0.8949,3.9307,-14.3789,-0.1257,-0.8441,-0.5976,74,9.973,192,3.5485,-0.4246,-12.1357,1.1423,-0.3874,0.4088,70,10.688,206,11.4479,-2.826,-11.7842,0.4959,-0.1865,-0.4407,39
10.495,202,3.4931,3.9577,-10.866,-0.9292,0.733,-0.2805,75,9.886,190,2.783,4.781,-12.8456,0.1641,-1.2117,-0.6942,74,10.025,193,4.5403,0.8209,-13.6777,0.1585,0.3956,0.8787,70,10.74,207,9.8679,-1.7132,-13.6426,-0.3151,0.5488,0.3587,39
10.547,203,1.9749,2.0432,-10.1403,-1.3555,0.3455,-0.8798,75,9.937,191,6.9511,4.0808,-13.5357,-0.5603,-1.557,-0.1788,74,10.077,194,8.5795,5.951,-7.3986,-0.4629,0.7934,1.1621,70,10.791,208,8.1723,-4.0295,-13.9797,-0.8432,0.1555,0.9421,39
10.599,204,2.4971,-1.0632,-9.2436,-1.6667,-0.2479,-1.2501,75,9.989,192,9.3213,5.4499,-13.711,0.2626,-0.4573,0.1832,74,10.128,195,11.5274,5.7038,-9.2416,-0.358,1.025,0.8193,70,10.843,209,4.654,-0.9092,-12.654,-0.4037,0.5417,1.1913,39
10.651,205,2.376,-1.7022,-9.2099,-1.4013,0.191,-0.6466,75,10.041,193,4.6356,5.4088,-13.0317,0.1475,0.3453,0.0432,74,10.18,196,10.4714,2.4632,-8.5376,-0.8271,1.4253,0.1511,70,10.895,210,4.5563,-0.364,-10.3107,0.38,0.6157,1.2061,39
10.703,206,6.7917,-3.7698,-10.7915,-0.3484,-0.5299,-0.0507,75,10.093,194,0.9078,5.3525,-13.2108,0.1084,0.9311,0.6969,74,10.232,197,8.1105,2.1355,-12.9902,0.0459,0.4535,-0.3417,70,10.947,211,4.4616,5.0265,-14.9678,0.1587,0.1134,0.5782,39
10.755,207,10.0145,-1.4828,-9.0123,0.325,-0.7608,0.4774,75,10.145,195,0.7628,5.5653,-12.4333,-0.4172,0.1821,0.4126,74,10.284,198,7.7986,3.2074,-11.2051,-0.6417,-0.1544,-0.5617,70,10.999,212,8.3736,-1.6283,-10.4235,0.7903,0.0681,0.8069,39
10.806,208,5.0351,4.1519,-7.0199,0.3862,0.0728,1.0251,75,10.196,196,2.1922,4.5221,-12.3156,-0.4734,-0.4461,0.0838,74,10.335,199,6.155,4.4265,-10.0111,-0.7798,0.372,-0.9439,70,11.05,213,11.2287,-5.0137,-10.8464,0.7941,0.7346,0.1448,39
10.858,209,3.873,4.7095,-9.3853,-0.3955,0.0675,0.0909,75,10.248,197,1.2747,4.0236,-11.2445,0.1762,0.0503,-0.3527,74,10.387,200,5.4753,2.0778,-9.3924,-0.3259,0.9498,-1.3392,70,11.102,214,7.6458,-0.8339,-15.8974,1.0137,0.8975,-0.3525,39
10.91,210,3.8352,3.7482,-10.0187,-0.961,0.0492,-0.484,75,10.3,198,2.842,4.8454,-14.3338,0.0472,-0.6359,-0.9438,74,10.439,201,4.2075,-2.4881,-14.8599,0.4387,0.8183,-1.6514,70,11.154,215,5.428,0.754,-17.6222,0.885,-0.0117,-0.2248,39
10.962,211,2.4135,2.3513,-10.9345,-0.7102,0.6587,-0.918,75,10.352,199,6.5502,4.9914,-14.0145,0.6553,0.2149,-1.0406,74,10.491,202,8.3366,-4.6757,-15.4679,-0.0454,0.7243,-1.0265,70,11.206,216,3.6462,-1.0529,-15.438,-0.0311,-0.5336,0.0369,39
11.013,212,2.2388,1.6061,-11.2949,-1.1581,-0.1137,-0.8506,75,10.404,200,2.7343,6.1143,-11.513,0.0443,0.836,-0.3553,74,10.543,203,11.3502,-1.5149,-13.7137,-0.7084,1.2012,-0.3342,70,11.258,217,1.9563,-1.7393,-12.0718,0.0994,-0.6492,-0.3873,39
11.065,213,6.6916,-0.307,-11.5711,-1.0874,-0.6035,-1.1643,75,10.456,201,-0.4091,5.7818,-12.111,-0.6477,0.416,0.406,74,10.594,204,9.2555,-3.9114,-14.6301,-1.1922,1.4339,0.4201,70,11.309,218,1.8,-6.5662,-16.7917,0.6548,-0.0875,-0.9541,39
11.117,214,9.9414,-1.3468,-12.1373,-0.1192,-0.5477,-0.9325,75,10.507,202,-0.3848,6.1144,-11.5651,-0.6643,0.0716,0.7195,74,10.646,205,7.4237,-5.8187,-13.3612,-0.5491,0.8343,0.8452,70,11.361,219,6.431,-1.0576,-20.2365,-0.177,-0.3281,-0.8927,39
11.169,215,6.4388,-0.8171,-10.3656,0.13,0.024,-0.0039,75,10.559,203,-1.0671,5.9614,-11.802,-1.1648,-0.124,0.2561,74,10.698,206,5.8199,-3.3911,-12.3857,0.2758,0.8258,1.0844,70,11.413,220,9.8109,-1.6508,-19.3071,0.417,0.2715,-0.7031,39
11.221,216,2.5896,-0.772,-9.4591,0.7693,0.6999,0.2241,75,10.611,204,0.0149,5.0302,-11.642,-1.2455,-0.7632,-0.227,74,10.75,207,4.3786,-1.7763,-12.8257,0.8778,0.9272,1.191,70,11.465,221,6.8321,-4.1436,-14.6279,0.3887,0.8831,-0.453,39
11.272,217,1.4105,-1.4853,-9.6893,1.2358,-0.0853,0.3912,75,10.663,205,4.9308,4.8491,-13.4249,-1.0938,-1.104,-0.8521,74,10.802,208,2.4504,3.9024,-14.2256,-0.0345,0.9352,1.4639,70,11.516,222,8.0123,-6.2467,-12.8799,-0.0145,0.0519,0.3497,39
11.324,218,5.8862,-1.2394,-6.0179,1.5763,-0.7316,-0.1667,75,10.715,206,8.5186,0.044,-15.8442,-0.7846,-0.1503,-1.3083,74,10.854,209,7.0541,0.5804,-7.8233,0.3783,0.3595,0.8297,70,11.568,223,3.4678,-0.8759,-9.6574,-0.0564,0.7228,0.9282,39
11.376,219,4.7348,-0.5365,-7.7327,1.6247,0.1485,0.358,75,10.767,207,6.5489,1.5617,-13.4926,-0.5186,0.5694,-0.5731,74,10.905,210,8.1512,1.8443,-11.1527,-0.2532,0.91,0.2707,70,11.62,224,3.6069,-0.4089,-10.5627,0.5541,1.2125,0.3153,39
11.428,220,8.5133,-0.8701,-8.0097,0.636,-0.0317,0.9114,75,10.819,208,3.6533,0.7473,-16.8602,-0.8453,1.0946,-0.2439,74,10.957,211,8.4659,0.8599,-12.1522,0.0074,1.3409,-0.4629,70,11.672,225,2.2473,-2.3698,-14.7601,1.0048,1.3653,-0.0673,39
11.479,221,11.271,-1.4483,-10.4983,-0.2132,-0.0196,1.1821,75,10.87,209,0.9701,-0.7716,-16.8743,0.0534,1.2122,0.432,74,11.009,212,7.4996,2.0706,-13.2843,0.1789,0.3052,-0.8691,70,11.724,226,6.7575,0.4884,-18.7538,0.7956,0.3297,-0.4819,39
11.531,222,9.1059,-1.5503,-9.21,0.4873,-0.036,1.034,75,10.922,210,0.4928,0.5711,-15.7827,0.7107,0.212,0.9806,74,11.061,213,6.1498,0.3909,-13.5114,0.4714,-0.4506,-1.2225,70,11.775,227,8.2978,1.6218,-20.7567,0.8229,0.2242,-0.4064,39
11.583,223,4.6968,1.1888,-7.8721,1.03,0.5769,0.841,75,10.974,211,0.3351,2.1756,-14.4587,0.1354,0.825,0.6587,74,11.113,214,4.4832,0.1653,-11.6266,0.4577,-1.0023,-1.4201,70,11.827,228,9.2485,2.0088,-18.6683,1.0655,0.7473,-0.7565,39
11.635,224,3.7368,0.0875,-8.0402,0.0744,-0.0967,0.0999,75,11.026,212,1.3154,3.8432,-14.0794,-0.023,0.2364,-0.0982,74,11.164,215,3.088,0.6695,-12.3515,1.0063,-0.8986,-1.5073,70,11.879,229,6.369,-0.8049,-21.0186,0.4522,0.6597,-0.6326,39
11.687,225,3.0262,-0.8,-7.5788,0.395,-0.3311,-0.0116,75,11.078,213,5.8799,-2.0601,-18.2156,0.305,0.5127,0.5653,74,11.216,216,7.5195,-0.6019,-11.3524,1.3217,-0.7194,-1.0165,70,11.931,230,4.9785,-2.0538,-19.1159,-0.347,-0.1586,-0.2589,39
11.738,226,2.613,-0.5165,-8.0786,0.9627,-0.8651,-0.235,75,11.129,214,7.2319,2.9501,-15.3964,0.8943,1.0533,0.1383,74,11.268,217,10.7538,2.2742,-13.7497,0.4287,-0.307,-0.5702,70,11.982,231,1.0718,0.6055,-14.5439,0.2019,-0.1698,-0.7819,39
11.79,227,6.9647,0.0344,-12.859,0.4971,-1.3007,-0.526,75,11.181,215,2.5953,3.8231,-14.2556,0.2253,1.4154,0.4434,74,11.32,218,7.8163,-0.6136,-14.8054,-0.3624,0.4543,-0.164,70,12.034,232,5.8995,4.857,-8.007,0.7479,-0.7907,-1.0909,39
11.842,228,7.8958,-0.4098,-11.381,-0.3145,-0.6792,-0.5607,75,11.233,216,1.1457,3.2522,-13.675,-0.3942,0.815,0.7779,74,11.372,219,5.2826,-1.9327,-14.8885,-0.892,0.5386,0.3873,70,12.086,233,9.423,5.7186,-13.7396,-0.1312,-0.9982,-1.0826,39
11.894,229,6.3472,-1.5523,-10.957,-0.1867,-0.5528,-0.5407,75,11.285,217,0.5766,1.9703,-13.2715,-0.3539,0.8882,-0.023,74,11.423,220,4.2314,-2.2315,-13.1198,0.0255,0.6147,0.5284,70,12.138,234,5.7297,5.7068,-15.0132,0.5789,-0.4114,-0.9257,39
11.945,230,5.4523,-0.8626,-10.3979,0.2159,-0.232,-0.4793,75,11.337,218,0.6137,2.33,-11.4712,0.1399,0.6199,-0.2402,74,11.475,221,3.7807,-0.4488,-12.2152,0.44,0.8617,0.7583,70,12.19,235,5.7141,4.2397,-15.2732,0.338,0.1966,-0.7514,39
11.997,231,6.3171,-1.5464,-10.382,-0.5124,-0.2954,-0.4314,75,11.388,219,1.0399,3.6258,-14.8199,0.3606,-0.1972,-0.0968,74,11.527,222,1.5153,-2.6133,-16.9201,-0.3541,0.4181,1.2311,70,12.241,236,6.1523,2.7321,-13.9134,0.0715,0.3689,-0.6804,39
12.049,232,8.7836,-1.6773,-11.0716,-0.6832,-0.0366,-0.2368,75,11.44,220,3.6112,0.9682,-14.8933,-0.2762,0.5351,-0.4139,74,11.579,223,6.3717,-7.1443,-13.9592,0.4038,-0.2927,1.2012,70,12.293,237,6.9272,2.4091,-13.7742,-0.1346,0.3689,-0.6101,39
12.101,233,8.5514,-1.6641,-10.8469,-0.724,0.1052,0.1128,75,11.492,221,3.0974,1.9732,-13.0839,0.0579,0.4142,-0.3342,74,11.63,224,5.1258,-10.4372,-17.0914,-0.199,0.3956,0.8086,70,12.345,238,8.2847,1.0389,-13.1605,-0.0658,0.2895,-0.5004,39
12.153,234,7.505,-1.9055,-10.6664,-0.408,0.1021,0.2467,75,11.544,222,3.2755,2.064,-12.2641,0.0849,0.2021,0.0199,74,11.682,225,7.3385,-6.1341,-15.0796,-0.1968,0.8883,0.5674,70,12.397,239,8.3504,0.8561,-12.9583,-0.0643,0.2181,-0.3819,39
12.205,235,7.2911,-1.9625,-10.5163,0.0094,-0.0087,0.1023,75,11.596,223,2.8936,2.9228,-12.0794,-0.2627,0.1105,0.5061,74,11.734,226,7.3635,-5.5981,-13.418,-0.3013,0.8363,0.4749,70,12.449,240,8.0898,0.3762,-12.8549,-0.0597,0.1554,-0.2469,39
12.256,236,8.2702,-2.0872,-10.8754,0.3558,-0.1733,-0.0992,75,11.647,224,5.209,2.3862,-13.1516,-0.8718,-0.4758,1.0347,74,11.786,227,7.8168,-4.2741,-12.65,-0.2313,0.6649,0.3868,70,12.5,241,8.3678,0.0916,-12.7803,-0.0454,0.0611,-0.1597,39
12.308,237,8.4026,-1.7288,-11.1434,0.443,-0.1404,-0.0825,75,11.699,225,6.4633,2.0322,-13.5425,-0.673,-0.0552,0.7708,74,11.838,228,8.7348,-3.2487,-12.2599,0.0083,0.4415,0.2571,70,12.552,242,8.4852,-0.1706,-12.7867,-0.02,0.0326,-0.1091,39
12.36,238,8.1319,-1.5849,-10.8809,0.358,-0.2137,0.0093,75,11.751,226,6.1274,2.1586,-13.2272,-0.2299,-0.0367,0.2814,74,11.889,229,8.9253,-2.8075,-12.2862,-0.057,0.3296,0.1935,70,12.604,243,8.4672,-0.484,-12.7731,-0.0362,0.0312,-0.068,39
12.411,239,8.3628,-1.7403,-10.7982,0.5529,-0.283,-0.0313,75,11.803,227,6.3064,2.2106,-13.1172,-0.2871,-0.1517,0.0298,74,11.941,230,8.8392,-2.5147,-12.1343,-0.0326,0.3078,0.1273,70,12.656,244,8.5202,-0.5896,-12.7497,-0.0329,0.0215,-0.0603,39
