right_hand_timestamp,right_hand_index,right_hand_accel_x,right_hand_accel_y,right_hand_accel_z,right_hand_gyro_x,right_hand_gyro_y,right_hand_gyro_z,right_hand_battery_percentage,left_hand_timestamp,left_hand_index,left_hand_accel_x,left_hand_accel_y,left_hand_accel_z,left_hand_gyro_x,left_hand_gyro_y,left_hand_gyro_z,left_hand_battery_percentage,right_leg_timestamp,right_leg_index,right_leg_accel_x,right_leg_accel_y,right_leg_accel_z,right_leg_gyro_x,right_leg_gyro_y,right_leg_gyro_z,right_leg_battery_percentage,left_leg_timestamp,left_leg_index,left_leg_accel_x,left_leg_accel_y,left_leg_accel_z,left_leg_gyro_x,left_leg_gyro_y,left_leg_gyro_z,left_leg_battery_percentage
0.705,13,11.2339,2.6307,-6.2332,0.3774,-0.616,-1.0307,73,0.062,1,11.5437,2.2699,-12.1678,0.0087,0.3932,0.1076,86,0.614,11,10.6655,-4.4861,-11.4367,-0.1093,0.5792,0.5281,71,0.018,0,9.0757,0.8738,-8.6548,-0.0131,-0.6604,0.3826,40
0.757,14,13.2566,2.4755,-8.2209,-0.3391,-0.677,-1.0959,73,0.114,2,11.2483,5.0742,-10.2232,0.6781,0.502,0.1893,86,0.666,12,8.6031,-0.6522,-11.0589,0.5968,0.0525,0.8467,71,0.07,1,8.0388,0.4897,-9.2872,-0.6866,-0.9343,0.5299,40
0.808,15,11.8825,1.8912,-7.7458,-0.913,0.0474,-0.5815,73,0.166,3,3.9973,3.9074,-10.6265,-0.1851,0.7812,-0.5139,86,0.717,13,6.7689,1.1104,-10.9976,1.1121,-0.1812,0.6445,71,0.122,2,9.0499,5.6495,-9.8728,-0.6543,-0.8622,0.2316,40
0.86,16,6.3217,0.7002,-9.9368,-1.3437,0.717,-0.4074,73,0.218,4,4.2643,2.1513,-11.561,-0.8151,-0.1025,-0.8193,86,0.769,14,3.1818,2.5825,-11.7179,1.0473,-0.2977,0.3306,71,0.174,3,8.9703,4.0065,-10.1718,-0.5646,-1.2182,0.549,40
0.912,17,1.6915,0.505,-12.2149,-0.3121,0.6069,-0.0974,73,0.269,5,1.8091,0.6582,-11.6478,-0.1824,0.0177,-0.315,86,0.821,15,-1.5048,-0.226,-15.7761,0.5658,-0.8907,0.4758,71,0.225,4,9.7722,2.0543,-11.6295,-0.5017,-1.2007,0.5172,40
0.964,18,2.1024,-0.0654,-12.4425,-0.104,-0.2045,0.0193,73,0.321,6,0.8672,2.1182,-9.12,-0.1266,-0.2034,-0.3454,86,0.873,16,1.7469,-0.22,-14.8315,0.4103,-0.4599,0.2487,71,0.277,5,10.5668,0.6962,-12.8451,-0.3386,-0.1913,-0.09,40
1.015,19,2.5478,0.044,-11.0884,-0.5363,0.1092,0.6705,73,0.373,7,3.4815,1.4696,-8.7784,-0.7724,-0.8044,-0.2069,86,0.925,17,4.2971,-1.6767,-14.1174,-0.089,0.1313,0.352,71,0.329,6,12.8294,4.2944,-9.9939,0.2844,0.3667,-0.231,40
1.067,20,3.3253,-1.3403,-8.0499,-1.0688,-0.458,1.166,73,0.425,8,7.4608,-1.5233,-11.6291,-0.5783,-0.8938,0.1447,86,0.976,18,4.4859,-2.5941,-12.6689,-0.4421,-0.2866,-0.4171,71,0.381,7,6.14,0.0618,-15.2752,0.8822,0.296,-0.462,40
1.119,21,7.4846,-3.033,-7.8763,-0.1057,-0.7518,0.4702,73,0.477,9,8.6854,1.1256,-10.2312,0.2497,0.0268,0.1966,86,1.028,19,-2.0502,-7.1304,-17.2512,-0.9979,-0.5425,-0.6142,71,0.433,8,5.8214,1.8658,-15.9609,0.7107,-0.4508,0.3124,40
1.171,22,10.5116,-4.6051,-7.1054,0.5973,-0.639,0.6192,73,0.528,10,11.2589,2.2504,-9.0519,-0.3363,-0.0682,0.1476,86,1.08,20,1.8476,-7.8646,-16.0372,-1.1912,-1.0694,-0.2575,71,0.484,9,2.8928,-1.6404,-12.1798,0.1027,-0.8547,0.1289,40
1.223,23,12.3443,-1.584,-9.3516,1.0798,0.2161,0.7939,73,0.58,11,9.9668,-0.5047,-12.2089,0.3926,0.6293,0.3466,86,1.132,21,1.4456,-2.012,-12.5643,-0.1929,-1.3752,0.4586,71,0.536,10,3.3251,-2.9171,-16.7173,0.7497,-0.6292,-0.1119,40
1.274,24,8.3026,-0.6385,-9.8029,1.1952,0.8401,0.7284,73,0.632,12,3.9944,3.9469,-10.5737,0.8372,0.4791,0.859,86,1.183,22,1.2639,1.3664,-11.7812,0.347,-1.5291,0.5112,71,0.588,11,7.5441,3.1631,-9.5933,0.1864,-0.9965,-0.3149,40
1.326,25,5.0667,0.5105,-12.9773,1.0349,0.22,0.4251,73,0.684,13,5.5975,0.8285,-14.2964,-0.069,-0.2035,1.2473,86,1.235,23,6.1882,4.5007,-6.0144,0.3376,-0.7327,0.6843,71,0.64,12,10.6233,1.7994,-6.1337,0.7434,-1.3941,0.4456,40
1.378,26,3.9338,-0.4014,-13.9807,0.6016,0.0361,0.6484,73,0.736,14,4.6545,0.5506,-14.0501,0.6214,-0.1979,1.1767,86,1.287,24,9.7822,1.8483,-7.466,-0.0519,-0.7148,0.3188,71,0.692,13,12.8706,-3.9835,-9.2061,0.6573,-1.6842,0.6577,40
1.43,27,3.1348,0.4687,-12.8431,0.087,-0.643,0.7637,73,0.787,15,3.1148,2.6999,-9.1325,0.6639,-0.2418,1.3256,86,1.339,25,12.4052,6.7009,-3.321,-0.7131,-1.1478,0.4758,71,0.743,14,10.6348,-5.9742,-10.9808,-0.1168,-0.7042,0.5397,40
1.482,28,3.2762,-0.5924,-9.0523,-0.6139,-0.9802,0.936,73,0.839,16,6.7963,-2.3822,-8.42,-0.1955,-0.8478,1.5743,86,1.391,26,10.3591,1.9849,-7.4152,-1.1957,-0.8988,0.0365,71,0.795,15,7.3074,-1.3453,-13.6067,-0.052,0.171,0.4395,40
1.533,29,7.4487,-2.3577,-5.8746,0.0797,-1.3845,0.9038,73,0.891,17,9.8801,-2.0373,-10.1771,0.529,-0.2686,1.366,86,1.442,27,11.5059,0.0413,-6.0929,-1.4832,-1.3293,-0.3068,71,0.847,16,2.5479,3.0613,-16.688,-0.715,0.8098,-0.0892,40
1.585,30,10.494,-2.7122,-8.6734,-0.5999,-0.5569,0.6256,73,0.943,18,10.0794,1.609,-10.2629,-0.0358,0.4781,1.1361,86,1.494,28,9.0627,-5.2069,-4.3137,-0.406,-0.7654,-0.7025,71,0.899,17,1.1744,2.5235,-18.7283,-1.1989,0.9552,-0.733,40
1.637,31,12.7166,-4.976,-8.8482,0.2229,-0.6455,-0.2185,73,0.995,19,7.1077,2.9479,-10.5305,-0.447,1.0052,0.3052,86,1.546,29,3.3053,-6.9467,-5.4981,0.192,0.1197,-0.7708,71,0.951,18,0.7545,-1.7669,-19.4407,-0.4254,0.8817,-0.9954,40
1.689,32,9.0089,1.5931,-8.7985,0.6807,0.2113,-0.0541,73,1.046,20,0.6588,5.4406,-10.656,-1.0062,0.4807,-0.0475,86,1.598,30,-0.5998,-5.3056,-11.4119,-0.5304,0.7657,-0.4562,71,1.002,19,1.0081,-4.6895,-17.3565,-0.9132,0.0222,-0.1193,40
1.74,33,3.4467,-1.0229,-13.0999,-0.1806,0.8367,-0.6445,73,1.098,21,2.9992,3.6426,-13.033,-1.4144,0.3782,-0.481,86,1.65,31,1.2319,-2.7063,-16.3338,0.2895,0.7771,-0.1252,71,1.054,20,5.8531,1.8695,-10.0598,-1.3209,-0.3499,0.2172,40
1.792,34,1.976,-1.1311,-13.4283,0.3861,-0.0587,-0.8165,73,1.15,22,1.6498,3.7125,-12.7376,-0.7728,0.3173,-1.0298,86,1.702,32,6.1648,-7.2122,-9.3371,0.0341,0.0227,0.2487,71,1.106,21,3.1588,1.776,-13.4882,-1.1952,-0.3161,0.4598,40
1.844,35,3.2847,-2.3216,-11.836,-0.3956,-0.1804,-0.3126,73,1.202,23,3.0767,2.855,-11.5979,-0.4958,0.4877,-1.4372,86,1.753,33,9.7651,-10.2266,-12.119,-0.1277,-0.6041,0.7986,71,1.158,22,7.4227,0.2984,-12.2534,-0.9318,0.3945,-0.0338,40
1.896,36,2.5913,-2.6531,-9.5786,-0.9661,0.0675,0.0812,73,1.254,24,0.9407,0.7143,-10.1574,-0.7299,0.5396,-1.7353,86,1.805,34,12.3927,-5.9417,-11.7335,-0.5294,0.0865,0.1481,71,1.21,23,10.5347,-0.4056,-15.7671,-1.1317,0.2582,0.0139,40
1.948,37,1.8897,-2.3517,-7.6967,-1.2648,0.1799,0.3624,73,1.306,25,4.9154,0.0248,-9.6871,-0.668,0.03,-1.942,86,1.857,35,10.7847,1.0154,-14.9122,0.0741,0.5655,-0.3799,71,1.261,24,7.0685,0.4677,-18.6923,-0.1513,-0.2442,0.6569,40
1.999,38,5.0348,-3.0778,-6.6279,-0.3061,-0.3528,0.3066,73,1.357,26,8.5074,0.5647,-11.401,0.1842,0.6919,-1.9962,86,1.909,36,10.2064,2.2153,-13.8664,0.3069,-0.216,-0.5873,71,1.313,25,4.4368,5.6335,-20.9315,-0.5795,-0.8414,1.1591,40
2.051,39,8.7323,-3.9362,-9.4475,-0.4946,-0.2707,-0.1753,73,1.409,27,11.1289,3.9933,-9.1199,0.3548,0.1355,-0.8018,86,1.961,37,6.7416,2.9115,-10.8552,-0.4512,-0.2473,-0.9992,71,1.365,26,5.568,5.2985,-12.7653,-0.2688,-1.1087,0.3472,40
2.103,40,11.4308,-5.6221,-9.7968,-0.1763,-0.4838,-0.2462,73,1.461,28,8.9799,2.1296,-9.6184,-0.4211,0.36,0.0065,86,2.012,38,5.4197,0.1043,-12.1228,-0.9606,0.2297,-1.206,71,1.417,27,5.3589,6.0219,-6.7089,0.4616,-0.4036,-0.418,40
2.155,41,7.8217,-4.5398,-8.3211,0.5098,0.3293,-0.216,73,1.513,29,5.6431,-0.0378,-10.1984,0.3644,0.1405,0.6379,86,2.064,39,5.9914,-4.1732,-16.8526,-0.0245,-0.1799,-0.9009,71,1.469,28,5.5603,1.6746,-2.2887,0.8201,-0.031,-0.9765,40
2.207,42,0.4216,-5.4442,-9.9633,1.0464,-0.429,-0.0465,73,1.565,30,4.565,1.4715,-9.1363,0.9377,-0.0749,1.1113,86,2.116,40,9.6385,2.3061,-14.3932,0.1758,-0.8047,-0.6237,71,1.52,29,9.1755,-2.3147,0.9373,-0.0114,0.2926,-0.8174,40
2.258,43,3.7098,-3.9434,-9.9617,1.4381,-0.9824,-0.2282,73,1.617,31,4.0356,2.5846,-8.553,0.6877,0.214,1.3699,86,2.168,41,12.248,4.5634,-11.9768,0.4315,-0.3785,-0.4536,71,1.572,30,11.8139,-3.0248,-2.6895,0.5717,0.5979,-0.2021,40
2.31,44,2.3448,-3.5095,-10.3709,1.2021,-0.0346,0.1797,73,1.668,32,2.142,0.9864,-9.1061,0.2913,0.4362,1.2141,86,2.22,42,12.3929,3.4476,-11.8734,0.2175,0.4021,-0.0594,71,1.624,31,12.1665,-3.2151,-5.7028,1.0557,-0.0993,0.0414,40
2.362,45,1.4604,-2.5353,-10.6056,1.3667,-0.4041,0.4831,73,1.72,33,6.4832,0.8462,-10.5055,0.8843,-0.3543,1.1051,86,2.271,43,11.978,2.7524,-10.8921,-0.2288,0.7676,-0.1423,71,1.675,32,8.7928,-4.4672,-12.1434,1.2923,0.0944,0.1118,40
2.414,46,6.1235,0.7512,-14.2721,1.4112,-0.9642,0.5983,73,1.772,34,9.6516,1.9773,-11.834,1.3171,0.36,1.3464,86,2.323,44,8.0882,1.0242,-12.3286,-0.5133,1.1546,-0.1694,71,1.727,33,7.1228,-2.3661,-8.5883,1.6178,0.5698,0.1658,40
2.466,47,9.4292,0.6161,-13.7091,0.5864,-0.3863,1.0244,73,1.824,35,11.5908,4.251,-8.9757,0.562,-0.4099,1.1956,86,2.375,45,6.3822,0.1522,-12.4354,-0.2781,0.5505,-0.1551,71,1.779,34,5.1668,0.2033,-7.237,0.9988,1.1006,-0.1506,40
2.517,48,10.5018,0.4402,-12.2565,0.3298,-0.3271,0.5214,73,1.876,36,9.1503,3.5339,-8.6227,-0.2699,-0.1376,0.7173,86,2.427,46,6.8933,-0.7685,-9.1909,0.2188,0.0562,-0.1701,71,1.831,35,4.8438,0.8465,-8.2199,0.0519,1.4882,-0.4907,40
2.569,49,8.4564,-0.2132,-11.3591,-0.3768,0.3952,-0.0898,73,1.927,37,5.6318,0.5582,-8.002,-0.3764,0.0501,0.356,86,2.478,47,8.2513,-0.3803,-11.8253,-0.1097,0.0527,0.0988,71,1.883,36,8.1973,2.1508,-13.9804,-0.6392,1.6928,-0.3124,40
2.621,50,4.5537,-1.2407,-10.4188,-0.5561,0.8591,-0.1337,73,1.979,38,4.2776,0.7769,-6.78,0.397,0.1916,0.0446,86,2.53,48,10.3751,0.2506,-12.3075,-0.2709,0.4976,-0.003,71,1.934,37,11.1,4.116,-14.1844,-0.6316,0.7297,0.3482,40
2.673,51,2.2657,-1.9116,-9.3422,-0.3858,0.4153,-0.3184,73,2.031,39,3.6169,0.5944,-6.0204,0.4041,0.35,-0.122,86,2.582,49,9.4327,1.6798,-12.506,-0.7226,0.6565,-0.1926,71,1.986,38,11.4205,0.5136,-14.6707,0.1566,0.3072,0.2077,40
2.724,52,1.564,-1.5667,-8.1496,0.1485,-0.1829,-0.4593,73,2.083,40,7.5596,-0.0728,-7.5141,0.5192,-0.2345,-0.4395,86,2.634,50,7.3528,-0.3613,-15.6843,-1.2026,1.1564,-0.1878,71,2.038,39,9.5365,0.5957,-14.9489,0.4572,0.006,-0.0208,40
2.776,53,6.199,-0.355,-12.3497,-0.2815,0.1621,0.0063,73,2.135,41,10.4372,-1.374,-9.7125,0.9174,0.4136,-0.9082,86,2.686,51,4.7554,-1.7178,-14.4979,-1.5529,1.0619,-0.018,71,2.09,40,9.4623,1.068,-13.7412,0.7558,0.2031,-0.3359,40
2.828,54,9.5819,-0.5518,-13.5028,-0.8829,0.4882,0.6812,73,2.186,42,10.4667,-0.0481,-8.9018,0.5119,0.9086,-0.7696,86,2.737,52,3.8248,-1.5079,-13.6079,-0.4569,0.1165,0.0156,71,2.142,41,7.646,1.3764,-11.87,-0.1254,0.1729,-0.5444,40
2.88,55,9.3162,-1.4898,-11.8805,-0.7047,0.3301,0.2781,73,2.238,43,3.4633,-0.8336,-9.6147,-0.3015,0.9972,-0.7934,86,2.789,53,3.4718,4.2514,-16.2752,-0.1803,0.6447,-0.1266,71,2.193,42,6.8963,0.3133,-12.5691,-0.7686,-0.2075,-0.4883,40
2.932,56,6.3359,0.0541,-10.6793,0.0502,0.7452,0.1145,73,2.29,44,3.7207,-1.0064,-9.7841,-0.4719,0.3654,-0.6811,86,2.841,54,4.7696,2.8232,-15.8262,0.2598,0.5705,-0.3115,71,2.245,43,5.6828,-0.5473,-9.4941,-0.1978,-0.6048,-0.4142,40
2.983,57,2.9164,0.2628,-10.4145,-0.6408,0.8147,-0.0915,73,2.342,45,1.8139,-0.1504,-9.6956,-0.4288,0.3211,-0.5561,86,2.893,55,6.2955,3.1711,-14.3913,0.4621,0.1401,-0.2396,71,2.297,44,9.2649,0.2752,-7.8054,-0.3173,-0.7047,-0.2251,40
3.035,58,2.1102,-0.7036,-9.5072,-0.6397,0.2745,-0.4085,73,2.394,46,2.2609,0.5889,-9.6444,-0.8947,-0.1344,-0.5574,86,2.945,56,7.1928,2.1471,-13.4659,-0.1315,0.5666,0.136,71,2.349,45,10.7009,-1.8578,-9.4422,-0.2341,-0.2039,-0.3585,40
3.087,59,2.4849,-0.6372,-9.3199,-0.2932,-0.122,-0.4526,73,2.445,47,6.57,1.2017,-10.3557,-1.3013,-0.5587,-0.3619,86,2.996,57,7.7572,1.2075,-11.7359,-0.2808,0.6907,0.0151,71,2.401,46,12.2893,-1.4881,-8.8453,0.0938,-0.0072,-0.6795,40
3.138,60,6.8712,-0.9514,-10.299,-0.5742,-0.4526,-0.4429,73,2.497,48,9.0551,0.7905,-10.3384,-1.1073,-0.2788,-0.4508,86,3.048,58,8.328,1.3894,-10.7955,-0.0952,0.6876,-0.0757,71,2.452,47,10.9723,-0.3479,-9.95,0.1619,0.3296,-0.6083,40
3.19,61,10.0725,-1.1825,-11.0106,-1.0965,-0.274,-0.4192,73,2.549,49,6.8391,1.2042,-9.4307,-1.2092,-0.2029,-0.9984,86,3.1,59,8.6377,1.1938,-10.0374,-0.0806,0.5054,-0.0067,71,2.504,48,7.891,-1.6603,-7.9011,0.2395,0.6862,-0.3865,40
3.242,62,8.6339,-2.1769,-10.0516,-1.4121,0.1109,-0.0473,73,2.601,50,7.0758,0.6323,-9.2494,-1.3546,-0.3959,-1.2199,86,3.152,60,8.9011,1.0375,-9.6594,-0.152,0.3238,-0.0597,71,2.556,49,5.2567,0.8424,-7.4917,-0.0862,0.4121,-0.2831,40
3.294,63,6.8726,-1.4795,-9.6224,-0.7076,-0.0394,0.2918,73,2.653,51,6.6777,0.8292,-9.2224,-0.7704,-0.4095,-0.9258,86,3.204,61,8.9988,0.9923,-9.4245,-0.0731,0.2421,-0.0351,71,2.608,50,5.9056,5.9069,-6.2633,-0.1469,0.2745,-0.2869,40
3.346,64,6.5765,-1.218,-9.8482,-0.5891,-0.1048,0.1722,73,2.705,52,8.4487,1.8038,-8.6274,-0.537,-0.3788,-0.4111,86,3.255,62,9.0805,0.8872,-9.0324,-0.0781,0.2013,-0.0588,71,2.659,51,9.4275,1.5102,-3.9532,-0.2033,0.4217,-0.114,40
3.397,65,9.1853,-1.3476,-9.7275,-0.5944,-0.2179,-0.2944,73,2.756,53,7.8837,1.8274,-8.5814,-0.9198,-0.2652,-0.2113,86,3.307,63,9.2492,0.9094,-8.8999,-0.0582,0.1235,-0.0729,71,2.711,52,9.3953,1.3081,-6.4419,-0.5131,0.3779,0.0086,40
3.449,66,8.8245,-1.5577,-9.648,-0.6983,-0.1747,-0.4132,73,2.808,54,7.9812,1.3671,-8.9107,-1.1392,-0.302,-0.3237,86,3.359,64,9.3784,0.9655,-8.7995,-0.0568,0.1246,-0.0769,71,2.763,53,9.1933,1.644,-7.4926,-0.3209,0.593,-0.2482,40
3.501,67,8.7214,-1.6675,-9.8149,-0.2502,-0.3714,-0.117,73,2.86,55,8.1226,0.9905,-9.2388,-0.6865,-0.1533,-0.326,86,3.411,65,9.3919,0.9374,-8.6378,-0.037,0.1178,-0.0809,71,2.815,54,8.8651,1.2254,-7.7353,-0.3555,0.597,-0.3723,40
3.553,68,8.9821,-1.4675,-9.8238,0.3575,-0.2044,0.0144,73,2.912,56,7.9956,1.3539,-9.2468,0.0795,-0.0056,-0.152,86,3.462,66,9.5445,1.0469,-8.4735,-0.0183,0.0585,-0.0659,71,2.867,55,8.9111,1.0659,-8.0338,-0.4028,0.4943,-0.4463,40
3.605,69,8.8441,-0.8096,-9.6497,0.4117,-0.0356,0.0284,73,2.964,57,7.7647,2.0799,-8.9033,0.3841,-0.061,0.1514,86,3.514,67,9.6224,1.0188,-8.4854,-0.032,-0.0322,-0.037,71,2.918,56,8.7254,1.4387,-8.1755,-0.3196,0.4623,-0.3949,40
3.656,70,8.8384,-0.8338,-9.6149,-0.0007,-0.0377,0.0907,73,3.015,58,8.0532,2.446,-8.9758,-0.1719,-0.102,0.485,86,3.566,68,9.8503,0.8697,-8.8761,0.0215,-0.1649,0.0405,71,2.97,57,8.6654,1.4871,-8.3058,-0.1787,0.3009,-0.2764,40
3.708,71,8.7457,-1.1069,-9.6373,-0.0031,-0.0124,0.0956,73,3.067,59,8.1998,2.1655,-9.2377,-0.5609,-0.111,0.6257,86,3.618,69,10.0783,-0.3266,-10.8645,-0.6371,-0.4185,0.0589,71,3.022,58,8.8285,1.5491,-8.5308,-0.1965,0.1584,-0.2227,40
3.76,72,8.6661,-0.9299,-9.6173,0.2391,0.0402,0.0319,73,3.119,60,8.197,1.9075,-9.2491,-0.4344,-0.1323,0.532,86,3.67,70,9.9934,-0.7868,-11.7803,-0.7266,-0.8663,0.243,71,3.074,59,8.9115,1.6104,-8.6892,-0.1576,0.143,-0.1959,40
3.812,73,8.636,-0.7301,-9.5988,0.1752,0.0683,0.0059,73,3.171,61,8.2903,1.9939,-9.2561,-0.1938,-0.1019,0.3536,86,3.721,71,9.2328,0.0881,-11.6302,-0.161,-1.3041,0.4567,71,3.125,60,8.8043,1.6858,-8.7344,-0.102,0.1391,-0.1675,40
3.863,74,8.5461,-0.7939,-9.7075,0.0553,0.0683,0.0577,73,3.223,62,8.4144,2.0507,-9.2627,-0.0478,0.0197,0.1955,86,3.773,72,8.9287,2.6997,-6.8881,0.089,-0.9151,0.2744,71,3.177,61,8.7758,1.8045,-8.7832,-0.1046,0.1103,-0.1596,40
3.915,75,8.5128,-0.7254,-9.6327,0.1453,0.0017,0.082,73,3.274,63,8.4317,1.8933,-9.4433,0.163,0.1332,0.0221,86,3.825,73,10.3118,1.2708,-5.7392,0.2329,-0.0859,0.1923,71,3.229,62,8.8067,1.8108,-8.8695,-0.0916,0.1056,-0.1575,40
3.967,76,8.3208,-0.6488,-9.4656,-0.0013,-0.1134,0.0006,73,3.326,64,8.2029,1.8467,-9.6172,0.4435,0.2143,-0.1479,86,3.877,74,10.4531,0.8595,-6.9554,0.1797,0.4869,0.2396,71,3.281,63,8.7608,1.889,-8.8724,-0.0787,0.1234,-0.1542,40
4.019,77,8.2593,-0.9062,-9.0964,-0.1259,-0.2043,-0.1278,73,3.378,65,8.2143,1.9568,-9.7302,0.6232,0.2369,-0.2193,86,3.929,75,10.1023,0.5078,-7.3979,0.0716,0.6786,0.2608,71,3.333,64,8.7578,1.8342,-8.8225,-0.0604,0.1323,-0.1628,40
4.071,78,8.7284,-1.1016,-9.0289,0.2552,-0.1897,-0.2325,73,3.43,66,8.4374,2.1323,-9.8451,0.5972,0.1998,-0.1538,86,3.98,76,9.9767,-0.0637,-7.5195,-0.1195,0.6633,0.2128,71,3.384,65,8.7678,1.9765,-8.8095,-0.0429,0.1572,-0.1613,40
4.122,79,8.9584,-0.8571,-9.1322,0.5611,-0.1263,-0.1689,73,3.481,67,8.6213,2.1769,-9.8781,0.5102,0.1383,-0.0349,86,4.032,77,10.1928,-0.5945,-7.3787,-0.126,0.5673,0.2321,71,3.436,66,8.685,2.1264,-8.7103,0.0265,0.1717,-0.1045,40
4.174,80,9.6753,-0.6558,-9.3524,0.3572,0.0295,0.001,73,3.533,68,7.9435,2.3541,-9.5596,0.2774,-0.0097,0.0172,86,4.084,78,9.2811,0.6587,-7.1608,-0.0998,0.4437,0.1987,71,3.488,67,8.6448,2.1847,-8.5977,0.0403,0.1428,-0.0379,40
4.226,81,8.9512,-0.5265,-9.4458,0.0674,0.1901,0.2371,73,3.585,69,8.0796,2.2909,-9.2817,-0.3214,-0.2665,-0.0081,86,4.136,79,9.3629,0.2243,-7.272,-0.1247,0.3028,0.1537,71,3.54,68,8.682,2.1884,-8.584,0.0149,0.1022,0.0133,40
4.278,82,8.6742,-0.5304,-9.733,-0.2066,0.2398,0.4091,73,3.637,70,8.4833,1.4258,-9.5755,-0.5206,-0.1998,-0.0748,86,4.188,80,9.3743,-0.126,-7.4834,-0.0714,0.1767,0.1477,71,3.591,69,8.6582,2.1816,-8.5844,0.0111,0.0851,0.0747,40
4.329,83,8.3064,-0.6703,-9.9018,-0.1104,0.2909,0.2651,73,3.689,71,8.519,0.9587,-9.2718,0.0238,-0.177,-0.1671,86,4.239,81,9.3891,-0.4363,-7.6723,-0.0524,0.077,0.1125,71,3.643,70,8.7414,2.2312,-8.5795,-0.0329,0.0699,0.1464,40
4.381,84,8.1858,-0.7865,-9.9348,0.1796,0.0705,-0.0644,73,3.74,72,8.584,0.8105,-8.9256,0.6855,-0.0865,-0.22,86,4.291,82,9.3684,-0.6306,-7.8077,-0.0217,-0.021,0.015,71,3.695,71,8.6624,1.8606,-8.4988,-0.011,0.0599,0.244,40
4.433,85,8.4449,-0.7214,-10.1361,0.3291,-0.0756,-0.3809,73,3.792,73,8.2079,2.2882,-8.4067,1.1721,0.1294,-0.202,86,4.343,83,9.3947,-0.7136,-7.8763,0.0336,-0.1585,-0.1372,71,3.747,72,8.7105,1.6205,-8.4154,0.1016,0.027,0.3298,40
4.485,86,8.5422,-0.6541,-10.2715,0.177,-0.1464,-0.4808,73,3.844,74,7.9211,2.5481,-8.5152,0.5487,0.1853,0.0726,86,4.395,84,9.4508,-0.8548,-7.8094,0.2781,-0.5278,-0.2422,71,3.799,73,8.8648,1.767,-7.9692,0.311,-0.1434,0.4345,40
4.536,87,8.7854,-0.8207,-10.4599,0.0077,-0.1561,-0.4133,73,3.896,75,7.9878,2.8477,-8.689,-0.2775,0.1091,0.4832,86,4.446,85,8.9591,0.1083,-8.6079,0.5467,-1.0586,-0.1471,71,3.85,74,9.3124,1.0926,-8.0565,0.3965,-0.3335,0.4309,40
4.588,88,8.8143,-0.9412,-10.5428,-0.0457,-0.1394,-0.3426,73,3.948,76,8.1393,2.4275,-9.0314,-0.671,0.0451,0.7055,86,4.498,86,7.4337,-0.8443,-9.6976,1.056,-1.446,-0.442,71,3.902,75,9.3275,0.9003,-8.4072,0.4425,-0.4026,0.3863,40
4.64,89,8.6545,-1.0616,-10.5521,0.0161,-0.2059,-0.3314,73,4.0,77,7.6234,1.9883,-9.0973,-0.4594,0.08,0.6073,86,4.55,87,10.5931,3.8903,-12.7766,0.984,-1.7262,-0.5985,71,3.954,76,9.1726,0.2349,-8.7861,0.4945,-0.396,0.349,40
4.692,90,8.0946,-1.2259,-10.3711,0.2585,-0.2352,-0.4056,73,4.051,78,5.9827,1.5526,-8.5383,-0.0878,0.2342,0.2729,86,4.602,88,10.6695,2.7532,-15.2628,0.5029,-0.7193,0.0188,71,4.006,77,9.0336,-0.0358,-9.1485,0.2666,-0.4038,0.3516,40
4.744,91,6.7449,-1.1436,-9.6703,0.5647,-0.1225,-0.43,73,4.103,79,4.4303,0.7324,-8.0984,0.3346,0.0416,-0.0295,86,4.654,89,13.0528,2.2483,-14.7869,-0.3082,0.1534,-0.3543,71,4.057,78,8.7767,0.2759,-9.6609,-0.0526,-0.3848,0.4069,40
4.795,92,4.7758,-0.4504,-9.0283,0.8417,-0.0097,-0.1497,73,4.155,80,8.1533,-0.2078,-9.8594,0.6289,-0.381,-0.4356,86,4.706,90,10.7029,0.6405,-18.3117,-0.9002,0.7903,-0.1573,71,4.109,79,8.368,1.5323,-10.0027,-0.4481,-0.3531,0.4562,40
4.847,93,8.5432,0.4949,-11.3445,0.9674,-0.4321,0.1389,73,4.207,81,10.8705,1.108,-10.8416,1.1307,0.3028,-0.3372,86,4.757,91,8.4161,-4.2371,-17.4958,-1.3322,0.064,0.5454,71,4.161,80,8.4787,1.3043,-11.0273,-0.4951,-0.26,0.2937,40
4.899,94,11.2928,0.7756,-12.6226,0.1573,0.2124,0.4566,73,4.259,82,11.9495,2.6659,-9.7828,0.5016,0.4594,0.4069,86,4.809,92,7.3568,-1.5537,-15.079,-0.2958,-0.6267,0.7059,71,4.213,81,7.5776,1.9228,-9.7239,0.238,-0.019,-0.1002,40
4.951,95,11.8881,0.604,-12.4157,0.5759,0.4538,0.5308,73,4.31,83,5.1529,-0.202,-11.0031,-0.3139,1.0144,0.0193,86,4.861,93,6.0722,1.0676,-14.0886,0.4607,-0.7983,0.9432,71,4.264,82,7.6397,-0.8788,-11.4862,-0.4926,-0.1157,-0.0919,40
5.003,96,7.43,0.7215,-10.5521,0.4377,1.0136,0.375,73,4.362,84,4.1203,-0.5642,-10.3201,0.1427,0.3103,0.3887,86,4.913,94,5.2786,3.9584,-14.3085,-0.339,-0.7748,0.7655,71,4.316,83,10.2581,1.709,-11.1751,-0.2602,-0.4775,-0.1543,40
5.055,97,3.5735,0.3982,-10.9898,0.4227,0.1671,0.0354,73,4.414,85,2.4873,0.2425,-10.0076,-0.2855,0.5406,0.8652,86,4.965,95,7.3448,-2.348,-7.8589,0.2187,-1.2389,0.3729,71,4.368,84,9.6431,-0.5967,-12.5967,0.0702,-0.7445,-0.189,40
5.106,98,4.5171,-0.4086,-10.658,0.756,-0.003,-0.0072,73,4.466,86,2.5685,0.6803,-9.9965,-0.2009,0.3595,1.151,86,5.017,96,10.6263,0.9967,-9.848,-0.295,-1.289,0.2481,71,4.42,85,11.645,-0.9909,-12.7721,0.1924,-0.342,-0.4062,40
5.158,99,2.5205,0.5497,-10.036,1.2262,0.2508,0.2986,73,4.518,87,1.7203,0.3397,-9.3598,0.1159,0.2462,1.2282,86,5.068,97,13.0213,2.5671,-11.7614,-0.3175,-0.2831,0.0588,71,4.472,86,10.8559,0.9509,-12.2818,0.5215,0.4354,-0.4721,40
5.21,100,1.9219,1.6254,-8.8666,0.2543,0.1734,0.2275,73,4.569,88,3.9019,-0.5895,-9.1921,0.7563,-0.0215,1.5196,86,5.12,98,14.7693,4.68,-8.8624,-0.8042,-0.8553,0.2494,71,4.523,87,10.087,-0.9414,-16.7044,1.0553,0.9881,-0.8306,40
5.262,101,2.114,-0.0558,-6.8057,-0.4917,-0.0475,0.5151,73,4.621,89,7.7677,-1.5485,-9.1252,1.2237,-0.154,0.912,86,5.172,99,11.0461,2.7426,-12.2739,-0.2897,-1.0865,-0.3681,71,4.575,88,7.2998,2.3472,-15.9166,0.6473,0.5814,-0.7424,40
5.313,102,6.6005,-1.2934,-9.6162,-0.3335,0.4798,0.5829,73,4.673,90,10.5891,-2.4463,-9.6773,0.6462,-0.7313,0.0166,86,5.224,100,7.982,2.5136,-7.9504,-0.8867,-0.4896,-0.7595,71,4.627,89,4.3871,-1.7817,-13.2263,-0.2046,-0.0804,-0.6766,40
5.365,103,9.8749,-4.3593,-11.0085,-0.1765,0.4617,0.4546,73,4.725,91,10.5667,-0.6714,-7.0872,-0.1656,-0.1348,-0.5353,86,5.276,101,6.3501,0.1687,-7.7437,0.0139,0.321,-0.8846,71,4.679,90,3.1026,-4.0228,-11.0319,0.5253,0.1572,-0.6626,40
5.417,104,9.9428,-1.1895,-10.7036,0.5456,0.5348,0.1981,73,4.777,92,6.7445,-1.041,-7.6692,-0.8009,-0.724,-0.8385,86,5.327,102,5.5582,-0.8749,-9.6356,0.6866,0.9126,-1.2279,71,4.73,91,2.3112,-5.5082,-10.6661,-0.0696,-0.0993,0.124,40
5.469,105,5.3386,2.12,-11.5216,-0.2387,1.0728,0.1146,73,4.828,93,4.464,-1.0896,-9.1931,0.0317,0.1456,-0.9615,86,5.379,103,4.1223,-2.5901,-14.2893,1.1777,0.7553,-1.4263,71,4.782,92,-0.7291,1.272,-6.3575,-0.7279,-0.3375,0.5638,40
5.521,106,3.0201,1.3137,-12.3906,-0.4603,0.3393,-0.3559,73,4.88,94,3.5675,0.9275,-9.2797,0.1583,0.299,-1.2343,86,5.431,104,8.2744,-7.1274,-14.0213,1.5211,-0.1222,-0.6466,71,4.834,93,0.5317,-1.2765,-10.6693,-0.5809,-0.3639,0.7653,40
5.572,107,2.6329,0.2667,-11.6923,-0.2887,-0.09,-0.636,73,4.932,95,2.8058,-2.1022,-11.0281,-0.5144,-0.1285,-1.4972,86,5.483,105,7.4108,-6.5752,-16.995,1.182,0.1968,-1.0699,71,4.886,94,5.4197,-3.773,-11.614,-0.5681,0.0535,0.0313,40
5.624,108,1.5873,-1.1141,-10.3243,-0.4834,0.0458,-0.6129,73,4.984,96,2.2246,-3.3916,-10.3396,0.1774,0.0755,-1.1968,86,5.534,106,8.9567,-2.6743,-16.894,0.8008,0.7717,-0.8616,71,4.938,95,5.4581,-3.0913,-8.93,-0.5234,0.724,-0.005,40
5.676,109,0.6184,-3.2011,-8.011,-0.4755,-0.0756,-0.2977,73,5.036,97,3.9642,-3.503,-8.3863,0.29,-0.0089,-0.9874,86,5.586,107,11.8028,0.4722,-9.9433,0.0426,1.2415,-0.1126,71,4.989,96,3.9095,-5.8679,-14.4987,-1.0511,0.6954,0.4387,40
5.727,110,0.977,-1.3816,-5.945,0.148,0.141,0.1138,73,5.087,98,7.8132,0.5573,-9.4273,0.4662,-0.2045,-0.6306,86,5.638,108,10.9236,-4.8924,-14.3805,-0.6441,1.1135,0.5956,71,5.041,97,3.5016,-4.8277,-12.9362,-0.0925,0.3548,0.9819,40
5.779,111,5.7706,-4.2869,-9.6488,-0.1123,-0.1877,0.2307,73,5.139,99,10.6223,4.4868,-9.3434,0.3815,-0.1543,-0.0323,86,5.69,109,8.0602,-5.4608,-11.7629,-1.0457,0.9314,1.1124,71,5.093,98,3.9782,-2.5071,-11.4539,0.2655,0.1087,1.397,40
5.831,112,9.2693,-2.5113,-10.9992,0.5924,-0.6011,0.1472,73,5.191,100,9.1643,5.2519,-9.1388,-0.4007,0.5634,0.0119,86,5.742,110,5.5459,-1.8204,-9.2187,-1.0224,0.6792,1.4755,71,5.145,99,2.5616,-1.7866,-8.9992,-0.152,0.4009,1.5759,40
5.883,113,9.4682,-0.9832,-9.7953,0.4568,0.2285,0.3625,73,5.243,101,2.2367,4.5277,-9.0649,-0.496,-0.0027,-0.2267,86,5.793,111,5.4711,-0.8041,-10.1057,-0.0697,0.9735,1.5363,71,5.196,100,1.5774,2.264,-10.9646,-0.788,0.1513,1.7006,40
5.935,114,4.4972,1.8757,-11.2842,0.2264,0.8492,0.34,73,5.295,102,1.7493,2.9389,-9.9774,-0.7522,0.0964,-0.2417,86,5.845,112,4.0755,4.4893,-15.0715,-0.2946,0.1728,1.3524,71,5.248,101,6.2685,6.9445,-5.3947,-0.2909,0.4506,1.0442,40
5.986,115,3.1392,0.1921,-12.3302,0.2329,-0.0234,-0.0565,73,5.346,103,1.6893,2.1804,-10.3927,-0.6904,-0.3618,-0.2763,86,5.897,113,4.5019,3.1718,-19.0047,0.4615,-0.5472,0.4272,71,5.3,102,7.5871,1.9107,-10.9318,0.2755,0.6331,1.2289,40
6.038,116,2.6107,0.5826,-12.4221,0.3525,-0.6257,-0.0736,73,5.398,104,1.1344,0.602,-10.8669,-0.5059,-0.4574,-0.3234,86,5.949,114,8.5514,7.6668,-16.6119,0.3659,-1.0601,-0.2651,71,5.352,103,10.6076,-0.4587,-12.0226,0.4956,1.147,0.2663,40
6.09,117,2.8334,0.9079,-11.2789,0.0071,-0.7762,-0.0884,73,5.45,105,0.7329,0.1881,-9.9876,-0.5813,-0.5205,-0.4148,86,6.001,115,9.8655,7.352,-17.1074,0.2632,-0.4113,-0.1103,71,5.404,104,5.9133,0.318,-15.665,1.0364,1.5221,-0.1677,40
6.142,118,0.6814,1.1269,-9.1583,-0.417,-0.1378,-0.1097,73,5.502,106,2.2928,0.581,-7.7821,-1.1043,-0.8728,-0.4042,86,6.053,116,12.4659,1.7305,-14.6079,-0.0417,-0.3753,-0.1442,71,5.456,105,5.8587,4.8838,-17.4495,1.4311,0.6564,-0.6982,40
6.194,119,2.628,1.2518,-7.5281,-0.7173,-0.7699,-0.307,73,5.554,107,6.5933,0.4561,-8.6504,-1.4016,-1.2173,-0.5026,86,6.104,117,11.9781,-0.2527,-17.6814,0.6461,-0.8988,-0.5195,71,5.507,106,5.7149,4.0009,-14.2773,0.3674,-0.1877,-0.4993,40
6.245,120,6.9756,0.1986,-9.9508,-1.1481,-0.6197,-0.2148,73,5.606,108,9.7319,5.1334,-7.8059,-0.3513,-1.0872,-0.0674,86,6.156,118,9.558,3.2796,-15.0782,-0.2037,-0.859,-0.7273,71,5.559,107,4.7551,2.3155,-12.0047,-0.4089,-0.6346,-0.8527,40
6.297,121,10.1487,-0.6875,-12.0057,-0.2302,-0.2151,0.0097,73,5.658,109,8.805,3.1899,-8.6805,-0.3124,-0.1144,-0.2018,86,6.208,119,6.0616,1.2755,-13.437,-0.5513,-0.697,-1.1551,71,5.611,108,3.5432,-1.2056,-11.6127,-0.4066,-0.3419,-0.8946,40
6.349,122,11.6401,0.3723,-11.9165,-0.2224,0.5254,0.5845,73,5.709,110,3.3343,1.5061,-9.5454,-0.7096,-0.2638,-0.0917,86,6.26,120,5.0687,1.1397,-12.3706,0.1433,-0.6804,-1.2264,71,5.663,109,3.1978,-4.7114,-12.8159,0.3779,-0.624,-1.1817,40
6.401,123,5.3171,0.0186,-12.461,-0.5654,1.0659,0.5531,73,5.761,111,1.4307,-0.5639,-11.5009,-0.1624,0.1254,0.0745,86,6.312,121,3.9569,0.8847,-13.855,0.5945,-0.8497,-1.3521,71,5.714,110,7.4512,-2.6117,-6.7459,-0.3763,-1.107,-0.9404,40
6.453,124,1.2132,-0.7307,-12.696,-0.0984,0.1321,0.036,73,5.813,112,1.9816,-0.7035,-11.9766,0.5532,-0.1401,0.1953,86,6.363,122,8.0522,-2.4306,-16.2669,-0.1078,-1.2894,-0.8967,71,5.766,111,10.5555,-3.3628,-9.8576,0.117,-1.3937,-0.0606,40
6.504,125,2.5176,-1.3968,-12.0543,0.144,-0.5729,-0.2741,73,5.865,113,1.2761,-0.1779,-11.0514,0.6412,0.0264,0.2223,86,6.415,123,11.1426,3.5779,-13.353,-0.2782,-1.6144,-1.2986,71,5.818,112,12.4978,-5.5249,-10.6546,0.4034,-0.9606,-0.34,40
6.556,126,1.9007,-1.3518,-11.4346,0.4576,-0.0496,-0.003,73,5.917,114,1.0466,-1.0744,-9.5309,0.4888,-0.0807,0.2562,86,6.467,124,11.6012,5.467,-15.0793,-0.1754,-0.5559,-0.9552,71,5.87,113,12.3414,-4.8046,-10.7205,0.3248,-0.0161,-0.4126,40
6.608,127,0.5451,1.1537,-10.3571,0.4526,0.3054,0.0699,73,5.968,115,2.3145,-0.0405,-8.2754,0.8571,0.007,0.4895,86,6.519,125,13.7328,6.1483,-12.6471,-0.7677,0.2727,-0.1631,71,5.922,114,10.0385,-3.7185,-11.9899,-0.4143,0.5006,0.2477,40
6.66,128,0.4118,0.9996,-7.9414,0.3895,-0.2392,-0.0626,73,6.02,116,6.6091,1.9586,-10.0958,0.9128,-0.6244,0.4574,86,6.57,126,11.0295,0.6617,-17.2353,-1.2355,0.5404,0.5587,71,5.973,115,8.0548,-0.9546,-7.3426,-0.9029,0.5125,0.8598,40
6.712,129,5.3582,2.2785,-9.4321,-0.2787,-0.1858,0.5015,73,6.072,117,9.7435,5.1436,-10.7707,0.5268,-0.5527,0.8715,86,6.622,127,7.9666,-4.7328,-17.1257,-1.5768,-0.2249,0.5839,71,6.025,116,7.2223,-0.1193,-6.3781,-1.3349,1.059,0.8818,40
6.763,130,8.9682,-2.5549,-10.4385,-0.8808,0.5468,0.939,73,6.124,118,11.001,4.4848,-10.3083,-0.2955,-0.0405,0.9199,86,6.674,128,8.3881,-6.3235,-15.1212,-0.4743,-0.8376,0.7494,71,6.077,117,6.9464,-0.4213,-7.2417,-1.6343,1.4579,0.7596,40
6.815,131,9.9863,-0.7678,-9.7689,-0.2985,1.0815,0.6679,73,6.176,119,3.4027,-0.7303,-11.5886,-0.048,0.609,0.1534,86,6.726,129,7.1925,0.5866,-14.2092,0.3304,-1.199,0.7722,71,6.129,118,5.946,-0.4395,-12.0109,-1.3922,1.749,0.9788,40
6.867,132,3.1969,-1.1123,-10.8855,-0.373,1.4717,1.062,73,6.227,120,3.9129,-0.1512,-10.8808,0.6119,0.1273,0.0462,86,6.778,130,4.0687,3.8007,-11.3412,-0.4341,-0.5797,0.7121,71,6.181,119,9.4569,4.9714,-16.6305,-1.3371,0.6097,0.8633,40
6.919,133,0.8873,-0.5447,-12.2246,0.4022,0.4048,0.7445,73,6.279,121,2.9407,-1.5483,-10.42,0.6377,-0.2034,-0.117,86,6.829,131,8.2353,-2.4632,-16.2822,-0.8549,-0.9066,1.1009,71,6.232,120,11.2522,1.4146,-16.8033,-0.9681,-0.2218,1.3104,40
6.97,134,1.1936,-1.1266,-12.0964,0.7112,-0.3739,0.4638,73,6.331,122,2.2623,-2.9694,-9.4913,0.1323,-0.03,0.1639,86,6.881,132,11.2762,-1.4964,-16.4398,-1.0364,-1.0472,0.9907,71,6.284,121,12.4345,-2.9794,-14.749,-0.3952,0.428,0.7575,40
7.022,135,1.8733,-1.589,-11.9645,0.8193,-0.6627,0.4432,73,6.383,123,2.7439,-4.0176,-9.1347,0.5076,0.0461,0.7844,86,6.933,133,13.4956,-0.6535,-16.2757,-1.0644,-0.0859,0.4179,71,6.336,122,14.1925,-3.0547,-11.6112,0.0535,0.8469,-0.1033,40
7.074,136,1.2446,-1.4503,-10.6144,0.8208,-0.4679,0.8657,73,6.435,124,5.9957,-4.3824,-7.9577,1.0422,-0.2179,1.2379,86,6.985,134,11.7044,-0.5855,-16.2178,-0.5272,0.6157,-0.3285,71,6.388,123,11.3034,-1.7605,-16.4556,0.7137,0.7141,-0.7468,40
7.126,137,2.9694,-1.1172,-7.7801,1.2689,-0.904,1.1056,73,6.486,125,9.2958,-2.4191,-9.9054,1.4324,-0.6159,1.5688,86,7.037,135,8.5332,2.1386,-19.4999,-0.7221,-0.0711,-0.9138,71,6.439,124,7.7966,2.7538,-16.663,1.1956,0.2204,-0.9807,40
7.178,138,7.2248,-1.0294,-9.2289,0.8862,-0.8523,0.6006,73,6.538,126,9.278,-2.9904,-11.2158,0.7176,-0.2523,0.5132,86,7.088,136,7.0913,0.7391,-14.1416,-1.2022,0.3632,-1.0938,71,6.491,125,6.4822,3.0131,-14.672,0.2388,-0.5059,-0.9434,40
7.229,139,10.3306,-3.9428,-8.3793,1.2078,-1.2913,-0.1972,73,6.59,127,8.486,-0.8388,-9.2988,1.1893,0.4323,-0.3118,86,7.14,137,6.1704,-0.2058,-11.9291,-0.3075,0.9434,-1.1948,71,6.543,126,5.9672,0.7065,-12.856,-0.5028,-0.9026,-1.1865,40
7.281,140,7.6447,-1.4929,-8.8794,1.5559,-0.3085,-0.5079,73,6.642,128,3.5418,1.5898,-8.6906,0.604,0.15,-0.3288,86,7.192,138,4.5804,-0.8068,-14.5187,0.4521,1.3669,-1.5215,71,6.595,127,6.6335,-4.7811,-11.4786,0.2097,-1.3085,-1.1245,40
7.333,141,3.3347,1.1804,-10.489,0.5924,-0.502,-0.6335,73,6.694,129,2.6002,2.8884,-8.8768,-0.2392,0.2089,-0.1618,86,7.244,139,1.5235,-4.2545,-18.0558,1.0065,1.234,-1.7845,71,6.647,128,4.6034,-6.4698,-15.931,-0.524,-1.3914,-0.7968,40
7.385,142,2.8891,0.7462,-11.1887,-0.245,-0.2567,-0.9104,73,6.745,130,1.9393,2.3764,-10.1674,-0.8546,0.3213,-0.4579,86,7.296,140,6.3776,-8.3422,-10.5939,0.2019,1.2256,-1.7067,71,6.698,129,8.4771,-8.9023,-14.5931,0.2151,-1.1746,-0.0956,40
7.436,143,2.2359,-1.2881,-11.0505,-0.8395,-0.3198,-0.6736,73,6.797,131,1.8372,-0.2804,-11.8776,-0.9807,0.65,-1.0205,86,7.347,141,8.3258,-9.6513,-12.4199,0.4508,0.7478,-1.6197,71,6.75,130,11.3042,-8.8026,-13.6518,0.1597,-0.5745,-0.3169,40
7.488,144,1.3562,-0.3763,-9.304,-0.4944,-0.2265,-0.5193,73,6.849,132,1.9242,-1.5078,-10.8608,-0.7152,0.18,-1.1106,86,7.399,142,10.3384,-6.0445,-12.6249,0.188,1.2241,-0.8517,71,6.802,131,12.6957,-7.8632,-13.4796,-0.5605,-0.0939,0.2828,40
7.54,145,0.6238,-0.1026,-6.9423,-1.0333,0.0215,-0.5003,73,6.901,133,4.0058,-3.2808,-10.9415,-0.2137,-0.0577,-1.2007,86,7.451,143,12.8112,-2.6205,-7.9095,-0.2676,1.4903,-1.0245,71,6.854,132,14.3831,-7.4616,-13.7588,-0.2246,-0.428,0.8712,40
7.592,146,1.9239,-1.2753,-4.0421,-0.9453,-0.2403,-0.5971,73,6.953,134,7.8435,0.29,-10.9335,0.5157,-0.4169,-1.4021,86,7.503,144,10.0084,-7.1496,-13.7776,-0.8706,0.898,-0.07,71,6.906,133,10.6687,-7.0666,-11.4607,0.4543,0.1063,1.3162,40
7.644,147,6.4617,-4.3917,-8.3578,-0.4297,-0.8447,-1.1109,73,7.005,135,10.6444,4.2741,-9.4229,-0.2046,-0.6528,-0.7892,86,7.555,145,10.8082,-7.3274,-10.9824,-0.488,0.05,0.6267,71,6.957,134,8.2176,-3.7666,-11.9894,0.5191,0.6803,1.6366,40
7.695,148,9.7737,0.2652,-11.1361,0.3607,-0.442,-0.5438,73,7.057,136,9.444,3.8256,-8.6215,-0.3963,0.1766,-0.4754,86,7.607,146,9.0438,-3.8723,-8.3578,-0.7553,0.1548,1.1351,71,7.009,135,7.2851,-2.8234,-11.0314,0.0512,1.1672,1.8505,40
7.747,149,9.4272,2.4874,-11.9908,-0.4141,0.3598,0.2798,73,7.108,137,2.2705,3.7474,-8.9149,-0.1671,0.0396,-0.3725,86,7.658,147,6.3512,0.3018,-9.5839,0.1253,0.6433,1.1308,71,7.061,136,6.0081,2.1889,-13.6497,-0.6397,0.7446,2.0309,40
7.799,150,4.6843,2.6197,-13.5018,-0.2955,0.9449,0.354,73,7.16,138,1.219,3.2299,-9.8521,-0.2732,0.001,-0.1553,86,7.71,148,6.2092,5.5722,-12.6398,-0.1265,0.5504,1.3004,71,7.112,137,6.235,6.8897,-10.7614,0.2011,0.8905,1.2868,40
7.851,151,2.4248,3.194,-14.3888,-0.7128,0.1819,0.1016,73,7.212,139,1.1047,1.9573,-10.9191,-0.8761,-0.3326,-0.2041,86,7.762,149,2.5451,-1.1702,-17.23,0.5842,-0.1308,1.3013,71,7.164,138,6.0895,5.5955,-10.9493,-0.1408,0.9103,1.5476,40
7.903,152,2.2737,0.9688,-13.3048,-1.1976,-0.5366,-0.1277,73,7.264,140,2.471,0.0124,-10.0844,-0.8515,-0.4506,-0.5191,86,7.814,150,7.1233,4.4978,-17.186,0.3662,-0.6431,0.6209,71,7.216,139,9.2936,2.846,-10.8439,0.2404,1.3204,0.4933,40
7.955,153,2.3415,-0.0633,-10.0982,-0.271,-0.5396,-0.0486,73,7.316,141,1.7715,0.2037,-7.6124,-0.6507,-0.6218,-0.6926,86,7.866,151,10.2033,5.389,-15.2099,0.1918,-0.4619,1.0011,71,7.268,140,7.6229,1.7534,-10.2737,0.8501,1.6487,-0.119,40
8.006,154,0.191,2.4068,-7.6682,-0.4513,-0.4362,-0.3185,73,7.367,142,2.6267,1.9067,-6.3683,-1.0907,-0.5292,-0.8531,86,7.917,152,11.39,2.6793,-13.7666,0.8165,-0.4752,0.0566,71,7.32,141,6.679,5.6974,-14.0307,1.2951,1.2504,-0.6527,40
8.058,155,3.2068,0.0273,-7.5381,-0.8883,-0.9877,-0.2421,73,7.419,143,6.837,1.323,-10.2944,-0.1791,0.1746,-0.7418,86,7.969,153,12.3907,7.3074,-13.2355,1.1458,-0.7528,-0.6301,71,7.371,142,5.0991,2.7279,-15.3096,0.6765,0.2633,-0.7098,40
8.11,156,7.3981,-1.7342,-12.3939,-0.8032,-0.2686,-0.1898,73,7.471,144,9.9098,3.5982,-9.6947,0.0019,0.4642,-0.4363,86,8.021,154,9.1301,6.1294,-10.6365,0.7046,-0.9353,-1.1339,71,7.423,143,6.0496,0.6823,-15.4573,-0.1833,-0.4746,-0.6447,40
8.162,157,10.457,1.4915,-12.8403,0.0881,0.1944,0.3744,73,7.523,145,5.5542,-1.0202,-11.5174,-0.6786,1.0179,-0.4789,86,8.073,155,7.7294,3.8699,-9.5749,-0.0877,-0.8962,-1.3365,71,7.475,144,5.8813,-2.6302,-11.6399,-0.3859,-1.0132,-0.7777,40
8.214,158,6.9897,1.2619,-13.1283,-0.613,0.8243,0.4979,73,7.575,146,4.0223,-3.2881,-11.6993,0.1764,0.3402,0.1729,86,8.124,156,5.4339,0.4078,-10.6155,-0.5249,-0.4465,-1.6122,71,7.527,145,3.4192,-6.1403,-5.8875,0.393,-1.1379,-1.232,40
8.265,159,1.3532,-0.3879,-13.485,0.227,-0.0677,0.408,73,7.626,147,3.799,-4.3397,-11.9323,0.5135,0.1038,0.7915,86,8.176,157,3.205,-1.1885,-15.7526,0.2934,-0.7374,-1.484,71,7.579,146,4.545,0.8107,-5.2273,-0.1031,-0.4834,-1.2567,40
8.317,160,2.7825,-0.1731,-12.6156,0.749,-0.7188,-0.1197,73,7.678,148,4.592,-3.1262,-12.7113,1.0465,0.0998,1.2431,86,8.228,158,7.6049,0.6337,-15.5159,-0.1764,-1.118,-1.5556,71,7.63,147,8.4344,-2.8075,-8.906,0.3893,-0.3968,-0.5904,40
8.369,161,3.2515,-0.7242,-11.5639,0.7318,0.0886,-0.0104,73,7.73,149,2.3676,0.7712,-12.9388,1.4355,0.7519,1.5726,86,8.28,159,6.6332,5.6858,-17.7463,0.0624,-0.4464,-1.2621,71,7.682,148,10.2015,-3.229,-9.0083,0.4115,-0.2749,-0.5474,40
8.421,162,1.7193,1.0143,-12.1484,0.9126,0.7471,0.2422,73,7.782,150,3.2413,4.9783,-12.9932,1.7194,0.1584,1.813,86,8.332,160,10.1069,7.2641,-16.1416,-0.166,0.3526,-0.5011,71,7.734,149,10.5199,-2.6353,-11.8056,-0.3301,0.2826,-0.2103,40
8.472,163,-1.7409,0.8247,-10.9893,0.1751,0.1829,-0.4984,73,7.834,151,7.2855,5.6191,-13.6068,1.8698,-0.487,0.6499,86,8.383,161,10.9185,2.8949,-19.7857,-0.7964,0.4548,0.312,71,7.786,150,10.9974,-5.4701,-12.8116,0.3461,-0.0893,0.1528,40
8.524,164,3.787,5.2077,-15.9875,-0.3571,-0.5126,0.1657,73,7.885,152,10.2372,6.9328,-11.438,0.6851,-0.959,0.6351,86,8.435,162,6.9119,-1.6896,-19.4509,-1.2565,-0.2561,0.8997,71,7.837,151,7.1698,-5.1135,-8.6212,0.8472,0.6151,0.4774,40
8.576,165,7.8215,7.2633,-16.6849,-0.9086,-0.8881,0.3609,73,7.937,153,12.3914,4.8027,-8.4617,-0.18,-1.0762,0.1821,86,8.487,163,9.0741,-0.8014,-18.212,-1.2791,-0.8603,0.8924,71,7.889,152,6.7972,-3.3565,-9.2793,0.6774,1.1339,0.4902,40
8.628,166,10.7661,3.8901,-13.8787,-1.2634,-0.5681,0.1537,73,7.989,154,7.7582,0.2758,-8.1657,-0.8114,-0.1063,-0.3832,86,8.539,164,9.5389,-0.9443,-14.4136,-0.257,-1.3013,1.2913,71,7.941,153,5.6559,-1.5597,-11.585,-0.1827,1.5125,1.0117,40
8.68,167,7.7744,0.5952,-12.2279,-0.9174,0.2678,0.3717,73,8.041,155,7.389,-0.958,-8.8795,0.0752,-0.5891,-0.5152,86,8.591,165,6.5769,3.0664,-11.4929,0.4889,-0.9643,1.5672,71,7.993,154,5.3769,-6.4351,-16.4364,-0.8104,0.946,1.4187,40
8.731,168,2.1117,-0.996,-11.903,-0.5397,0.8779,-0.0364,73,8.093,156,3.8116,-1.6992,-9.6835,0.7266,0.0556,-0.6079,86,8.642,166,5.9469,7.5899,-5.884,-0.3184,-0.108,1.7972,71,8.045,155,9.0416,-8.1528,-12.4141,0.0386,0.0236,1.6718,40
8.783,169,1.2238,-1.7267,-12.4119,0.2805,-0.0286,-0.2813,73,8.145,157,3.1741,-2.7379,-9.3258,0.3075,-0.1859,-0.4816,86,8.694,167,0.4254,4.3382,-1.7103,0.1063,-0.4143,0.9192,71,8.096,156,10.0396,-11.1807,-12.1663,0.0201,0.2851,1.1571,40
8.835,170,0.959,-0.4144,-11.6179,0.3691,-0.063,-0.1873,73,8.196,158,1.7871,-2.4043,-9.0248,0.3355,-0.0875,0.0116,86,8.746,168,5.5762,4.3557,-5.9111,-0.4029,-0.1894,0.1392,71,8.148,157,12.4446,-10.7269,-9.0041,0.4563,-0.2809,0.6381,40
8.887,171,0.2397,-1.2358,-10.7666,-0.1241,0.113,-0.0126,73,8.248,159,2.7926,-1.3547,-8.4439,0.1171,-0.3734,0.3645,86,8.798,169,8.8184,6.6827,-9.3834,-0.7451,0.377,0.5528,71,8.2,158,11.315,-4.6773,-11.723,1.0077,-0.4251,-0.1566,40
8.939,172,0.2865,-0.9303,-9.2778,0.5629,-0.2057,0.3262,73,8.3,160,6.1482,-1.1239,-8.9482,-0.4766,-0.9286,0.9314,86,8.85,170,10.0356,4.3934,-12.4428,0.0603,0.4307,-0.1159,71,8.252,159,9.1045,0.2409,-10.695,1.115,-0.2303,-0.7857,40
8.99,173,4.6003,3.7074,-11.1816,0.5754,-0.8195,0.2455,73,8.352,161,9.4071,1.2679,-9.666,-0.2572,0.0013,1.1301,86,8.901,171,7.4975,5.4416,-17.0862,-0.2031,0.6231,-0.5514,71,8.304,160,8.0492,0.2305,-9.6669,1.0676,-0.2656,-1.2448,40
9.042,174,8.4151,1.6587,-15.5432,-0.2574,0.0843,0.7585,73,8.404,162,11.7856,0.8107,-9.7687,-0.7855,-0.2648,0.1384,86,8.953,172,6.571,2.8625,-13.5531,-0.8235,0.8758,-0.6702,71,8.356,161,7.684,1.4926,-10.4439,0.1021,-0.4171,-1.5799,40
9.094,175,11.1993,2.1265,-14.9376,0.4865,-0.2422,0.6305,73,8.455,163,7.5031,-0.7523,-9.0566,-0.3435,0.4858,-0.5363,86,9.005,173,5.7792,0.8222,-11.7038,-0.4628,1.3176,-1.0163,71,8.407,162,5.0235,-4.2075,-13.2894,-0.6026,-0.1917,-1.7858,40
9.146,176,7.9997,4.5688,-13.1565,0.4906,0.5056,0.3912,73,8.507,164,4.1907,0.8872,-7.986,0.3654,-0.3181,-0.2202,86,9.057,174,4.6332,0.4684,-13.8388,0.3387,1.64,-1.2283,71,8.459,163,5.2386,-7.3021,-17.6804,-0.2435,-0.8067,-1.1599,40
9.198,177,2.6452,3.1363,-12.9639,-0.312,0.8986,-0.2651,73,8.559,165,2.5387,2.2687,-8.2868,-0.1085,0.3957,0.0864,86,9.109,175,3.123,-3.9127,-18.105,0.9238,1.2766,-1.5498,71,8.511,164,8.9407,-10.6262,-11.8625,-0.5051,-0.9611,-0.1692,40
9.249,178,2.4017,3.4946,-13.1524,-0.8181,-0.0135,-0.5534,73,8.611,166,2.4529,2.4616,-9.0485,-0.7592,0.1057,-0.1139,86,9.16,176,-2.0297,-7.941,-10.6298,0.3367,1.2735,-1.4692,71,8.563,165,11.165,-10.5019,-12.4371,-0.3092,-0.6592,-0.312,40
9.301,179,2.5036,2.1846,-12.8858,-1.2745,0.0643,-0.3983,73,8.663,167,0.8099,0.6216,-10.2796,-0.3713,0.5786,-0.6127,86,9.212,177,2.1407,-11.0327,-12.6557,0.1289,0.2564,-1.0818,71,8.615,166,13.266,-8.4656,-11.3927,0.0051,-0.1943,-0.5846,40
9.353,180,1.3279,1.0137,-10.8248,-0.8673,0.261,-0.4288,73,8.715,168,1.7939,0.9016,-9.5339,0.1247,0.3412,-1.0054,86,9.264,178,6.4735,-7.336,-12.8382,-0.0357,0.8655,-0.3512,71,8.667,167,14.4161,-5.5394,-11.7809,-0.6733,0.4149,0.0911,40
9.405,181,1.6743,1.6933,-7.7011,-0.6053,0.299,-0.5851,73,8.766,169,5.8434,1.4873,-10.2657,0.1403,-0.3412,-1.4202,86,9.316,179,9.9904,-5.0604,-6.8241,-0.5323,0.1995,0.2203,71,8.718,168,12.4604,-6.3713,-13.5567,-0.6938,0.4704,0.4779,40
9.457,182,3.1543,0.4206,-6.5276,-0.8382,0.1434,-0.7296,73,8.818,170,9.1846,4.9963,-9.9459,0.7741,0.0777,-1.5974,86,9.368,180,8.3743,-8.9304,-9.7837,-1.0637,0.2433,0.8385,71,8.77,169,9.3986,-4.3377,-11.0273,0.1683,0.335,1.0291,40
9.508,183,7.3597,-2.2206,-10.5356,-0.4294,-0.3988,-1.1603,73,8.87,171,11.6232,8.6943,-8.3569,-0.025,-0.5219,-0.8774,86,9.419,181,9.1276,-9.0923,-8.753,-0.1741,-0.4957,1.2897,71,8.822,170,8.295,-3.8736,-10.0455,0.0211,0.3227,1.4313,40
9.56,184,10.4291,0.0862,-13.5593,0.361,-0.5228,-0.6911,73,8.922,172,6.8416,6.8493,-7.7211,-0.252,0.2982,-0.5692,86,9.471,182,7.3108,-5.8123,-8.5819,0.3074,-0.193,1.6133,71,8.874,171,7.0201,-2.237,-11.5664,0.2926,0.4096,1.725,40
9.612,185,9.0692,3.7286,-13.3427,-0.1959,0.3009,0.1722,73,8.974,173,3.645,5.8287,-7.7536,0.3218,-0.4475,-0.2051,86,9.523,183,5.8553,-3.2889,-11.3403,0.9009,-0.0868,1.6424,71,8.926,172,4.5931,1.8323,-14.2331,-0.4636,-0.1608,1.9393,40
9.664,186,1.0868,3.1928,-14.8425,0.5314,0.902,-0.3487,73,9.026,174,2.2681,4.4284,-8.7031,-0.4105,-0.3156,0.2504,86,9.575,184,4.8156,2.6435,-15.2834,1.1974,-0.3737,1.479,71,8.978,173,6.1002,1.5795,-14.9559,0.01,0.0212,1.4015,39
9.716,187,0.7499,2.3931,-15.2748,0.6293,-0.011,-0.6302,73,9.077,175,2.5575,1.9986,-9.1392,-0.8191,-0.587,0.424,86,9.627,185,8.1255,6.0058,-11.7412,1.5504,-0.3907,0.9547,71,9.029,174,3.4739,-1.1555,-18.3092,-0.0127,-0.0887,1.4427,39
9.767,188,3.2395,-0.1698,-14.1078,-0.2181,-0.6774,0.1182,73,9.129,176,0.8816,1.232,-8.4423,-0.5024,-0.2827,0.502,86,9.678,186,9.5997,3.0884,-13.2242,1.2475,-0.4128,0.6036,71,9.081,175,7.2747,-3.0436,-16.7625,0.1085,0.5181,0.3816,39
9.819,189,2.8468,0.8602,-12.0394,0.5116,-0.1625,0.6552,73,9.181,177,1.787,3.1113,-6.0328,-0.1995,-0.3535,0.4015,86,9.73,187,12.2721,2.775,-11.4799,0.9485,-0.7132,0.4057,71,9.133,176,5.9055,-4.0301,-18.1577,0.7539,1.0631,-0.2424,39
9.871,190,2.4391,2.4892,-9.4213,0.5361,-0.4899,0.7954,73,9.233,178,6.2241,4.3745,-6.5163,-0.8256,-0.9307,0.3382,86,9.782,188,10.0376,3.6313,-16.2755,1.2363,-0.6572,-0.349,71,9.185,177,4.6302,1.5684,-21.2335,1.2249,1.16,-0.8484,39
9.923,191,6.8378,5.7853,-11.7666,-0.2414,-1.0269,0.8012,73,9.285,179,9.4625,5.7223,-9.9109,0.069,-0.1532,0.5433,86,9.834,189,9.0318,6.9029,-14.8036,0.7127,-0.9711,-0.8081,71,9.237,178,5.2922,-0.5955,-19.2421,1.1923,0.1798,-0.4815,39
9.974,192,10.0481,1.7817,-13.8056,-0.1301,-0.5871,0.5364,73,9.336,180,10.3391,7.9165,-9.1001,-0.3055,0.077,0.37,86,9.886,190,7.7272,5.8796,-13.9422,-0.155,-1.0715,-1.2638,71,9.288,179,6.1935,0.8161,-16.424,0.1931,-0.5356,-0.158,39
10.026,193,12.3912,3.5483,-14.5011,0.1108,0.166,0.819,73,9.388,181,5.1939,2.6852,-9.8108,-0.903,0.7342,0.2982,86,9.937,191,7.1186,3.2857,-14.9857,-0.7884,-1.0617,-1.5964,71,9.34,180,5.6197,-2.1319,-11.3119,-0.5343,-1.0577,-0.3052,39
10.078,194,8.0709,1.7065,-15.0715,-0.5965,0.8036,0.5899,73,9.44,182,5.3054,-1.6064,-10.9323,-0.5661,-0.1368,0.5605,86,9.989,192,5.3026,-2.839,-13.3763,0.1011,-1.4482,-1.5016,71,9.392,181,4.3595,-4.266,-14.1849,0.2847,-0.9636,-0.5587,39
10.13,195,1.9565,0.2098,-14.7229,0.239,-0.0789,0.6098,73,9.492,183,3.5074,-1.1253,-9.7958,0.2586,0.2214,0.9166,86,10.041,193,9.1358,-7.3091,-17.7675,-0.22,-1.7304,-0.6612,71,9.444,182,8.2991,0.0998,-14.1093,-0.2385,-1.3049,0.0552,39
10.182,196,3.4462,-0.3335,-11.9248,0.124,-0.7269,0.3369,73,9.544,184,3.1062,-1.585,-9.4737,0.0207,0.3586,1.1928,86,10.093,194,11.8561,0.0174,-12.053,-0.186,-1.9203,-0.5851,71,9.496,183,9.3746,-3.8545,-15.0156,0.065,-0.9873,0.2042,39
10.233,197,2.0328,-1.6354,-11.0349,0.1839,0.099,0.6231,73,9.595,185,2.6115,-2.1574,-8.6264,0.6868,0.5969,1.3398,86,10.144,195,11.2638,1.7081,-13.4515,-0.2185,-1.2503,-0.4131,71,9.547,184,11.3788,-3.0425,-12.0718,0.1662,-0.6165,-0.1106,39
10.285,198,2.0632,-1.0503,-10.3716,0.6896,-0.0238,0.6357,73,9.647,186,3.4765,-2.0485,-8.2436,1.173,1.0964,1.5443,86,10.196,196,13.0279,2.4162,-13.2731,-0.5813,-0.2342,0.3286,71,9.599,185,8.8926,-4.2992,-12.709,0.1955,0.235,-0.0291,39
10.337,199,1.9707,0.4618,-9.9847,0.5932,0.523,0.5811,73,9.699,187,7.4572,-1.9527,-10.683,1.5278,0.9124,1.6575,86,10.248,197,8.376,1.2837,-14.2934,-1.0949,-0.5064,-0.246,71,9.651,186,8.6058,-2.4575,-10.5163,0.5804,0.7173,0.4408,39
10.389,200,6.4959,4.6754,-13.008,-0.1505,-0.2876,0.1557,73,9.751,188,10.3625,2.5005,-8.401,1.4222,0.5122,1.8751,86,10.3,198,5.2043,-4.3001,-18.4368,-1.4743,0.1442,0.4982,71,9.703,187,6.5263,-0.009,-7.8475,0.8632,1.116,0.4932,39
10.441,201,8.9445,6.1795,-12.5533,-0.739,0.0748,0.0768,73,9.803,189,12.4829,3.5528,-6.6502,0.358,-0.2089,2.0319,86,10.352,199,6.1719,-6.8353,-17.8,-0.4688,-0.5681,0.8328,71,9.755,188,6.125,1.2872,-8.1944,-0.0471,1.4994,0.4071,39
10.492,202,11.5857,1.7766,-11.4075,-0.787,0.737,-0.619,73,9.855,190,8.1699,2.2257,-5.9134,-0.4188,0.4804,1.422,86,10.404,200,7.3845,-2.4178,-16.1168,0.3344,-1.088,0.8749,71,9.806,189,5.8738,1.9653,-10.7613,-0.7114,1.7181,0.9023,39
10.544,203,9.8206,-1.2974,-9.9774,-0.68,1.2203,-0.3516,73,9.906,191,6.4891,1.86,-6.0436,0.0892,-0.2037,0.7629,86,10.455,201,5.433,-0.6307,-13.8356,0.3615,-1.2601,1.313,71,9.858,190,7.2891,0.682,-15.8353,-0.5263,0.8422,0.2944,39
10.596,204,3.5811,-3.0674,-12.3824,-0.642,1.5731,-0.7185,73,9.958,192,4.5132,2.7026,-5.8261,0.3503,0.1983,-0.1295,86,10.507,202,4.3525,4.8916,-10.6894,-0.4114,-0.3561,1.61,71,9.91,191,10.4372,-4.799,-12.1138,0.073,0.1319,0.8952,39
10.648,205,2.0374,-3.8778,-13.5765,0.0827,0.4788,-0.6089,73,10.01,193,4.6358,1.0407,-6.737,-0.1408,0.2484,-0.7809,86,10.559,203,-1.7687,2.6401,-5.2175,0.1499,-0.5551,1.3837,71,9.962,192,8.6229,-8.7993,-13.5196,0.1221,0.3635,0.9097,39
10.7,206,2.2494,-2.6068,-12.8357,0.4809,-0.0928,-0.2818,73,10.062,194,3.0434,-0.3285,-8.0775,0.4302,0.7674,-1.2563,86,10.611,204,3.9749,3.3153,-8.6158,-0.2547,-0.4134,0.6999,71,10.014,193,11.3963,-8.017,-12.215,0.0267,-0.2241,0.1554,39
10.751,207,0.8442,-2.5968,-12.5143,-0.1337,0.1085,0.2016,73,10.114,195,3.5616,-1.0361,-7.6384,-0.2189,0.284,-1.3406,86,10.663,205,6.8996,4.2048,-13.3415,-0.803,0.368,0.8965,71,10.065,194,10.0201,-5.4653,-13.2061,0.6942,-0.2132,-0.558,39
10.803,208,0.5766,-3.0373,-11.0172,0.3447,-0.4998,0.5758,73,10.165,196,7.5193,-4.6325,-10.0247,-0.3391,-0.2382,-0.8283,86,10.714,206,8.8642,0.964,-13.9658,-0.2456,0.4951,0.3332,71,10.117,195,10.6482,0.9685,-13.3764,0.7639,-0.8166,-1.0787,39
10.855,209,2.9905,-1.5429,-10.0007,0.926,-1.0341,0.9676,73,10.217,197,10.4078,-1.3306,-11.1523,0.4242,-0.3949,-0.088,86,10.766,207,7.9859,2.7942,-11.4134,0.2547,-0.0589,-0.3949,71,10.169,196,7.3133,1.4639,-10.9238,0.4043,-0.3007,-1.4587,39
10.907,210,7.2402,-1.78,-13.0685,0.0706,-0.0723,0.9032,73,10.269,198,12.0429,-0.5431,-11.7698,-0.3704,-0.278,0.2309,86,10.818,208,6.5498,1.7947,-9.0407,-0.4894,0.108,-0.6029,71,10.22,197,7.1698,1.5626,-10.7014,0.6208,0.279,-1.736,39
10.959,211,10.3418,-1.1697,-12.0631,0.1181,-0.1079,0.9523,73,10.321,199,8.4251,0.1316,-9.6929,0.05,0.4673,0.0264,86,10.87,209,5.7306,1.4933,-8.2298,0.0327,0.7572,-1.0476,71,10.272,198,6.495,-2.2671,-12.1363,0.1905,0.1807,-1.9384,39
11.01,212,7.0806,2.0329,-11.5272,0.0778,0.6037,0.7092,73,10.373,200,5.557,2.3121,-8.5973,0.4688,0.1496,0.2363,86,10.922,210,4.7087,-0.8437,-9.7827,0.7004,1.231,-1.4363,71,10.324,199,5.3531,-6.0355,-12.4666,-0.538,-0.5349,-1.0975,39
11.062,213,-0.069,1.8271,-12.821,-0.309,0.4435,-0.1542,73,10.424,201,4.0863,3.8702,-8.4171,0.3011,0.4358,0.0638,86,10.973,211,3.5448,-1.9745,-15.1447,1.1877,1.2079,-1.6407,71,10.376,200,9.0242,0.8872,-15.839,-0.6301,-0.7562,-0.3839,39
11.114,214,0.5103,2.1594,-12.9222,-0.4896,-0.3457,-0.7877,73,10.476,202,2.7693,3.7369,-8.6665,0.0462,0.5755,-0.5392,86,11.025,212,7.8529,3.9108,-19.0032,1.2948,0.2082,-1.8673,71,10.428,201,6.832,1.4012,-16.2517,-0.6645,-0.5609,-0.0248,39
11.165,215,1.673,0.7062,-12.8539,-1.0347,-0.4547,-0.5274,73,10.528,203,2.005,2.377,-8.636,0.179,0.6763,-1.0799,86,11.077,213,7.7541,6.657,-20.003,1.1859,-0.0726,-1.735,71,10.479,202,10.1036,0.3084,-14.8424,-0.3155,-0.2225,-0.4552,39
11.217,216,1.1679,-1.423,-11.1324,-1.3932,0.2074,-0.0567,73,10.58,204,1.9734,2.7479,-7.3528,0.5154,0.6324,-1.4745,86,11.129,214,10.7974,5.0728,-18.0273,0.3945,0.6253,-0.7058,71,10.531,203,11.5083,-1.5646,-14.5512,-0.4375,0.146,-0.1259,39
11.269,217,0.1234,-2.968,-8.9699,-0.9407,0.6721,0.2998,73,10.632,205,6.3602,4.7056,-8.3288,-0.3039,-0.2111,-1.7549,86,11.181,215,13.1461,2.581,-14.1215,-0.3873,0.4143,-0.3725,71,10.583,204,10.1817,-5.0631,-18.2207,0.2533,0.1906,0.2526,39
11.321,218,3.4712,-3.776,-8.7897,-0.0134,-0.1788,-0.2464,73,10.683,206,9.5618,5.4552,-8.5439,-0.1837,-0.3151,-1.1787,86,11.232,216,10.6471,-3.3533,-13.9677,-0.9579,0.444,0.4059,71,10.635,205,7.6338,-3.4919,-16.2116,0.8596,0.301,0.8519,39
11.373,219,7.591,-6.3196,-12.7695,0.6426,0.5419,-0.461,73,10.735,207,11.8985,4.9229,-8.3427,-0.167,-0.3624,-0.4172,86,11.284,217,11.1309,-2.7979,-12.8476,-0.0226,-0.3494,0.974,71,10.686,206,6.7725,-3.191,-14.5426,1.302,0.1828,1.3021,39
11.424,220,10.5979,-2.4801,-14.6589,1.1434,0.5459,-0.1877,73,10.787,208,6.7926,5.0484,-8.9545,0.1266,0.4146,0.3609,86,11.336,218,9.5775,-1.9001,-12.7009,0.6601,-0.3864,1.3886,71,10.738,207,6.0966,-1.3567,-13.7233,1.625,0.0485,1.576,39
11.476,221,7.1862,1.0128,-14.1967,0.7539,1.0808,0.5227,73,10.839,209,3.3607,5.5501,-9.3744,-0.423,-0.3701,0.8437,86,11.388,219,5.6215,2.3924,-14.4708,1.1583,-0.0731,1.3584,71,10.79,208,4.8866,2.1469,-12.1006,0.5089,-0.1261,1.8306,39
11.528,222,2.0644,1.0674,-14.4405,0.9139,1.3645,-0.1439,73,10.891,210,2.7799,5.5683,-8.5914,-0.9888,-0.4462,1.0549,86,11.439,220,4.7486,6.5246,-14.9638,1.1787,-0.5619,0.6023,71,10.842,209,8.2237,6.859,-13.8406,0.7295,0.0103,1.5424,39
11.58,223,1.4513,1.4744,-14.9431,0.8356,0.3265,-0.5114,73,10.943,211,3.2848,3.5079,-8.3797,-1.4002,-0.9983,0.3665,86,11.491,221,8.7315,8.7523,-18.9261,1.4653,-0.7588,0.0968,71,10.894,210,9.25,4.0155,-14.6297,0.4874,-0.3027,1.1216,39
11.632,224,1.6533,0.8671,-14.5843,0.3711,-0.1924,-0.2874,73,10.994,212,2.2185,1.8311,-7.6505,-0.4313,-0.3011,-0.0361,86,11.543,222,8.2427,8.881,-21.7381,1.3939,0.0968,0.1051,71,10.945,211,11.8683,1.7415,-13.6825,1.0304,0.3038,0.1965,39
11.683,225,1.7724,1.6548,-13.0114,0.3978,-0.1668,-0.1745,73,11.046,213,3.632,3.9521,-5.0817,0.0685,-0.6061,-0.4867,86,11.595,223,11.2816,6.9495,-17.9983,0.38,0.713,0.1079,71,10.997,212,8.5367,0.8315,-17.9673,1.4267,0.4787,-0.5233,39
11.735,226,-0.3487,3.1085,-9.0014,0.9554,-0.4766,-0.2453,73,11.098,214,7.5707,4.9142,-5.1622,-0.6301,-0.886,-0.399,86,11.647,224,10.7335,5.9813,-16.5157,0.8309,0.6022,-0.4561,71,11.049,213,6.4832,4.1339,-16.4759,0.5258,-0.2969,-0.4102,39
11.787,227,4.8031,7.6587,-9.9045,0.2172,-1.0172,-0.8542,73,11.15,215,10.4453,3.9404,-9.4488,-0.0213,-0.1172,0.3742,86,11.699,225,10.5267,7.0335,-19.652,1.0585,0.0852,-0.6416,71,11.101,214,6.245,0.7954,-15.7105,-0.2933,-0.8835,-0.4881,39
11.839,228,8.5631,0.3919,-9.876,-0.5188,-0.06,-0.0953,73,11.202,216,9.4451,4.6971,-11.347,0.2889,0.5935,0.5175,86,11.75,226,8.926,8.1044,-18.3428,0.0974,0.1039,-1.1423,71,11.153,215,4.3359,0.0653,-14.9868,-0.3408,-1.3012,-0.8225,39
11.89,229,11.3074,5.676,-12.7716,0.2957,0.4292,0.3203,73,11.254,217,7.3657,3.3432,-12.5593,-0.4692,0.8953,0.7574,86,11.802,227,6.7973,4.0774,-16.8976,-0.3606,0.3402,-1.5077,71,11.204,216,3.8196,-3.2135,-13.387,0.426,-1.6087,-1.0842,39
11.942,230,7.756,7.0356,-14.9349,-0.4616,0.9957,0.9104,73,11.305,218,4.7613,0.5381,-14.1056,0.3293,0.1611,1.2182,86,11.854,228,4.1903,-2.0697,-16.2195,0.4133,0.1124,-1.7587,71,11.256,217,4.0276,-3.58,-7.1627,0.9856,-1.6858,-1.4378,39
