right_hand_timestamp,right_hand_index,right_hand_accel_x,right_hand_accel_y,right_hand_accel_z,right_hand_gyro_x,right_hand_gyro_y,right_hand_gyro_z,right_hand_battery_percentage,left_hand_timestamp,left_hand_index,left_hand_accel_x,left_hand_accel_y,left_hand_accel_z,left_hand_gyro_x,left_hand_gyro_y,left_hand_gyro_z,left_hand_battery_percentage,right_leg_timestamp,right_leg_index,right_leg_accel_x,right_leg_accel_y,right_leg_accel_z,right_leg_gyro_x,right_leg_gyro_y,right_leg_gyro_z,right_leg_battery_percentage
0.723,13,3.4183,0.1794,-12.7751,-0.8045,0.9464,-0.769,76,0.005,0,9.7838,4.7821,-9.5283,-0.8041,-0.1947,0.0886,85,0.405,7,10.7921,-6.7967,-9.9245,-0.649,-0.0781,0.1244,75
0.775,14,1.8894,-0.3056,-12.2295,-1.2646,0.8331,-0.8823,76,0.057,1,8.1706,4.4491,-8.7306,-0.8247,0.0873,0.4482,85,0.456,8,8.1771,-7.0106,-9.74,-1.0706,-0.0146,0.7685,75
0.827,15,3.86,-1.8125,-11.4376,-1.548,-0.0077,-1.2342,76,0.108,2,2.8221,4.536,-8.6784,-0.2479,0.7428,0.2861,85,0.508,9,5.6541,-4.3208,-12.1928,-1.4497,-0.0447,1.2375,75
0.879,16,7.8748,-4.0685,-16.3442,-1.0889,-0.4831,-1.5759,76,0.16,3,1.6672,4.316,-8.2743,-0.5015,-0.1305,0.175,85,0.56,10,4.482,1.7829,-10.2535,-1.7333,-0.1791,1.0556,75
0.93,17,8.1486,-3.4373,-13.8128,-0.1507,-0.0398,-0.9203,76,0.212,4,1.2414,3.9189,-7.7632,0.0526,0.4186,-0.1987,85,0.612,11,3.1683,4.9869,-15.4883,-0.9363,-0.5445,1.3649,75
0.982,18,2.5792,-4.0304,-12.7217,-0.0555,0.4466,-1.1944,76,0.264,5,0.7976,5.8349,-6.6935,0.4797,0.6486,-0.8191,85,0.663,12,7.5781,8.0625,-13.1315,-1.2672,-0.7757,0.6175,75
1.034,19,2.8151,-3.4088,-9.9954,0.4319,-0.3402,-1.4161,76,0.316,6,5.502,7.0807,-6.9202,-0.0121,0.3616,-1.2819,85,0.715,13,7.3538,8.6297,-14.4665,-0.9709,-0.4341,0.3977,75
1.086,20,2.2305,-3.8957,-8.76,0.1001,0.4318,-0.6818,76,0.368,7,8.9355,7.2373,-8.5157,-0.5267,0.1919,-0.9376,85,0.767,14,6.3716,11.384,-13.7781,-0.6541,0.344,-0.3838,75
1.137,21,2.0906,-5.2017,-7.4981,-0.6043,0.6522,0.179,76,0.419,8,8.3799,5.0263,-8.9678,-0.8132,-0.1372,-0.6314,85,0.819,15,6.0277,8.2451,-14.9894,0.1992,0.3943,-0.9541,75
1.189,22,6.5834,-7.5995,-7.7522,-0.5877,-0.1933,0.8073,76,0.471,9,5.11,2.5199,-9.3823,-0.2184,0.5789,-0.8771,85,0.871,16,4.4682,2.8781,-13.6157,0.8217,0.0936,-1.3704,75
1.241,23,9.8625,-8.8612,-12.1996,0.2278,-0.2675,1.2658,76,0.523,10,3.4582,1.4473,-9.6504,0.4514,0.021,-0.9354,85,0.922,17,3.8647,-3.1365,-12.0526,0.3904,-0.0617,-1.3018,75
1.293,24,12.2557,-6.1875,-15.666,0.8406,-0.3288,1.597,76,0.575,11,1.9015,0.5397,-8.5873,0.4258,0.331,-0.8731,85,0.974,18,8.0864,-2.1425,-9.3486,0.7878,-0.4284,-1.2324,75
1.345,25,5.0473,-2.5763,-14.122,0.4766,0.4424,1.8398,76,0.627,12,-0.7808,2.1038,-7.7124,0.437,0.8293,-0.6986,85,1.026,19,11.1675,3.3037,-10.1775,0.6341,-0.0688,-1.5054,75
1.396,26,1.3248,-1.3019,-13.9852,0.65,-0.3464,1.2277,76,0.678,13,2.6874,6.8623,-6.2414,0.7456,-0.0674,-0.6255,85,1.078,20,13.4003,-1.6346,-12.7928,-0.1725,0.6281,-0.6929,75
1.448,27,0.8294,-2.3194,-13.4635,0.2024,-0.4303,1.0726,76,0.73,14,6.8812,10.3353,-5.9447,0.8605,-0.596,0.1236,85,1.129,21,10.9522,-6.4006,-17.3416,-0.6614,0.9242,-0.0959,75
1.5,28,0.1099,-3.3479,-12.2623,-0.2153,-0.6107,1.3185,76,0.782,15,8.0358,9.3141,-4.9821,0.5945,-0.6668,0.6678,85,1.181,22,9.2443,-8.8369,-19.8703,-1.1295,0.0011,0.5417,75
1.552,29,-0.2148,-5.6983,-9.664,-0.538,-0.4485,1.6389,76,0.834,16,3.9243,5.1787,-6.5119,0.4778,0.1925,0.9219,85,1.233,23,8.3084,-6.1576,-15.7633,-0.1478,-0.6726,0.2729,75
1.604,30,1.8005,-9.3566,-7.4336,0.1595,-0.9967,1.8728,76,0.886,17,3.7097,4.4349,-7.5337,1.0205,-0.5322,0.8114,85,1.285,24,9.8694,-2.7354,-11.3462,-0.5654,-0.6966,0.8769,75
1.655,31,6.3717,-9.734,-9.2341,0.4959,-0.6453,1.6487,76,0.937,18,2.2705,3.8553,-7.0385,0.8348,0.2907,0.5194,85,1.336,25,10.1467,-0.2854,-5.6969,-1.0314,-0.0694,1.3037,75
1.707,32,5.0137,-8.7894,-10.1197,0.7379,-1.0812,0.5281,76,0.989,19,-0.0654,4.6492,-5.9926,1.281,0.8238,0.3085,85,1.388,26,12.6713,-1.5384,-1.5738,-0.4111,0.46,0.2939,75
1.759,33,5.5696,-2.6131,-11.2967,0.8611,-0.6317,-0.1263,76,1.041,20,1.5944,6.9816,-3.9812,0.5454,0.3903,0.0248,85,1.44,27,14.5138,-2.3217,-4.6234,-0.0461,0.7313,0.1623,75
1.811,34,3.5159,-2.8767,-11.2869,-0.0489,-0.3592,-0.7387,76,1.093,21,6.0835,10.0521,-4.0256,-0.282,0.1352,-0.0165,85,1.492,28,15.3199,1.6578,-5.5814,0.5746,0.2456,-0.3087,75
1.863,35,2.3171,-2.5159,-11.0866,-0.4524,-0.2581,-1.2142,76,1.145,22,9.3599,7.9001,-8.3688,-0.8858,0.1337,0.2583,85,1.544,29,12.5552,5.2525,-6.9827,0.7358,0.8455,-0.8993,75
1.914,36,1.3597,-2.7149,-9.8034,-1.0076,-0.5009,-1.5613,76,1.196,23,5.2495,4.8914,-9.5034,-1.3265,0.7748,0.7036,85,1.595,30,10.8195,2.6399,-6.6006,-0.1382,0.8701,-0.6283,75
1.966,37,3.6147,-5.7948,-8.6893,-1.4127,-1.0349,-1.8146,76,1.248,24,3.9356,7.3832,-10.8149,-0.2964,-0.1072,0.9963,85,1.647,31,8.6463,0.9318,-9.2283,-0.6951,1.3134,-0.5991,75
2.018,38,7.6958,-9.2713,-13.8306,-1.7085,-0.0729,-1.3522,76,1.3,25,3.411,6.4031,-10.6705,-0.355,0.1927,0.5595,85,1.699,32,5.7001,-0.324,-13.9371,0.1692,1.4549,-0.9326,75
2.07,39,10.6735,-8.7725,-14.4482,-0.8304,0.0471,-1.5655,76,1.352,26,0.9959,4.374,-10.171,0.4126,0.2574,0.3343,85,1.751,33,3.7764,-5.4735,-18.1768,-0.089,0.5937,-0.3974,75
2.122,40,5.3745,-5.0529,-14.7588,-0.1086,0.7168,-0.9103,76,1.404,27,0.3628,4.6377,-8.156,0.354,-0.331,0.0257,85,1.803,34,3.6887,-1.911,-20.0736,0.6115,1.0982,-0.2359,75
2.173,41,4.0158,-3.9934,-14.1075,-0.7566,-0.1462,-0.9426,76,1.456,28,5.1847,6.4226,-5.008,-0.394,-0.0905,-0.3215,85,1.854,35,7.9579,-3.2467,-16.7188,0.2932,1.4799,0.2713,75
2.225,42,3.5233,-4.1597,-12.5081,-1.0868,0.3562,-0.3468,76,1.508,29,8.7039,6.7731,-3.3858,-0.9676,-0.5288,-0.4286,85,1.906,36,6.7215,-5.7969,-19.1761,-0.4612,0.6227,0.8696,75
2.277,43,1.9352,-3.9154,-10.7053,-1.0082,0.1756,0.0229,76,1.559,30,6.7186,4.7187,-4.8286,-1.0654,-0.1967,-0.1701,85,1.958,37,4.4676,-9.4478,-18.8209,-1.0118,0.0352,1.3115,75
2.329,44,2.4041,-4.7605,-9.0643,-1.3188,0.202,0.546,76,1.611,31,0.6028,5.0465,-6.1498,-0.4448,0.2484,0.3939,85,2.01,38,5.4977,-4.7127,-17.2522,-1.1635,-0.6477,1.6349,75
2.38,45,5.8062,-7.5748,-9.5147,-0.8183,-0.4983,0.7827,76,1.663,32,0.0044,4.3942,-7.0473,-0.7049,-0.4913,0.5459,85,2.062,39,6.563,-0.3573,-13.8999,-1.1204,-1.1461,1.5897,75
2.432,46,9.2952,-7.7773,-13.936,0.069,0.1467,1.1882,76,1.715,33,0.4593,3.0093,-7.2671,-0.3057,-0.2639,0.3755,85,2.113,40,6.4892,5.0671,-7.5607,-1.2812,-1.3821,0.9579,75
2.484,47,10.5228,-4.0585,-14.8012,0.7247,0.6643,1.0392,76,1.767,34,-0.653,3.2001,-7.2297,0.4486,0.4862,0.0114,85,2.165,41,9.7951,-1.5389,-7.7773,-0.2586,-0.7071,1.1296,75
2.536,48,2.1477,-3.399,-14.8109,0.359,1.1672,0.3313,76,1.818,35,-0.583,5.2669,-4.7148,0.4728,0.1472,-0.3915,85,2.217,42,10.9715,4.2166,-11.939,-0.8639,-0.5285,1.0641,75
2.588,49,3.2116,-4.4406,-13.8027,0.3114,0.1826,-0.0193,76,1.87,36,4.4944,6.5895,-5.4051,-0.2569,0.5149,-0.4026,85,2.269,43,11.2866,1.166,-10.0629,-0.9166,0.2927,0.8361,75
2.639,50,1.4002,-5.8135,-12.6223,0.4626,0.8157,0.4634,76,1.922,37,8.2001,4.6584,-7.0967,-0.8675,-0.0584,0.2993,85,2.321,44,12.2968,-0.6221,-11.3363,0.0076,0.3621,-0.0638,75
2.691,51,2.4233,-6.5152,-12.1915,0.907,-0.074,0.9896,76,1.974,38,6.4021,2.298,-7.9286,-0.4407,0.3098,0.2737,85,2.372,45,8.5842,1.1509,-11.4396,0.6821,0.4278,-0.7206,75
2.743,52,3.5834,-7.0873,-11.3373,1.0868,0.2766,1.3989,76,2.026,39,3.6397,0.4561,-8.7408,0.3495,0.3716,0.2824,85,2.424,46,7.9412,0.6914,-11.3703,1.1743,-0.301,-1.1999,75
2.795,53,7.6729,-10.2139,-11.8631,1.4491,-0.4675,1.6976,76,2.077,40,3.0437,-0.1624,-8.2244,0.9197,0.1148,0.3747,85,2.476,47,6.8008,-2.5208,-8.7754,1.3266,-0.8923,-1.542,75
2.847,54,10.6576,-9.9351,-12.3008,1.732,0.0567,1.9156,76,2.129,41,1.4011,1.1495,-8.0068,1.1017,0.483,0.4596,85,2.528,48,5.8138,-3.1594,-12.9927,0.7965,-0.6574,-1.1313,75
2.898,55,8.9243,-8.8301,-11.3707,1.458,0.2059,1.3009,76,2.181,42,1.5551,2.5346,-7.3573,1.4758,0.5096,0.2343,85,2.58,49,9.5089,-3.6824,-6.8986,1.1027,-1.1522,-0.8516,75
2.95,56,4.3404,-6.4498,-10.9619,1.6539,0.3774,0.6785,76,2.233,43,-0.5179,6.157,-5.5497,1.0995,0.9062,0.1378,85,2.631,50,12.2057,-1.3926,-9.6507,0.8193,-0.6336,-0.565,75
3.002,57,1.6678,-4.7404,-10.2176,0.65,-0.3939,-0.0211,76,2.285,44,4.5419,7.7225,-7.9765,0.363,0.9918,0.5755,85,2.683,51,11.6579,-2.7166,-11.631,0.0703,0.2159,0.1681,75
3.054,58,2.4218,-3.829,-9.485,-0.1618,-0.8017,-0.3241,76,2.336,45,8.2348,6.5917,-9.1488,-0.4151,0.4301,0.8562,85,2.735,52,9.2322,0.3659,-16.4937,-0.6239,0.8359,0.8004,75
3.106,59,1.4898,-3.1196,-7.7191,-0.2298,-0.4884,-0.2773,76,2.388,46,7.6894,3.6687,-8.2669,-0.8198,0.0221,0.975,85,2.787,53,6.0573,-4.97,-20.0427,-1.1306,-0.0229,1.2021,75
3.157,60,-0.9824,-3.8083,-4.5409,-0.6092,0.3078,0.2186,76,2.44,47,3.0965,2.1237,-9.9455,0.0707,0.6952,1.2436,85,2.839,54,5.7291,-3.8243,-15.2917,-0.5354,-0.6901,0.7398,75
3.209,61,-0.1573,-7.9772,-2.0244,-0.3043,-0.2417,0.7254,76,2.492,48,2.0287,1.982,-9.4261,0.5191,-0.1653,1.148,85,2.89,55,7.7488,-2.4876,-10.5389,0.2857,-1.1771,0.4195,75
3.261,62,4.9428,-11.0198,-3.8816,0.1841,-0.8457,1.1266,76,2.544,49,2.6121,1.8474,-9.0432,0.8762,-0.3483,0.8105,85,2.942,56,9.6249,1.8122,-6.1698,0.2154,-0.4955,0.9393,75
3.313,63,4.8589,-12.0639,-7.5145,0.6646,0.0652,0.9844,76,2.595,50,1.3022,2.2364,-7.8825,1.3102,0.4186,0.6972,85,2.994,57,8.9541,-0.462,-12.5079,0.4958,-1.0115,0.2357,75
3.365,64,4.9061,-4.1049,-10.3024,1.1576,-0.2149,0.2959,76,2.647,51,1.226,4.0496,-5.6385,1.628,-0.0496,0.3061,85,3.046,58,10.0148,1.077,-17.1337,0.9389,-0.0757,0.519,75
3.416,65,4.3026,-1.373,-11.7023,0.2954,-0.2535,-0.4591,76,2.699,52,3.6394,7.6278,-2.7353,1.5125,0.6429,-0.0683,85,3.097,59,12.575,1.7955,-13.5637,0.0206,0.5862,0.7005,75
3.468,66,4.3978,-0.7731,-12.2006,-0.3188,-0.0793,-1.0102,76,2.751,53,7.5761,6.6464,-5.9344,0.4239,0.4068,-0.0478,85,3.149,60,10.4172,4.5919,-16.3396,0.6916,0.4338,-0.1076,75
3.52,67,3.9244,-0.8807,-11.811,-0.6645,-0.2052,-1.4124,76,2.803,54,6.6914,4.8814,-7.5026,0.0273,0.5912,-0.099,85,3.201,61,7.5841,3.4871,-12.6798,-0.1705,0.7323,-0.353,75
3.572,68,4.2828,-2.021,-10.5219,-1.1624,-0.1965,-1.7059,76,2.855,55,0.7326,6.538,-8.0299,-0.1446,1.1106,-0.0945,85,3.253,62,6.5673,1.2687,-11.4538,-0.042,1.2128,-0.6262,75
3.623,69,7.4371,-6.297,-11.1599,-1.1734,-0.8127,-1.9202,76,2.906,56,1.0013,7.3074,-9.4366,-0.7715,0.1379,-0.5233,85,3.305,63,5.7353,-0.268,-13.4642,0.3739,1.5547,-0.7904,75
3.675,70,10.4855,-9.2211,-15.0311,-1.3864,-0.4611,-2.0747,76,2.958,57,1.7707,5.153,-9.8319,-0.9266,0.4491,-0.8997,85,3.357,64,3.289,-2.2892,-17.6519,0.9494,1.3037,-1.2509,75
3.727,71,10.7281,-7.4358,-12.5127,-0.6831,0.211,-1.3754,76,3.01,58,0.654,4.4704,-10.3216,-0.5555,-0.0526,-1.343,85,3.408,65,7.5023,-6.9078,-20.888,0.3556,0.4542,-0.4146,75
3.779,72,2.2975,-3.5064,-13.4648,-1.012,-0.1807,-1.0912,76,3.062,59,5.3972,4.1154,-7.2392,-0.6431,-0.3619,-1.6665,85,3.46,66,10.7413,-3.0888,-18.846,0.4365,0.5679,-0.1441,75
3.831,73,4.3683,-2.46,-11.4104,-1.2666,-0.8012,-0.4897,76,3.114,60,8.859,4.3972,-5.9276,-1.1494,-0.3964,-1.7502,85,3.512,67,8.2742,-4.4389,-16.5771,0.2377,0.8919,0.1694,75
3.882,74,2.1638,-2.2531,-10.1648,-1.6018,0.064,0.1216,76,3.165,61,11.3856,3.8543,-5.8599,-1.4398,-0.8547,-0.8547,85,3.564,68,5.4053,-8.1144,-15.8928,-0.5013,1.0066,0.8014,75
3.934,75,2.287,-2.9089,-7.6973,-1.8263,-0.2772,0.3083,76,3.217,62,6.356,2.9452,-5.6737,-0.8704,0.0551,0.0163,85,3.616,69,5.698,-6.7399,-15.0976,-1.0411,0.0684,1.2626,75
3.986,76,5.3309,-5.3154,-5.8506,-1.8311,-0.2904,0.6121,76,3.269,63,1.1514,3.9156,-6.6093,-0.4413,-0.6325,0.6291,85,3.667,70,6.6373,-3.6588,-12.4993,-1.4351,-0.6234,1.5992,75
4.038,77,8.9484,-5.1923,-12.2665,-0.6621,0.1164,0.6257,76,3.321,64,5.0186,3.184,-6.0097,0.3128,-0.6944,0.6301,85,3.719,71,8.8626,2.6815,-7.0614,-1.6298,-1.1284,0.7195,75
4.09,78,11.4802,-2.1734,-14.0179,0.1119,0.4742,1.0132,76,3.373,65,1.336,5.8896,-5.3186,0.9,0.1723,0.2898,85,3.771,72,7.0478,4.9151,-13.1586,-0.5129,-1.3276,-0.0416,75
4.141,79,5.5786,-0.4031,-14.044,0.7561,1.0285,1.3328,76,3.424,66,1.9919,7.7263,-4.202,0.1348,-0.5469,-0.3154,85,3.823,73,10.4095,7.5257,-12.0048,-1.0496,-0.8034,0.0171,75
4.193,80,3.0913,-0.7903,-12.854,0.2382,0.0813,0.4514,76,3.476,67,6.3737,8.293,-5.4717,-0.5803,-0.0732,-0.9165,85,3.875,74,12.6837,3.4625,-11.278,-0.7866,0.092,0.5707,75
4.245,81,2.7609,-2.7076,-11.6235,0.2944,0.3841,0.4686,76,3.528,68,9.5717,5.7669,-8.1429,-1.1035,-0.3795,-0.3138,85,3.926,75,10.7813,1.8384,-14.2085,0.1024,0.6198,-0.2575,75
4.297,82,0.8636,-2.3511,-9.9412,0.4764,0.4909,0.8114,76,3.58,69,9.4233,4.4786,-9.024,-1.0977,-0.658,0.33,85,3.978,76,8.8733,1.6636,-11.2405,-0.1271,1.1307,-0.8287,75
4.349,83,1.9547,-3.7783,-8.4534,-0.3128,0.1808,1.2688,76,3.632,70,5.9064,2.706,-9.2439,-0.2552,0.0429,-0.2082,85,4.03,77,6.6185,2.8885,-12.9204,0.5838,1.2655,-1.2788,75
4.4,84,6.4843,-7.9553,-11.8491,0.1841,-0.5373,1.6027,76,3.683,71,4.8315,2.0188,-8.639,0.207,-0.4111,-0.4852,85,4.082,78,5.875,-0.3757,-12.576,1.1026,0.8037,-1.6073,75
4.452,85,9.7901,-8.3572,-13.3997,0.7963,-0.151,1.7032,76,3.735,72,3.5418,1.3203,-8.3302,0.2242,0.1461,-0.5574,85,4.133,79,5.1019,-1.6543,-11.4191,0.1904,0.9275,-1.081,75
4.504,86,8.0623,-7.4334,-10.9408,1.2555,0.5149,0.9726,76,3.787,73,1.0153,0.768,-6.9201,0.189,0.7857,-0.5026,85,4.185,80,8.9893,0.0304,-9.0987,0.2486,0.2398,-1.02,75
4.556,87,0.3519,-5.7186,-13.9015,0.9819,0.045,0.7314,76,3.839,74,-1.2172,3.6681,-3.7603,0.0527,0.0491,-0.2382,85,4.237,81,11.8266,-0.1784,-11.417,-0.1024,0.7441,-0.3446,75
4.608,88,1.8502,-8.6946,-12.5889,0.6376,-0.5941,0.6735,76,3.891,75,4.0315,7.2026,-3.3907,-0.5666,-0.223,0.147,85,4.289,82,10.6842,-3.4008,-15.9678,-0.4759,1.1002,0.3895,75
4.659,89,2.349,-7.2929,-10.8631,1.1228,-0.2721,1.1682,76,3.942,76,7.6302,6.9124,-4.1358,-0.6105,-0.3483,0.7088,85,4.341,83,6.0843,-2.2592,-19.6589,-1.0225,0.7946,0.962,75
4.711,90,3.3142,-6.9542,-8.928,0.9365,0.439,1.5292,76,3.994,77,3.9397,1.9599,-5.5887,-0.7865,0.4249,1.097,85,4.392,84,7.98,-3.3599,-17.2314,-1.4215,-0.0935,0.8739,75
4.763,91,2.1994,-8.073,-7.3035,1.1953,0.8305,1.7927,76,4.046,78,2.4945,0.6026,-5.9015,0.0977,-0.3586,1.4569,85,4.444,85,8.4113,-7.0042,-11.5137,-0.3609,-0.7416,-0.0028,75
4.815,92,6.6629,-7.3639,-8.0396,1.0231,-0.0632,1.2901,76,4.098,79,4.1074,2.7977,-5.9952,0.743,0.1099,1.2661,85,4.496,86,8.9498,-3.2036,-7.5366,0.4131,-0.7626,0.4689,75
4.866,93,5.1444,-6.2306,-8.9538,0.6059,0.295,0.4915,76,4.15,80,3.9353,3.4822,-5.8163,1.1982,0.7593,0.8778,85,4.548,87,2.713,3.0138,-13.5054,-0.3686,-1.1191,0.463,75
4.918,94,7.6154,-2.9811,-11.824,0.8967,-0.454,-0.3164,76,4.202,81,3.9381,7.0218,-7.3351,1.5462,1.2332,-0.0457,85,4.6,88,7.2458,0.8357,-16.1981,0.4075,-1.2582,0.2643,75
4.97,95,7.4875,-1.9765,-10.9454,0.1617,-0.4579,-0.9061,76,4.253,82,3.0879,9.6259,-8.3358,0.7549,1.5643,-0.7197,85,4.651,89,9.2507,1.3635,-12.9783,-0.2585,-0.6379,0.3731,75
5.022,96,5.9989,-1.4534,-10.7713,-0.5594,-0.9827,-1.3364,76,4.305,83,3.6594,7.2876,-8.5267,-0.1291,1.1779,0.0881,85,4.703,90,7.9727,1.2331,-13.4913,0.4879,-0.167,-0.3754,75
5.074,97,6.7758,-3.4069,-9.2448,-1.0856,-1.1151,-1.6505,76,4.357,84,6.5016,3.2493,-10.866,-0.7742,0.187,0.7297,85,4.755,91,4.8387,1.8141,-11.9407,-0.3192,0.5564,0.084,75
5.125,98,6.8423,-3.376,-8.0283,-1.4697,-0.4855,-1.8797,76,4.409,85,4.5651,5.5378,-11.7273,0.1067,-0.472,1.1979,85,4.807,92,5.2188,-0.7733,-13.0541,-0.4783,0.9106,-0.1044,75
5.177,99,10.0514,-5.3434,-11.2674,-1.2552,-1.0237,-2.0467,76,4.461,86,4.3696,5.2411,-10.5234,-0.6022,-1.0171,1.2773,85,4.859,93,3.7735,-2.3857,-14.3131,0.3274,1.2037,-0.6403,75
5.229,100,12.3936,-4.886,-15.8699,-0.6979,-0.4557,-1.9607,76,4.512,87,4.434,3.379,-9.5268,-1.1195,-1.415,1.0821,85,4.91,94,1.9965,-2.4276,-15.9581,0.9155,0.3541,-1.1413,75
5.281,101,12.6317,-4.0138,-14.8268,-1.0142,0.2979,-1.4837,76,4.564,88,3.6374,3.0024,-6.7766,-1.4971,-1.5102,0.8501,85,4.962,95,6.7229,-2.9266,-11.4943,0.0108,-0.1765,-0.5171,75
5.333,102,6.2902,-2.7929,-13.9094,-0.9442,0.8999,-0.4113,76,4.616,89,4.2428,2.8519,-6.697,-1.7727,-1.7749,0.5717,85,5.014,96,10.1724,-0.4896,-10.8863,0.142,-0.6378,-0.2036,75
5.384,103,4.4574,-2.2817,-12.8534,-1.3665,-0.0126,-0.2688,76,4.668,90,8.0164,-0.162,-10.9318,-1.0644,-1.4281,-0.0167,85,5.066,97,7.6136,-1.7523,-10.5712,-0.2244,0.1489,0.1618,75
5.436,104,5.0229,-2.2571,-11.6675,-0.9369,0.2776,0.3876,76,4.72,91,10.7706,-1.2575,-10.1794,-0.4886,-0.7649,0.0112,85,5.118,98,7.5211,-2.8141,-14.6011,-0.3044,0.4114,0.7818,75
5.488,105,3.1071,-1.4187,-10.727,-1.2653,0.429,0.4937,76,4.772,92,9.5791,0.1394,-10.0245,0.3151,0.0456,0.1663,85,5.169,99,6.0654,-4.6833,-12.3543,-0.8974,0.3537,1.2483,75
5.539,106,2.0651,-2.7542,-10.0272,-1.5812,0.3704,0.5306,76,4.823,93,4.7115,1.4656,-10.0441,0.1506,0.7123,0.2039,85,5.221,100,5.7873,-2.0014,-13.0308,-1.3302,-0.1462,1.5888,75
5.591,107,6.5648,-4.3385,-12.3014,-0.8547,-0.399,0.2809,76,4.875,94,3.0902,1.4312,-10.3782,0.109,-0.0128,0.2597,85,5.273,101,6.0109,-0.606,-11.4097,-1.646,-0.7801,1.7645,75
5.643,108,9.8489,-3.9855,-16.0586,0.0506,0.2779,0.2808,76,4.927,95,1.9232,1.8669,-10.1479,0.1549,0.386,0.1848,85,5.325,102,6.5121,1.0604,-5.7433,-0.9621,-1.1397,0.6415,75
5.695,109,10.7965,-2.6899,-14.1602,0.2556,0.8457,0.5642,76,4.979,96,-0.0698,2.267,-9.7959,0.1835,0.5402,0.0282,85,5.377,103,10.0185,-3.4545,-2.7037,-0.0257,-0.4913,0.8125,75
5.747,110,2.3474,-6.279,-12.2042,0.6699,1.2996,0.7867,76,5.03,97,1.1573,3.447,-8.9445,0.4148,-0.2784,-0.3875,85,5.428,104,12.5777,2.8306,-4.0557,-0.5404,-0.4564,0.6588,75
5.798,111,3.109,-5.676,-11.8513,1.1551,0.2792,0.6376,76,5.082,98,5.7645,2.8431,-11.5856,-0.3773,-0.2949,-0.1287,85,5.48,105,12.1395,2.7326,-5.4429,-0.3715,0.0061,0.7419,75
5.851,112,2.2386,-4.855,-11.4017,1.3861,0.8862,1.142,76,5.134,99,9.1271,2.4686,-11.6895,-0.9554,-0.6154,0.5604,85,5.532,106,11.716,4.1618,-10.12,0.4054,0.3103,-0.1326,75
5.902,113,0.8738,-2.7083,-11.376,1.3797,0.8583,1.5098,76,5.186,100,5.9099,0.6,-11.464,-0.5883,0.23,0.587,85,5.584,107,10.1482,1.7677,-9.4214,0.9724,0.5329,-0.7708,75
5.954,114,-0.3364,-1.8761,-10.32,1.3155,0.7786,1.0895,76,5.238,101,1.0988,0.9721,-10.7988,0.2424,0.3066,0.4191,85,5.635,108,8.285,-0.1874,-8.854,1.3863,0.633,-1.2366,75
6.006,115,4.8121,0.2897,-15.1337,1.6147,-0.1002,0.3546,76,5.289,102,0.9351,1.02,-10.3065,0.6466,-0.4489,0.2278,85,5.687,109,7.0667,-2.6869,-8.9,1.6883,0.8383,-1.5765,75
6.057,116,8.5697,0.7901,-14.1026,1.5194,-0.6594,-0.1268,76,5.341,103,0.4765,0.9119,-9.7402,1.0082,0.2748,0.0401,85,5.739,110,8.1949,-3.0048,-12.082,1.1374,0.71,-1.2306,75
6.109,117,10.0233,-0.4887,-13.2233,1.2657,-0.5531,-0.7677,76,5.393,104,-0.5428,2.369,-8.7514,0.8806,0.3281,0.071,85,5.791,111,11.2468,0.8025,-10.4728,0.9987,0.8111,-0.9714,75
6.161,118,5.7965,-0.8929,-10.9387,0.4165,0.2787,-0.6067,76,5.445,105,1.9653,3.9916,-10.2658,0.284,-0.4332,0.1045,85,5.843,112,13.4741,0.619,-11.7987,0.4548,0.5005,-0.4756,75
6.213,119,4.6264,-1.9441,-10.1898,-0.2012,-0.4659,-0.807,76,5.497,106,6.3542,3.9217,-11.6053,0.0632,-0.2142,0.245,85,5.894,113,11.6667,-2.8335,-12.2022,-0.2071,1.0436,0.2802,75
6.265,120,2.4197,-2.3624,-9.2325,-0.6619,0.0738,-0.3927,76,5.549,107,9.5575,2.4053,-11.5696,0.3323,-0.2359,0.3802,85,5.946,114,7.298,-0.3166,-16.9106,-0.8263,0.6734,0.8823,75
6.316,121,1.2966,-1.6792,-8.8341,0.0086,-0.5089,-0.4883,76,5.6,108,6.528,2.3265,-10.6729,0.2692,0.5069,0.6493,85,5.998,115,6.9369,-3.7807,-15.1184,-1.2783,-0.1819,0.7561,75
6.368,122,1.3423,-2.5532,-8.2687,0.5362,-0.7239,-0.6169,76,5.653,109,0.5106,1.6783,-10.4574,0.3668,0.8351,0.65,85,6.05,116,6.8466,-3.771,-12.6354,-0.2564,-0.8062,0.6399,75
6.42,123,6.0373,-1.3399,-12.8434,0.916,-1.1976,-0.5986,76,5.704,110,0.9493,1.544,-10.2542,0.3761,-0.0631,0.478,85,6.102,117,7.9605,-0.9121,-8.6523,0.4894,-0.543,0.7634,75
6.472,124,9.4639,-0.3582,-15.696,0.4807,-0.6689,-0.4142,76,5.756,111,0.6179,1.4183,-9.7935,0.6918,0.5715,0.353,85,6.154,118,4.0565,4.6862,-14.3197,-0.3181,-0.9261,0.8854,75
6.524,125,8.8766,-0.3088,-13.8101,0.849,0.1942,-0.7631,76,5.808,112,-0.5083,1.8522,-9.4251,0.8228,0.8011,0.2458,85,6.205,119,7.3678,-0.367,-8.0154,0.2314,-0.2878,0.7062,75
6.575,126,2.1935,2.9983,-13.0833,0.1714,0.6055,-0.2563,76,5.86,113,0.9065,2.4354,-8.9875,0.4734,-0.088,0.1199,85,6.257,120,10.6431,0.6558,-7.3565,-0.3584,-0.664,0.9001,75
6.627,127,2.3083,2.475,-12.5215,-0.5523,-0.2257,-0.1155,76,5.912,114,5.5815,1.6465,-14.1166,-0.2223,0.1958,0.461,85,6.309,121,9.5269,3.141,-6.717,0.2782,-0.3542,0.1127,75
6.679,128,1.7564,1.4585,-12.6,-0.8147,0.1072,-0.2869,76,5.963,115,8.9935,0.1144,-12.7859,-0.0904,0.2313,0.3175,85,6.361,122,7.712,7.0275,-12.9072,0.6266,-0.2873,-0.5918,75
6.731,129,0.9455,1.6916,-11.0141,-1.2254,0.6558,-0.408,76,6.015,116,6.5754,1.8416,-12.2889,0.5797,0.8479,0.5941,85,6.413,123,7.1399,3.9094,-9.0318,-0.2179,-0.0366,-1.0763,75
6.783,130,0.9403,0.7139,-10.3322,-1.5717,0.3896,-0.4382,76,6.067,117,0.0897,3.9767,-9.98,0.1862,0.9995,0.6132,85,6.464,124,7.7896,0.0735,-9.7935,-0.2717,0.323,-1.2066,75
6.834,131,5.7439,-0.3357,-11.4477,-1.8245,-0.2806,-0.1133,76,6.119,118,0.38,3.9527,-9.9729,-0.5441,0.0568,0.3905,85,6.516,125,6.5177,-2.9841,-9.6875,0.4749,0.9141,-0.8124,75
6.886,132,9.2497,-0.907,-15.471,-1.1963,-0.1285,-0.2209,76,6.171,119,0.7121,2.766,-9.4254,-0.4646,0.6641,0.165,85,6.568,126,4.6643,-1.8214,-13.9152,-0.0021,1.2393,-0.3784,75
6.938,133,11.8085,-0.9596,-15.8498,-0.8265,0.2213,-0.4329,76,6.222,120,-1.6196,2.7763,-9.7386,-0.6587,0.9605,0.0482,85,6.62,127,3.4338,-6.5663,-18.1608,-0.6768,0.569,-0.6123,75
6.99,134,7.8612,-0.5885,-14.2966,0.0229,0.8439,-0.1862,76,6.274,121,1.2303,2.3321,-8.7896,-0.7049,0.0284,-0.1081,85,6.672,128,5.7043,0.5595,-18.2967,0.1826,0.4741,-0.7474,75
7.042,135,2.0278,0.7099,-13.6842,0.1337,0.1568,-0.2364,76,6.326,122,5.8178,1.4128,-10.1012,-0.5844,0.2027,-0.2666,85,6.723,129,9.429,1.5266,-14.2434,-0.0066,0.7957,-0.1124,75
7.093,136,3.0003,0.0223,-12.6296,-0.1007,-0.4794,-0.4251,76,6.378,123,9.166,0.1144,-10.1214,-0.5346,-0.1126,-0.4609,85,6.775,130,9.3594,-1.5093,-16.1094,-0.6738,-0.0927,0.5203,75
7.145,137,1.544,-0.2521,-11.4827,-0.0891,0.2198,-0.1761,76,6.43,124,8.9762,-0.0039,-8.5584,-0.3991,-0.0964,-0.2832,85,6.827,131,6.9623,-2.5114,-15.1438,-1.167,0.3385,1.0575,75
7.197,138,0.0328,-1.0155,-10.0153,-0.6813,0.0399,-0.0406,76,6.481,125,4.6658,1.2182,-8.218,0.3801,0.6087,-0.1567,85,6.879,132,5.7831,-2.0177,-14.0452,-1.527,-0.0562,1.4495,75
7.249,139,1.5844,-3.0887,-8.5043,-1.1142,-0.5756,0.1653,76,6.533,126,3.1621,2.0384,-7.9579,0.4218,-0.2086,-0.2963,85,6.931,133,5.0787,0.9443,-15.355,-1.7897,-0.7144,1.7357,75
7.301,140,6.2139,-2.4662,-9.9587,-0.3723,-1.0894,0.4106,76,6.585,127,1.809,1.561,-7.8323,0.0546,0.4505,-0.4865,85,6.982,134,6.5145,3.1806,-10.8925,-1.8827,-1.1948,1.1689,75
7.352,141,9.5928,0.5443,-14.7401,-0.049,-0.7117,0.9125,76,6.637,128,-0.4083,1.996,-8.081,0.2554,0.5168,-0.5698,85,7.034,135,7.208,6.4067,-13.8938,-0.7681,-1.2763,0.2052,75
7.404,142,10.6063,0.3815,-14.102,0.1336,-0.0452,0.7321,76,6.689,129,-0.0214,2.4805,-7.6843,0.0561,0.2172,-0.8315,85,7.086,136,9.5427,-0.5611,-15.5296,-0.5947,-1.5453,0.6063,75
7.456,143,5.3762,0.4647,-13.0218,0.6072,0.6494,0.6813,76,6.74,130,1.8922,3.8721,-6.2565,-0.4858,0.0138,-1.029,85,7.138,137,10.6627,3.1957,-14.4651,-0.9937,-0.9622,0.781,75
7.508,144,3.9662,-0.6759,-11.9276,-0.0265,-0.1954,0.3434,76,6.792,131,6.3009,4.0165,-7.0119,-0.3395,0.348,-0.9368,85,7.19,138,11.9786,1.6949,-12.8465,-1.2288,-0.0239,1.1032,75
7.56,145,3.636,-1.3746,-11.1586,0.3172,-0.0822,0.4992,76,6.844,132,9.5185,2.856,-7.4722,-0.9278,-0.086,-0.0833,85,7.241,139,11.6541,-0.9555,-13.3707,-0.2203,-0.1106,0.2321,75
7.611,146,1.7598,-0.7855,-10.3986,0.186,0.1626,0.7406,76,6.896,133,7.1297,1.2921,-7.9801,-0.1445,0.4359,0.1446,85,7.293,140,11.398,0.1747,-17.67,-0.4981,0.535,-0.4104,75
7.663,147,1.1433,-1.4046,-9.8693,0.2987,0.0066,0.7468,76,6.948,134,3.4947,0.919,-8.5947,0.3346,0.4073,0.3726,85,7.345,141,8.2235,1.029,-15.9183,0.313,0.905,-0.9655,75
7.715,148,5.4594,-1.6017,-12.649,0.844,-0.6645,0.3974,76,6.999,135,2.6209,0.5856,-8.5649,0.8455,-0.1109,0.5113,85,7.397,142,7.0827,0.3694,-15.9452,0.905,0.6717,-1.3787,75
7.767,149,9.0421,-2.193,-15.0306,0.9153,-0.1375,0.6464,76,7.051,136,1.6781,1.2596,-8.4925,0.9098,0.2273,0.665,85,7.449,143,6.7433,0.9791,-19.6424,1.337,0.0151,-1.6162,75
7.818,150,11.657,-2.7507,-14.5024,0.8068,0.0024,0.2385,76,7.103,137,0.3939,1.9592,-8.3683,1.0183,0.1337,0.7397,85,7.5,144,10.1873,-2.1694,-15.6645,0.4712,0.3514,-1.5237,75
7.87,151,7.8333,-3.6228,-11.9311,0.3737,0.6842,0.2211,76,7.155,138,1.1079,3.259,-6.9159,0.7009,-0.1798,0.5615,85,7.552,145,11.5058,0.6065,-14.9473,0.5746,0.4359,-1.0167,75
7.922,152,4.5493,-3.5419,-11.321,0.6095,-0.17,-0.1872,76,7.207,139,5.7285,3.2572,-7.4448,0.3181,0.1734,0.4232,85,7.604,146,13.6632,1.3325,-14.5412,-0.0299,0.3091,-0.0892,75
7.974,153,4.8686,-4.0696,-11.0734,0.6942,-0.1953,-0.072,76,7.258,140,9.1008,2.4848,-8.6038,-0.2246,-0.0222,0.6229,85,7.656,147,11.6135,-2.5485,-18.6177,-0.697,-0.0557,0.5731,75
8.026,154,2.0194,-3.8857,-10.8921,0.6428,0.3358,0.4857,76,7.31,141,8.9451,1.9419,-7.7985,0.2061,-0.0677,0.7176,85,7.708,148,7.1699,-4.2974,-21.4833,-1.1839,-0.4596,0.7434,75
8.077,155,1.9816,-4.3657,-10.5787,0.403,-0.2079,1.0311,76,7.362,142,4.3226,1.2295,-8.239,0.8221,0.6297,0.769,85,7.759,149,7.9939,-1.9849,-17.9271,-1.5393,-1.0088,0.4831,75
8.129,156,3.1075,-6.0059,-9.5578,0.5143,-0.7292,1.4292,76,7.414,143,2.2248,1.0637,-8.2859,1.2718,-0.2131,0.6118,85,7.811,150,6.8148,-3.2342,-13.5986,-0.4469,-1.4097,0.1738,75
8.181,157,7.3256,-7.4309,-12.9162,0.8872,-1.198,1.6196,76,7.466,144,2.4588,0.8955,-8.1302,1.0747,0.0474,0.4978,85,7.863,151,6.8363,-1.9073,-8.0633,-0.3293,-0.9791,0.732,75
8.233,158,10.4042,-6.8774,-14.3052,1.1892,-0.9013,0.7276,76,7.518,145,0.6565,1.0551,-8.1682,1.0266,0.5769,0.5967,85,7.915,152,10.2552,-2.0498,-3.3009,0.1088,-1.388,0.071,75
8.285,159,8.0067,-4.8045,-13.9878,1.5082,0.0246,0.0739,76,7.569,146,0.2956,1.9151,-7.2139,0.9823,0.1444,0.641,85,7.967,153,12.7377,-5.5905,-10.414,0.6516,-0.5729,-0.0386,75
8.336,160,3.4002,-2.6591,-13.7197,0.4573,-0.5606,-0.4811,76,7.621,147,5.1356,2.521,-5.8799,0.1285,-0.1242,0.6278,85,8.018,154,14.5623,-1.3108,-7.106,0.0861,-0.5504,0.083,75
8.388,161,4.0562,-3.0871,-13.1445,-0.3433,-1.0785,-0.9009,76,7.673,148,8.6681,0.422,-9.0485,-0.1995,0.0141,0.2666,85,8.07,155,13.4013,-1.046,-8.3127,0.7126,-0.6058,-0.4527,75
8.44,162,3.0802,-3.1066,-11.6203,-0.3091,-0.4779,-0.8243,76,7.725,149,9.6618,-0.9053,-7.9764,-0.8256,-0.3223,0.1942,85,8.122,156,10.9414,3.1603,-9.8146,0.1129,0.2362,-0.9292,75
8.492,163,1.5647,-4.1582,-9.1288,-0.3453,-0.8101,-0.535,76,7.777,150,3.9701,2.4085,-9.2636,0.0691,0.4438,0.7078,85,8.174,157,8.7708,-2.6782,-9.0711,-0.5928,0.4721,-1.1451,75
8.544,164,3.3979,-4.8522,-7.0061,0.3528,-0.5001,-0.272,76,7.828,151,2.9451,3.9026,-8.5784,-0.3345,-0.3487,0.3594,85,8.226,158,7.2135,-3.3446,-10.2925,0.2438,0.7524,-1.2751,75
8.595,165,7.5376,-5.5476,-10.4084,-0.3281,-1.0343,-0.3573,76,7.88,152,3.1835,3.2459,-8.2328,-0.7264,-0.0145,-0.1372,85,8.277,159,4.9095,-4.9236,-12.0923,0.8545,0.9853,-1.6046,75
8.647,166,10.5588,-7.2763,-13.4325,-0.8485,-0.4159,-0.9147,76,7.932,153,1.4579,2.6816,-8.2159,-0.6884,0.3936,-0.3707,85,8.329,160,5.04,-5.9899,-13.26,1.1967,0.7236,-1.1616,75
8.699,167,10.6232,-6.2351,-13.1185,-0.2181,0.3486,-1.3427,76,7.984,154,1.0805,2.9754,-8.0344,-1.1473,0.1751,-0.3955,85,8.381,161,5.121,0.9802,-12.9571,0.7664,0.6164,-1.1079,75
8.751,168,2.221,-3.0028,-13.896,0.5152,0.9361,-1.2247,76,8.036,155,4.6252,2.5781,-7.7548,-1.1555,-0.5269,-0.8497,85,8.433,162,9.0032,0.5362,-12.6109,0.3087,0.2092,-0.6228,75
8.803,169,2.4921,-1.8261,-13.7381,0.2412,0.0139,-1.4233,76,8.087,156,8.2956,0.9403,-9.7226,-1.003,-0.4029,-1.3007,85,8.484,163,7.0888,-2.2064,-15.1395,0.3166,0.4983,-0.3424,75
8.854,170,2.3154,-0.8115,-12.9235,-0.4522,0.3744,-1.0304,76,8.139,157,10.5618,-0.1925,-9.5613,-1.1761,-0.4742,-1.0601,85,8.536,164,5.6773,-0.9561,-17.9408,-0.4442,0.7,0.4253,75
8.906,171,0.8431,-0.66,-12.0249,-1.0074,0.2825,-1.1344,76,8.191,158,6.3529,1.0548,-8.495,-0.1866,0.333,-0.5143,85,8.588,165,5.3332,-3.4787,-15.2338,-0.9994,0.1792,0.9882,75
8.958,172,1.8244,-1.5193,-11.5923,-1.4126,-0.3892,-1.2984,76,8.243,159,2.7654,3.6832,-8.2788,-0.1119,-0.351,-0.6285,85,8.64,166,4.2268,-1.5547,-14.3446,-1.4046,-0.0906,1.3989,75
9.01,173,6.3891,-1.1871,-14.8699,-0.9502,-0.9534,-1.2028,76,8.295,160,3.4835,2.8767,-8.211,-0.7617,-0.6341,-0.801,85,8.692,167,5.873,0.1773,-10.7008,-1.7004,-0.7395,1.164,75
9.062,174,9.7207,0.249,-17.7331,-1.2631,-0.2434,-0.2242,76,8.346,161,0.8368,2.1154,-8.4854,-0.7386,-0.1556,-0.7104,85,8.743,168,8.2918,5.4813,-5.5495,-0.5645,-0.1984,0.2349,75
9.113,175,10.7436,-0.206,-15.6647,-1.5992,0.1782,0.513,76,8.398,162,-0.2598,2.3021,-8.0565,-0.1503,-0.205,-0.7584,85,8.795,169,9.8471,0.8574,-9.0271,-0.6351,-0.1573,-0.5026,75
9.165,176,5.5625,-2.4976,-11.0865,-1.6888,0.6183,0.0824,76,8.45,163,3.0542,4.4672,-7.9112,0.4217,-0.8223,-1.1945,85,8.847,170,12.4526,2.0188,-10.2232,-0.5779,0.0574,-0.175,75
9.217,177,3.6107,-3.0676,-9.8049,-0.5582,0.3583,-0.2094,76,8.502,164,7.149,4.6856,-9.0672,-0.0242,-0.7505,-1.186,85,8.899,171,10.7549,0.9542,-9.3855,-0.4207,0.6249,0.0767,75
9.269,178,3.8501,-2.817,-9.3655,0.2667,0.3221,-0.0817,76,8.554,165,10.1375,3.8515,-8.6793,-0.6977,-1.2164,-0.2107,85,8.951,172,10.6572,0.3897,-10.2157,0.3695,0.8139,-0.618,75
9.321,179,2.1807,-2.5423,-9.3328,0.2245,0.9175,0.4773,76,8.606,166,7.467,1.9408,-8.7955,-0.0271,-0.2778,0.0675,85,9.002,173,7.5461,-0.1756,-8.7805,0.9462,0.9489,-1.1251,75
9.372,180,1.3437,-2.9172,-9.7789,0.6996,0.9157,0.7217,76,8.657,167,4.8779,1.1673,-8.4881,0.6519,-0.3673,0.1944,85,9.054,174,6.3251,-0.1034,-9.1461,1.3671,0.5628,-1.4951,75
9.424,181,6.0383,-1.3977,-15.0886,1.185,-0.001,0.6499,76,8.709,168,3.5331,1.1523,-7.7019,1.0468,0.0359,0.4104,85,9.106,175,5.8278,-3.4918,-9.9214,1.6743,0.179,-1.7652,75
9.476,182,9.4646,0.3954,-17.0804,1.3917,-0.2687,1.0746,76,8.761,169,1.4366,0.9198,-7.7824,1.4357,0.4053,0.6141,85,9.158,176,5.9959,-1.2526,-13.438,1.1385,0.1479,-1.7154,75
9.528,183,11.7155,0.6995,-16.1186,1.1928,-0.2388,0.6356,76,8.813,170,0.6002,1.545,-8.83,1.7196,0.9736,0.3178,85,9.21,177,5.6449,0.002,-13.9908,0.6635,0.7863,-1.5782,75
9.579,184,4.6204,-0.5419,-13.6581,0.757,0.5081,0.9208,76,8.865,171,2.3893,6.3396,-12.2387,1.9267,0.6013,-0.3918,85,9.261,178,8.4073,0.0401,-14.1312,0.2582,0.8868,-0.762,75
9.631,185,4.2113,-1.2235,-11.8981,0.4845,-0.2985,0.3304,76,8.916,172,6.6637,7.0574,-14.2841,1.8596,0.0364,-0.4316,85,9.313,179,11.4017,-1.4903,-14.9035,-0.4868,1.2595,0.1112,75
9.683,186,3.5342,-2.0677,-10.4499,0.5986,0.3769,0.6145,76,8.968,173,9.7834,4.7853,-14.6165,0.6772,0.5213,0.1216,85,9.365,180,9.3537,-3.5203,-18.8821,-1.0305,0.4348,0.7589,75
9.735,187,1.137,-1.653,-9.7301,0.7178,0.2463,0.9519,76,9.02,174,6.562,2.6799,-12.8874,1.166,1.0595,0.534,85,9.417,181,6.2069,-7.3798,-18.996,-1.4273,-0.2066,0.7943,75
9.787,188,2.4973,-2.2201,-9.2935,-0.0196,-0.4025,1.3428,76,9.072,175,1.6419,4.6039,-10.9665,1.4851,1.117,0.7309,85,9.469,182,6.0214,-5.1622,-15.8058,-0.4036,-0.8242,0.3115,75
9.838,189,4.2291,-5.335,-9.7589,0.4345,-0.7961,1.5042,76,9.124,176,2.0862,3.691,-10.938,0.4039,0.1426,0.3391,85,9.52,183,6.1233,-5.3835,-10.9128,0.382,-1.0222,0.4515,75
9.89,190,8.1442,-5.6084,-15.119,0.9386,-0.3965,1.1271,76,9.175,177,0.8901,2.8389,-11.0718,0.2824,0.7831,0.3228,85,9.572,184,5.0822,-0.9811,-15.9695,-0.0184,-0.9398,0.8222,75
9.942,191,11.0016,-4.4658,-15.1632,1.1375,-0.5051,0.1475,76,9.227,178,-0.4252,3.2071,-11.4329,0.638,0.3235,0.1419,85,9.624,185,8.975,-5.9531,-19.6602,0.4611,-1.1636,0.3107,75
9.994,192,5.9636,-0.6525,-14.0158,0.8596,0.3138,0.2766,76,9.279,179,0.8737,4.1833,-12.0252,0.6661,-0.0795,-0.1817,85,9.676,186,11.8161,-3.0191,-18.0158,0.1718,-0.5831,0.0024,75
10.046,193,4.4878,0.789,-13.2985,-0.0176,-0.4403,-0.4732,76,9.331,180,5.5575,5.8801,-12.7749,0.1501,-0.1046,-0.3569,85,9.727,187,13.8897,1.5367,-14.0105,-0.2163,-0.2409,0.4093,75
10.097,194,4.8326,0.3516,-13.256,-0.6902,-0.0404,-0.938,76,9.383,181,8.976,6.3644,-12.0253,-0.5705,-0.4689,0.1434,85,9.779,188,11.1938,3.8046,-15.1535,0.5187,-0.0072,-0.3684,75
10.149,195,2.5553,-0.4558,-13.1542,-1.1811,0.6043,-1.2024,76,9.434,182,7.0592,4.9701,-12.2526,-0.8805,0.3071,0.7337,85,9.831,189,8.3399,3.7297,-13.3152,-0.2964,0.4984,-0.6372,75
10.201,196,1.6884,-1.7217,-12.8502,-1.5394,0.2407,-1.4115,76,9.486,183,1.5408,7.3945,-12.5247,-0.4235,0.655,0.9867,85,9.883,190,8.325,0.7462,-12.7907,0.2266,0.9516,-0.6755,75
10.253,197,3.9871,-3.519,-12.4015,-1.8009,-0.4937,-1.6091,76,9.538,184,1.8956,6.1347,-13.0832,-0.9891,-0.1946,0.2762,85,9.935,191,6.6683,-0.5427,-13.6532,0.8419,1.1039,-0.7115,75
10.305,198,7.9676,-5.0306,-14.7989,-1.0801,-1.0297,-1.7002,76,9.59,185,1.2438,4.6839,-12.7839,-1.4019,0.1549,-0.1766,85,9.986,192,4.6631,-0.5629,-16.9548,0.9869,0.6099,-1.0439,75
10.357,199,10.8727,-2.3416,-16.2519,-0.4896,-0.868,-1.0846,76,9.642,186,-0.3219,2.5306,-12.906,-1.5735,0.1065,-0.2433,85,10.038,193,8.6691,-1.8252,-9.7903,0.7305,0.6157,-0.3547,75
10.408,200,11.6878,-1.4872,-15.1271,-0.1707,-0.2218,-0.8144,76,9.693,187,-0.0208,2.3488,-12.5132,-1.0763,-0.577,-0.5203,85,10.09,194,8.3052,4.0198,-15.1503,0.6546,0.586,-0.8666,75
10.46,201,7.2966,-0.2858,-13.2374,0.5195,0.5205,-0.185,76,9.745,188,4.9047,3.4411,-11.956,-0.8403,-1.0938,-1.0657,85,10.142,195,9.9153,3.5419,-15.0102,0.231,0.8577,-0.6946,75
10.512,202,3.0028,0.7912,-12.3221,0.075,-0.1025,-0.0047,76,9.797,189,8.4996,4.5909,-10.9757,-1.2933,-1.1853,-0.8176,85,10.194,196,12.5023,3.0999,-14.4026,-0.2427,0.2113,-0.0004,75
10.564,203,2.5073,-0.2413,-11.9814,-0.5155,-0.4855,0.2454,76,9.849,190,11.1232,4.4715,-10.5801,-1.624,-1.307,0.0681,85,10.245,197,9.6966,-1.1075,-15.4003,-0.3864,-0.1567,0.2864,75
10.615,204,1.4213,-0.6227,-11.4612,-0.2381,-0.2462,0.5182,76,9.901,191,9.2204,5.1794,-9.5199,-0.514,-0.5642,0.2896,85,10.297,198,9.1484,-0.3157,-13.7246,-0.8847,0.3969,0.8867,75
10.667,205,1.0288,-2.3364,-11.2376,-0.6475,-0.3244,0.8693,76,9.953,192,4.1866,5.9469,-9.3797,-0.2764,0.1505,-0.0527,85,10.349,199,6.643,-1.4466,-12.6029,-1.3209,-0.1332,1.3249,75
10.719,206,1.3495,-3.4511,-10.3964,-0.5841,-0.425,1.2924,76,10.004,193,3.0187,4.8567,-9.2833,-0.8818,-0.5628,-0.0483,85,10.401,200,5.9336,-0.3805,-12.6328,-1.6393,-0.6124,1.6447,75
10.771,207,6.0425,-7.0714,-13.2644,0.0349,-0.9795,1.6199,76,10.056,194,1.7457,3.9773,-9.1689,-0.3812,-0.0339,0.055,85,10.453,201,6.1316,0.5399,-9.199,-1.8717,-1.1097,1.414,75
10.823,208,9.4677,-6.6317,-15.6321,0.677,-0.6154,1.6107,76,10.108,195,0.3853,4.4574,-8.8676,-0.3692,-0.2147,-0.2328,85,10.505,202,9.1185,4.2752,-8.5957,-0.6895,-0.8428,0.3681,75
10.874,209,8.8335,-6.0283,-15.5741,1.1564,0.2313,0.8382,76,10.16,196,0.0556,4.4083,-8.0379,-0.3964,-0.2193,-0.7129,85,10.556,203,8.144,-2.1168,-11.4058,-1.0065,-0.4734,-0.2804,75
10.926,210,3.7995,-3.8952,-15.0138,1.5184,0.8513,0.6594,76,10.212,197,1.9969,7.1146,-8.2742,-0.9077,-0.8197,-1.2037,85,10.608,204,10.9885,2.5714,-10.8293,-0.6852,-0.118,-0.2652,75
10.978,211,1.4595,-2.8421,-13.7386,1.2222,-0.048,0.0215,76,10.263,198,6.3773,6.6497,-9.3008,-1.3425,-0.256,-1.0177,85,10.66,205,13.1687,0.6856,-11.6979,-1.0803,0.4164,0.3371,75
11.03,212,1.4205,-2.018,-12.7063,0.9347,-0.3782,-0.3426,76,10.315,199,9.5743,5.6704,-10.0017,-1.6599,-0.2622,-0.1378,85,10.712,206,12.0648,-0.2685,-9.896,-0.1119,0.3694,-0.3542,75
11.081,213,0.0418,-1.6375,-11.6224,0.5506,-0.1361,-0.4804,76,10.367,200,7.8522,4.4573,-9.232,-1.2637,0.1387,0.5522,85,10.764,207,13.4551,3.4277,-4.6385,0.5948,0.7691,-0.9326,75
11.133,214,-0.1792,-1.3259,-11.1419,0.7073,-0.521,-0.7484,76,10.419,201,3.9883,2.8564,-9.963,-1.0725,-0.0308,0.8578,85,10.815,208,10.3899,2.226,-6.0567,1.1107,0.4466,-1.3546,75
11.185,215,0.568,-1.4266,-10.319,0.3858,-0.6059,-0.6259,76,10.471,202,4.3366,1.0284,-9.9593,-0.1111,-0.5975,0.8909,85,10.867,209,7.6683,-0.292,-7.1845,1.4872,0.8655,-1.6627,75
11.237,216,5.4722,-4.3744,-15.5278,-0.3958,-0.0965,0.2198,76,10.523,203,3.0821,1.0624,-10.205,0.5907,0.1699,1.151,85,10.919,210,6.4161,-3.8116,-8.4587,1.5756,0.6653,-1.6923,75
11.289,217,9.0515,-5.2739,-16.8731,0.1809,-0.223,0.2721,76,10.574,204,1.8841,1.5106,-10.0798,1.1028,0.2571,1.2968,85,10.971,211,5.299,-2.6864,-9.4554,0.9551,0.6075,-0.9511,75
11.34,218,10.0934,-5.2253,-14.7714,-0.1741,0.3732,-0.2837,76,10.626,205,0.7964,1.9295,-9.3223,1.4766,0.5577,1.2535,85,11.022,212,6.1803,-1.8738,-11.1093,0.5638,0.9407,-0.9883,75
11.392,219,4.1705,-5.2602,-14.2332,-0.6626,0.9548,-0.2204,76,10.678,206,5.3161,4.5705,-8.9526,0.9175,-0.2657,1.0683,85,11.074,213,7.5333,0.3356,-13.3137,0.1916,0.4339,-0.269,75
11.444,220,2.6593,-5.104,-13.0159,-0.4644,0.0275,-0.8359,76,10.73,207,8.7998,5.2375,-9.9336,0.3585,-0.4764,1.2325,85,11.126,214,9.8175,0.7963,-12.6874,-0.5129,0.9951,0.4814,75
11.495,221,3.402,-4.9686,-12.6858,-0.0554,-0.0183,-0.8697,76,10.782,208,11.3424,4.3365,-10.7047,-0.2278,-0.5778,0.9707,85,11.178,215,8.9884,0.0878,-17.2647,-1.0496,0.8562,0.9428,75
11.547,222,1.7048,-4.4656,-11.791,0.3597,0.348,-0.3557,76,10.834,209,8.6955,2.7219,-10.1698,-0.5972,0.1742,0.4295,85,11.23,216,6.5904,-2.0254,-18.7022,-1.4412,-0.0425,1.0554,75
11.599,223,0.5694,-3.9273,-11.6615,-0.0522,0.2505,0.4053,76,10.885,210,3.5103,1.755,-10.9315,0.2316,0.8063,0.3743,85,11.281,217,5.1229,-2.3334,-14.6532,-0.3753,-0.7044,0.7825,75
11.651,224,2.4319,-4.7371,-11.1445,0.0801,-0.4865,0.9724,76,10.937,211,2.3226,1.3859,-10.6673,0.8408,-0.0842,0.1518,85,11.333,218,6.4877,-1.0333,-11.5162,-0.2273,-1.0552,1.1937,75
11.703,225,6.8325,-6.9015,-16.0733,0.3438,-0.4597,1.1467,76,10.989,212,2.2928,1.8884,-10.073,0.8953,0.0929,-0.1021,85,11.385,219,7.0816,0.1193,-7.812,-0.8411,-0.4466,1.5343,75
11.755,226,10.0443,-7.0429,-16.1135,0.3392,-0.4171,0.2933,76,11.041,213,0.6278,0.4392,-9.205,0.1658,0.109,-0.1175,85,11.437,220,10.4342,5.4389,-3.1175,-0.3295,0.0145,0.6603,75
11.807,227,7.473,-5.3987,-14.3719,0.7144,0.378,-0.3869,76,11.093,214,0.193,0.1567,-8.6894,0.0197,-0.0623,0.141,85,11.489,221,12.8811,2.3885,-7.0928,0.0347,-0.2356,0.2208,75
11.858,228,3.1598,-2.17,-13.4044,0.6323,-0.0249,-0.9223,76,11.144,215,5.0608,0.3847,-7.5732,-0.4508,-0.6194,0.4173,85,11.54,222,14.667,3.573,-8.7395,-0.6499,-0.661,0.5392,75
11.91,229,3.9272,-1.6586,-12.5711,-0.2159,-0.6866,-1.2073,76,11.196,216,8.6135,-0.3887,-10.9052,-0.8573,-0.327,0.3714,85,11.592,223,14.2069,4.4336,-7.4358,0.2022,-0.5408,0.0194,75
11.962,230,2.6227,-1.9427,-11.7015,-0.8094,0.0049,-1.0065,76,11.248,217,10.2656,-0.5299,-10.5948,-0.204,-0.4355,0.0921,85,11.644,224,11.0408,8.0436,-13.4319,0.5883,-0.0359,-0.6599,75
12.014,231,2.0101,-0.2577,-10.997,-1.2681,0.4276,-0.6998,76,11.3,218,5.8788,0.815,-10.2551,0.5228,0.3612,0.1838,85,11.696,225,9.8678,2.6293,-9.9663,0.1185,0.2335,-1.1102,75
12.066,232,1.4246,-1.8249,-10.7907,-1.6029,0.9488,-0.2414,76,11.352,219,2.7984,2.9983,-8.617,0.0967,-0.3534,0.0659,85,11.748,226,7.9039,2.2521,-12.5066,-0.1615,0.8488,-1.0412,75
12.117,233,6.0973,-4.5552,-11.8932,-1.7263,0.0232,-0.2236,76,11.403,220,2.9875,1.8311,-9.1796,-0.6095,-0.683,-0.1356,85,11.799,227,6.699,-2.0485,-12.2593,-0.2187,1.2978,-0.7114,75
12.169,234,9.5077,-5.4348,-15.5301,-0.603,0.0734,-0.6581,76,11.455,221,1.2549,0.973,-9.5738,-0.7608,0.1806,-0.0302,85,11.851,228,4.6577,1.5529,-16.9523,0.2886,0.3125,-0.9155,75
12.221,235,11.9968,-3.9967,-17.1445,0.1027,0.2219,-0.7119,76,11.507,222,-0.2815,0.1195,-10.2875,-0.6728,0.1199,0.1085,85,11.903,229,8.6651,-4.1037,-14.7605,-0.0086,-0.2543,-1.0851,75
12.272,236,10.3212,-3.8482,-14.9005,0.3354,0.8237,-0.6156,76,11.559,223,3.1889,-0.3377,-9.87,0.1329,-0.2517,-0.2153,85,11.955,230,10.5689,1.473,-14.1035,0.3618,0.1905,-1.2521,75
12.324,237,4.0387,-1.8412,-13.4869,0.9192,1.2836,-0.1733,76,11.611,224,7.2473,1.3152,-7.2646,0.2655,0.104,-0.4328,85,12.006,231,12.9794,4.6409,-12.0228,0.0094,-0.4522,-0.7669,75
12.376,238,3.1332,-0.8445,-12.313,0.5465,0.2675,-0.2343,76,11.663,225,10.2093,2.0697,-6.3738,-0.0277,0.0096,-0.3682,85,12.058,232,10.3862,-1.8499,-13.2736,-0.0957,-0.3896,-0.4818,75
12.428,239,3.4006,-1.1301,-11.4378,0.7929,0.0703,-0.0921,76,11.714,226,11.072,2.6328,-6.3937,-0.5053,-0.305,-0.0322,85,12.11,233,8.547,-2.1651,-17.172,0.2772,-0.4971,0.1329,75
12.48,240,1.2305,-0.9441,-10.7224,0.7179,0.3645,0.0138,76,11.766,227,6.9107,3.3443,-6.6037,0.1573,-0.206,0.0494,85,12.162,234,6.2112,-4.4915,-14.2306,-0.4729,-0.3649,0.7747,75
12.531,241,0.9401,-2.1606,-10.3697,0.4905,-0.0491,-0.109,76,11.818,228,4.1334,3.6838,-6.8831,-0.3863,-0.3088,-0.1611,85,12.213,235,6.0339,-1.3478,-13.4101,-1.0204,-0.3656,1.2432,75
12.583,242,2.6118,-3.1153,-10.1807,0.9921,-0.6538,-0.2879,76,11.87,229,2.6228,3.2132,-7.3971,-0.962,-0.4872,-0.3922,85,12.265,236,6.0316,0.7871,-11.8737,-1.4199,-0.779,1.5851,75
12.635,243,6.9638,-1.9723,-14.5506,0.9871,-0.3769,0.1612,76,11.922,230,1.5015,2.4435,-8.0535,-1.1244,-0.4933,-0.5635,85,12.317,237,6.4688,1.3849,-8.9545,-1.7116,-1.0585,1.1607,75
12.687,244,10.1401,-1.3232,-15.6646,0.8967,-0.2517,0.4137,76,11.973,231,0.9317,1.4497,-8.5162,-1.0966,-0.4708,-0.7168,85,12.369,238,8.6619,0.839,-8.2589,-0.5726,-1.1699,0.3348,75
12.738,245,9.6486,-0.7718,-13.9505,0.9107,0.4987,0.2277,76,12.025,232,0.6737,0.8713,-7.8746,-1.2912,-0.3111,-0.7525,85,12.421,239,10.5207,2.8268,-9.4007,-0.9332,-0.9272,-0.1656,75
12.79,246,3.325,-1.615,-13.2071,-0.0015,1.0464,0.5095,76,12.077,233,5.4116,1.4793,-6.6464,-1.2326,-0.3597,-0.6508,85,12.472,240,12.9442,2.0174,-12.6055,-1.1959,-0.4293,0.1879,75
12.842,247,1.9353,-1.7067,-12.4161,0.6213,0.0944,0.0532,76,12.129,234,8.8695,2.4902,-6.2582,-1.2197,-0.3007,-0.216,85,12.524,241,12.785,0.9834,-10.973,-1.1321,0.3634,0.5818,75
12.894,248,1.5572,-1.7723,-11.5418,0.4805,0.2932,-0.0812,76,12.18,235,11.3863,2.5955,-6.0876,-0.7569,-0.7397,0.2471,85,12.576,242,10.8405,-4.4243,-12.4364,-0.1498,0.5014,-0.2494,75
12.946,249,-0.5209,-2.4612,-10.8929,0.5835,0.2985,-0.058,76,12.232,236,7.3188,1.7572,-6.191,0.1028,-0.0164,0.3704,85,12.628,243,8.337,1.4381,-9.4639,0.5672,1.0443,-0.856,75
12.997,250,-0.4105,-3.0532,-10.2013,0.433,0.1651,0.1124,76,12.284,237,4.2853,1.661,-6.9485,0.6175,-0.409,0.1975,85,12.68,244,7.5112,-0.8607,-10.8888,1.0905,0.106,-1.2988,75
13.049,251,0.9479,-4.3757,-10.0918,0.2302,-0.4307,0.3435,76,12.336,238,3.6419,1.2064,-7.5944,0.6818,-0.0787,0.0044,85,12.731,245,5.8518,-2.3169,-10.611,1.4724,-0.0831,-1.6219,75
13.101,252,5.7494,-6.1189,-13.468,-0.2296,0.2567,0.9274,76,12.388,239,2.4164,0.6042,-8.3173,0.3708,0.0345,-0.0748,85,12.783,246,4.3579,-6.3889,-8.7052,0.3994,0.1231,-0.5624,75
13.153,253,9.2538,-6.0429,-15.0212,0.5068,-0.1442,0.7552,76,12.44,240,0.8937,0.4097,-8.6739,0.5951,0.3618,-0.1941,85,12.835,247,8.4463,-7.727,-12.9543,0.5233,-0.4502,-0.1287,75
13.205,254,9.5361,-4.7619,-12.5173,0.5552,0.3004,0.289,76,12.491,241,0.8207,0.6261,-7.8007,1.0172,0.2518,-0.3195,85,12.887,248,11.4303,-5.9423,-12.7481,0.863,-0.2124,-0.3472,75
13.256,255,1.4546,-4.3517,-12.1391,0.4428,0.9017,0.0149,76,12.543,242,5.5189,2.04,-8.763,0.2087,-0.1546,0.1427,85,12.939,249,13.3582,-1.8565,-15.2795,-0.0454,-0.225,-0.0006,75
13.308,256,2.1642,-4.8131,-11.8632,0.3343,-0.0112,-0.5476,76,12.595,243,8.9478,2.7086,-7.8588,0.0056,-0.1246,0.5787,85,12.99,250,13.051,-2.868,-15.0344,-0.6769,0.5142,0.6773,75
13.36,257,1.1198,-4.8834,-10.9872,0.8538,0.494,-0.4889,76,12.647,244,11.4394,2.4003,-7.8728,0.6116,-0.1661,0.8021,85,13.042,251,8.6663,-2.8926,-18.9776,-1.1693,0.9697,0.912,75
13.412,258,-0.1544,-5.9617,-10.5839,1.2948,-0.1973,-0.4675,76,12.699,245,7.6972,2.6395,-7.9003,0.961,0.5089,1.0462,85,13.094,252,5.2917,-7.3482,-18.6693,-1.272,0.0822,0.9665,75
13.464,259,0.4345,-6.3102,-9.7388,1.5563,-0.2292,0.13,76,12.751,246,4.1834,2.7796,-8.6738,1.1828,0.0919,0.9055,85,13.146,253,5.0505,-4.9105,-18.241,-0.2518,-0.6134,1.1279,75
13.515,260,4.6042,-8.4805,-10.6734,1.5653,-0.8366,0.6594,76,12.802,247,3.4198,1.8799,-9.4185,1.1087,0.1643,0.5097,85,13.197,254,4.7251,-2.4576,-15.7862,0.1918,-0.2394,1.3959,75
13.567,261,8.418,-8.6899,-14.2561,1.8111,0.0035,1.1579,76,12.854,248,1.4627,0.5131,-9.4633,1.1005,0.1744,0.2588,85,13.249,255,5.7103,3.0645,-8.9997,-0.5352,0.2495,1.6965,75
13.619,262,11.2014,-6.6119,-15.1875,1.9821,0.2534,0.7726,76,12.906,249,0.9472,0.0357,-9.3937,1.4578,0.0688,0.2874,85,13.301,256,9.4334,7.5885,-3.9843,-0.3148,-0.4589,0.7955,75
13.671,263,8.9026,-4.3194,-14.3276,2.121,0.6957,0.418,76,12.958,250,0.7928,0.3673,-8.2464,1.4917,-0.1217,0.397,85,13.353,257,12.1507,4.9806,-6.7976,-0.1224,-0.4772,0.7352,75
13.722,264,5.8729,-1.5456,-13.3453,0.9139,0.6257,0.1883,76,13.01,251,5.4985,1.4794,-7.8562,0.4087,0.0069,0.865,85,13.405,258,14.1338,8.5768,-3.8164,-0.7645,-0.8059,0.8549,75
13.774,265,4.1915,-0.8558,-12.7138,-0.0103,0.647,-0.2164,76,13.061,252,8.933,-0.6737,-9.3135,0.4147,-0.3743,0.4755,85,13.457,259,13.5594,5.6591,-4.8586,0.1185,-0.5416,0.0921,75
13.826,266,2.6516,-0.7315,-11.8087,-0.6402,0.6908,-0.7004,76,13.113,253,9.6661,-1.1295,-9.3907,-0.3561,-0.5188,0.2539,85,13.508,260,10.8948,7.0433,-7.2304,0.6506,0.2394,-0.6068,75
13.878,267,1.2871,-0.9964,-9.9642,-1.1446,1.1669,-0.862,76,13.165,254,5.3431,0.7616,-7.6246,0.1068,0.3004,0.3873,85,13.56,261,8.996,3.3414,-8.4704,-0.2004,0.2745,-0.6812,75
13.93,268,0.4404,-3.1349,-8.9488,-1.5128,1.255,-0.7972,76,13.217,255,3.0289,3.1972,-6.5326,-0.0466,-0.4143,0.3113,85,13.612,262,7.3938,0.3202,-10.0464,0.1398,0.8779,-1.0439,75
13.981,269,3.8546,-5.907,-9.5624,-1.4749,0.2467,-0.9569,76,13.269,256,3.1306,3.3064,-6.3876,-0.4453,-0.0718,-0.0713,85,13.664,263,5.5674,-1.8602,-11.4949,0.7786,1.1763,-1.3745,75
14.033,270,7.8708,-8.8576,-13.9373,-1.2877,0.5497,-1.0641,76,13.32,257,1.3417,3.097,-6.9013,-0.3716,0.573,-0.514,85,13.716,264,2.9803,3.9942,-16.3944,0.6496,0.3003,-1.6772,75
14.085,271,10.8021,-8.4882,-14.5078,-1.2766,0.4061,-1.1229,76,13.372,258,0.9401,2.9026,-7.7847,-0.6196,0.5122,-0.8557,85,13.767,265,7.4409,5.2022,-15.7138,0.8554,-0.4542,-1.2335,75
14.137,272,7.5549,-6.4569,-12.9462,-1.2196,0.9788,-1.0725,76,13.424,259,3.4381,3.2236,-8.4799,-0.8552,0.161,-1.0519,85,13.819,266,8.277,5.859,-17.0209,1.0601,-0.0702,-0.7831,75
14.189,273,1.6469,-3.6442,-12.4667,-1.1066,0.924,-1.1708,76,13.476,260,7.4291,2.3069,-9.7348,-1.3042,0.1767,-1.1105,85,13.871,267,11.3066,6.0403,-15.4973,0.4914,-0.1005,-0.1952,75
14.24,274,1.6384,-3.1614,-12.3155,-1.485,0.005,-1.1958,76,13.528,261,10.342,0.0573,-10.0693,-1.6319,0.0084,-1.0018,85,13.923,268,11.2731,2.3008,-16.4012,-0.1935,-0.6476,0.2282,75
14.292,275,1.3305,-3.8244,-11.6138,-1.4465,0.4654,-0.7384,76,13.579,262,10.0756,0.1023,-8.8616,-0.5193,-0.1313,-0.7128,85,13.975,269,8.8692,0.4873,-16.8612,-0.8165,-0.5874,0.8443,75
14.344,276,-0.4412,-3.6904,-11.0547,-1.4865,0.5308,-0.3935,76,13.631,263,5.7415,2.1451,-8.4489,0.2927,0.3342,-0.168,85,14.026,270,6.9422,-1.8018,-14.9747,-1.2711,-0.7888,1.2939,75
14.396,277,-0.118,-4.4736,-10.5125,-1.7084,0.0497,-0.1147,76,13.683,264,5.1555,3.749,-7.9827,0.1359,0.1768,-0.1856,85,14.078,271,6.109,-0.5614,-14.8809,-1.6029,-1.083,1.6221,75
14.447,278,4.9715,-6.0409,-13.1894,-1.3023,-0.633,0.0938,76,13.735,265,2.919,4.0272,-7.9092,-0.3434,-0.2223,-0.4118,85,14.13,272,6.7814,-0.6514,-13.0073,-1.8451,-1.4638,1.8616,75
14.499,279,8.686,-6.3445,-15.5297,-0.4962,-0.5651,0.3876,76,13.787,266,1.5165,3.6662,-8.1456,-0.6435,-0.1682,-0.7273,85,14.182,273,4.5968,-0.7328,-6.9093,-2.0219,-1.058,1.7412,75
14.551,280,9.1699,-5.5587,-14.0905,0.2591,0.2684,0.1277,76,13.838,267,0.9913,3.7689,-8.0441,-0.6671,-0.1546,-1.1763,85,14.234,274,8.6207,-5.7719,-7.1913,-0.7991,-1.3626,1.4392,75
14.603,281,2.3258,-5.2917,-13.1701,0.3961,0.8783,0.224,76,13.89,268,2.6395,4.5952,-7.1274,-0.5447,-0.3024,-1.5449,85,14.285,275,11.5575,-1.8761,-7.4137,-1.2448,-1.2448,1.2604,75
14.655,282,1.0503,-5.0324,-12.3079,0.7543,-0.0283,-0.1619,76,13.942,269,6.8463,5.2437,-8.2049,-0.7752,-0.3063,-1.5048,85,14.337,276,12.4835,-1.4953,-7.3685,-0.7056,-0.7401,1.231,75
14.706,283,1.6149,-4.0304,-12.0596,1.1237,-0.2109,-0.2334,76,13.994,270,9.9166,3.7919,-8.0646,-1.2458,-0.8531,-0.6508,85,14.389,277,11.5005,-1.0274,-10.9132,0.1616,-0.4968,0.2253,75
14.758,284,0.6649,-3.7542,-11.8972,1.1634,0.2637,-0.0073,76,14.046,271,8.0007,2.3933,-8.1046,-0.5201,-0.5752,-0.1187,85,14.441,278,9.0804,1.6192,-8.4749,0.1743,0.3158,-0.5096,75
14.81,285,0.1153,-2.6301,-11.5395,1.1447,0.1932,0.3468,76,14.097,272,4.275,1.8627,-8.6492,0.2921,0.2578,0.0802,85,14.492,279,8.338,-1.683,-7.9633,0.7904,0.8535,-1.0459,75
14.862,286,1.9503,-4.2625,-10.8199,0.1581,-0.4768,0.9297,76,14.149,273,2.7723,1.845,-8.7921,0.4508,-0.245,0.1801,85,14.544,280,7.8213,-2.9022,-9.1706,1.2534,0.9157,-1.4374,75
14.914,287,6.481,-7.2868,-15.8934,0.7627,-0.3081,1.3552,76,14.201,274,2.4629,1.4064,-9.0084,0.3161,-0.0468,0.3454,85,14.596,281,6.7401,-5.635,-7.8897,1.5913,0.8372,-1.7231,75
14.965,288,9.7877,-7.3243,-15.7308,0.9739,-0.6125,0.8649,76,14.253,275,0.4199,1.4611,-9.2969,0.7334,0.4308,0.4388,85,14.648,282,9.6099,-9.3497,-13.7631,0.9033,0.4098,-1.3395,75
15.017,289,9.5111,-6.8691,-13.2886,1.0,-0.047,-0.0439,76,14.305,276,-0.1666,3.0135,-8.9104,1.207,0.2466,0.3692,85,14.7,283,9.3579,-1.4719,-11.5024,1.0055,0.5145,-1.4367,75
15.069,290,3.4256,-4.9949,-12.5373,0.4483,0.6481,-0.1297,76,14.357,277,4.7983,5.1797,-9.8409,1.2607,0.7396,0.6065,85,14.751,284,12.0956,-1.428,-11.6983,0.0586,0.5022,-0.7375,75
15.121,291,2.1164,-4.2957,-11.39,-0.3502,-0.1963,-0.7402,76,14.408,278,8.4219,7.5386,-10.0358,1.2605,0.4206,0.8325,85,14.803,285,11.9318,-3.9146,-13.6985,-0.4298,1.0449,0.1395,75
15.173,292,1.4632,-4.7078,-10.8527,-0.5243,-0.0955,-0.9355,76,14.46,279,11.0666,7.3625,-10.4134,0.4957,0.1586,1.1142,85,14.855,286,7.9769,0.3671,-18.0027,-0.9889,0.6828,0.7795,75
15.224,293,-0.0946,-4.9209,-10.1897,0.1263,-0.3235,-0.6152,76,14.512,280,7.7359,5.7645,-11.0067,-0.3183,0.7948,1.4478,85,14.907,287,8.0447,-2.7269,-14.7959,-1.2446,-0.1751,0.6744,75
15.276,294,-0.5227,-5.7211,-9.818,-0.1768,-0.1728,0.1225,76,14.564,281,1.7894,3.8472,-11.6692,-0.566,0.1627,0.9578,85,14.959,288,7.1372,-2.2867,-14.1898,-0.2318,-0.8012,0.4441,75
15.328,295,2.1062,-9.3732,-10.4987,0.416,-0.7955,0.4575,76,14.616,282,2.7223,3.3314,-11.5607,-0.0779,-0.5539,0.4007,85,15.01,289,6.7974,-2.6652,-10.0106,-0.0968,-0.4376,0.9468,75
15.379,296,6.5948,-10.7789,-14.207,0.8855,-0.239,0.5325,76,14.667,283,1.5132,3.0205,-11.0001,-0.2722,0.249,0.2023,85,15.062,290,7.0534,-3.031,-4.8354,-0.7459,0.1649,1.3687,75
15.431,297,9.2696,-10.5738,-14.0991,1.0061,-0.4288,-0.1207,76,14.719,284,-0.154,2.7036,-10.033,-0.4852,0.2814,-0.0303,85,15.114,291,10.4136,-3.2819,-3.0047,0.0209,-0.499,0.7279,75
15.483,298,6.1087,-4.9332,-13.0069,1.4087,0.3695,0.1091,76,14.771,285,0.8668,2.2596,-8.6627,-0.8927,-0.4673,-0.2146,85,15.166,292,12.8661,-4.1511,-6.9641,-0.1585,-0.2037,0.3825,75
15.535,299,2.5615,-1.7015,-12.4544,0.3546,-0.2197,-0.3769,76,14.823,286,5.5525,2.6338,-9.4009,-0.9577,0.0103,-0.2902,85,15.218,293,12.4445,-0.1439,-5.3095,-0.5587,0.342,0.7748,75
15.587,300,3.7267,-1.0783,-11.7627,-0.4179,-0.5912,-0.8939,76,14.875,287,8.9724,1.394,-10.5552,-1.2168,-0.1367,-0.2949,85,15.269,294,12.2501,0.0144,-9.0221,0.2687,0.8056,-0.0275,75
15.638,301,2.0,-1.25,-11.3418,-0.6784,0.2509,-0.9199,76,14.926,288,7.4554,1.0312,-9.3808,-0.2232,0.0451,0.1005,85,15.321,295,8.4577,2.2419,-8.7676,-0.4266,1.1527,-0.6852,75
15.69,302,0.7858,-2.2075,-10.3524,-1.1725,0.2343,-0.9948,76,14.978,289,3.3687,3.1243,-8.9975,0.5088,0.712,0.5846,85,15.373,296,8.1226,0.3976,-8.5472,-0.9549,1.0631,-0.9235,75
15.742,303,0.935,-5.0148,-9.8743,-1.1832,0.6338,-0.3965,76,15.03,290,1.8523,4.7421,-8.7466,-0.3071,-0.1505,0.8252,85,15.425,297,6.5531,-1.4643,-9.4175,-0.9424,1.4543,-0.9601,75
15.794,304,5.74,-8.8578,-12.72,-0.8885,-0.2067,-0.3443,76,15.082,291,2.44,3.5252,-8.4438,-0.5244,-0.3124,0.4517,85,15.477,298,4.8647,-1.8554,-12.3951,-0.3176,1.2554,-1.2536,75
15.845,305,9.2469,-11.6625,-15.1171,-0.0565,-0.0749,-0.5447,76,15.134,292,0.8422,3.4744,-8.819,-0.3095,0.4511,0.0317,85,15.528,299,3.552,-6.5912,-17.0514,-0.0963,0.4828,-1.2619,75
15.897,306,10.795,-8.8947,-14.5398,0.5649,-0.0021,-0.8413,76,15.185,293,-0.4865,4.1566,-9.0484,-0.3248,0.141,-0.2346,85,15.58,300,3.6405,0.2865,-13.459,-0.7455,0.7412,-1.3771,75
15.949,307,6.2499,-3.4889,-13.8223,1.0866,0.6809,-0.4916,76,15.237,294,4.5648,2.773,-8.2433,-0.8597,-0.4484,-0.7695,85,15.632,301,6.566,1.3277,-13.5948,-0.701,1.0926,-1.3458,75
16.001,308,3.9164,-1.2022,-13.53,0.2726,-0.1724,-1.0112,76,15.289,295,8.2515,0.8714,-9.8438,-1.3075,-0.3223,-1.1348,85,15.684,302,10.0579,0.6998,-12.2408,-0.9139,1.332,-0.3536,75
16.053,309,6.3902,-0.8094,-13.1232,-0.4784,-0.4315,-0.8883,76,15.341,296,10.9422,-1.0827,-9.2745,-1.4456,-0.4246,-1.163,85,15.735,303,10.7488,0.7363,-15.1673,-1.327,0.4319,0.2865,75
16.105,310,2.9689,-0.4104,-12.0655,-1.0265,0.3675,-0.7538,76,15.393,297,9.003,-0.7512,-8.2995,-0.6267,0.143,-0.4841,85,15.787,304,7.4283,0.0133,-15.1893,-1.6437,0.6866,0.8851,75
16.157,311,1.3789,-2.3832,-11.3467,-1.4266,-0.4006,-0.8015,76,15.444,298,3.7987,1.9946,-7.8607,0.2144,0.305,0.242,85,15.839,305,6.2325,-2.2791,-16.0423,-1.4663,-0.1723,1.2453,75
16.208,312,2.4953,-3.0968,-10.0599,-0.3668,-0.3786,-0.4314,76,15.496,299,3.4068,2.6273,-7.4931,-0.175,-0.3909,0.3844,85,15.891,306,6.6462,-1.1478,-14.828,-0.6607,-0.7991,1.5333,75
16.26,313,6.8788,-4.0738,-12.1008,0.0083,-0.9457,-0.0225,76,15.548,300,1.7867,3.7429,-8.0117,-0.5187,0.2726,0.0342,85,15.943,307,6.6195,1.485,-12.4974,-0.5425,-1.2566,1.691,75
16.312,314,10.0781,-4.2034,-15.6423,0.339,-0.3083,0.5677,76,15.6,301,-0.0514,2.1153,-8.7499,-0.3907,0.3357,-0.1514,85,15.995,308,6.6547,5.2215,-7.0205,-0.555,-1.0187,1.0179,75
16.364,315,11.4204,-3.2323,-15.9164,0.6127,0.4336,0.5736,76,15.652,302,-0.8759,2.8381,-8.6003,0.0087,0.095,-0.3671,85,16.046,309,10.1226,2.7977,-9.7868,0.2715,-1.2939,1.1721,75
16.415,316,6.0796,-3.2211,-15.3202,0.7692,0.9989,0.8937,76,15.704,303,1.4197,4.7944,-6.3993,0.1173,-0.6018,-0.7054,85,16.098,310,12.3224,4.1105,-10.2376,-0.1364,-0.4407,0.6635,75
16.467,317,1.8182,-1.5462,-14.0746,1.0086,0.0726,0.3808,76,15.756,304,5.956,4.7964,-7.8665,-0.2782,-0.3828,-0.6883,85,16.15,311,14.2592,2.6581,-9.817,-0.5874,0.0694,1.113,75
16.519,318,2.4887,-1.3914,-13.3949,0.6316,-0.6163,-0.2031,76,15.807,305,9.2669,3.7864,-7.3545,-0.8831,-0.8925,-0.1204,85,16.202,312,14.5798,0.2396,-11.4933,0.2478,0.2451,0.1383,75
16.571,319,1.2883,-1.1274,-12.3107,0.5729,0.2326,-0.0978,76,15.859,306,6.8812,1.5775,-6.9286,-0.4449,-0.5171,-0.0362,85,16.254,313,11.3865,4.2299,-11.5592,0.8574,0.7659,-0.5731,75
16.623,320,0.1301,-0.5098,-11.3078,0.3849,-0.0853,-0.254,76,15.911,307,3.0487,0.806,-7.9478,0.347,0.262,0.1632,85,16.306,314,9.4304,1.8936,-10.305,0.3768,0.2102,-1.0539,75
16.674,321,0.5464,-0.9074,-10.3835,-0.3004,-0.2168,-0.1689,76,15.963,308,2.4321,0.6771,-8.4723,0.925,-0.4814,0.3749,85,16.357,315,7.8304,-0.2531,-10.4194,-0.2602,0.7511,-1.3145,75
16.726,322,5.4564,-1.3828,-11.6909,-0.3777,-0.8276,0.134,76,16.014,309,1.4367,1.4692,-8.2193,0.5454,0.0938,0.5207,85,16.409,316,6.627,-1.5892,-11.0674,0.4354,0.5372,-1.5214,75
16.778,323,9.0399,-0.7744,-13.723,0.0746,-1.1326,-0.0033,76,16.066,310,0.1025,1.4054,-8.1583,0.3927,0.0089,0.5262,85,16.461,317,5.9389,4.192,-16.0824,-0.0142,-0.2348,-1.7844,75
16.83,324,11.6553,-0.9985,-14.6476,0.2162,-0.6634,-0.6401,76,16.118,311,-0.4412,1.4356,-8.0051,0.3083,0.0142,0.5479,85,16.513,318,7.0751,3.6782,-15.2603,-0.4084,-0.3089,-1.5077,75
16.881,325,8.5049,-1.4567,-12.7487,0.3468,0.1982,-0.7281,76,16.17,312,4.5971,2.6649,-8.4389,0.2242,-0.6602,-0.0907,85,16.564,319,7.3791,3.1062,-17.4526,-0.1944,-0.2044,-0.8597,75
16.933,326,0.6749,0.8249,-13.2445,0.2308,0.3356,-0.3646,76,16.221,313,8.275,3.5884,-9.4197,0.0243,-0.4397,-0.1873,85,16.616,320,10.6513,1.1118,-14.8606,-0.5341,0.5291,0.0162,75
16.985,327,1.5801,0.3705,-12.5779,-0.509,-0.4244,-0.5146,76,16.273,314,10.9594,1.9721,-10.2169,-0.6063,-0.6747,-0.039,85,16.668,321,11.0461,-0.7049,-17.7887,-0.7017,0.671,0.4415,75
17.037,328,0.9721,-0.4667,-12.0888,-0.4702,0.2,-0.0766,76,16.325,315,8.4093,2.2709,-9.0793,0.1584,0.0441,0.2333,85,16.72,322,8.872,-1.7284,-14.7543,-1.1873,0.5016,1.0,75
17.089,329,-0.3065,0.3486,-10.4781,-0.2753,0.118,-0.1833,76,16.377,316,2.0016,3.2816,-9.0574,0.4871,0.4473,0.7907,85,16.772,323,8.4294,-1.3737,-13.1563,-1.5418,-0.3073,1.4076,75
17.14,330,0.1442,0.4711,-10.1104,-0.6893,-0.5052,-0.6421,76,16.429,317,2.2735,4.2063,-8.766,0.2361,-0.3462,0.8522,85,16.823,324,7.5179,-2.1723,-10.9361,-1.8005,-0.8064,1.705,75
17.192,331,5.1628,-1.8835,-11.956,-1.0695,-0.9336,-0.6798,76,16.48,318,1.8186,4.0497,-8.2885,-0.5077,0.38,0.6377,85,16.875,325,7.5211,-0.5367,-8.2165,-1.9893,-1.1767,1.9221,75
17.244,332,8.8257,-3.0697,-16.2814,-0.4553,-0.3551,-0.5453,76,16.532,319,0.2287,3.4507,-8.1621,-0.6991,0.5719,0.1566,85,16.927,326,7.3664,1.9897,-4.4397,-0.7874,-1.4307,0.8382,75
17.296,333,11.499,-0.7294,-16.9043,-0.2624,0.1337,0.1814,76,16.584,320,0.0385,3.1432,-7.5835,-0.7691,0.544,-0.2633,85,16.979,327,10.6421,-3.7849,-0.6563,0.1019,-1.407,0.9885,75
17.348,334,8.8526,-1.5129,-14.9754,-0.3071,0.78,0.5105,76,16.636,321,0.3633,3.9698,-7.1135,-0.5494,0.282,-0.8008,85,17.031,328,11.2622,-1.5884,-3.9795,-0.0859,-1.1335,0.7769,75
17.399,335,2.0144,-1.3919,-13.4404,0.1564,1.2314,0.5,76,16.688,322,5.185,4.0456,-9.2871,-0.888,0.8258,-1.2691,85,17.082,329,13.4854,-0.4173,-5.9961,-0.7031,-0.6798,1.0402,75
17.451,336,0.8856,-1.7614,-12.5783,0.1181,0.236,0.1776,76,16.74,323,8.7042,2.6678,-10.1829,-1.3281,0.2007,-0.6984,85,17.134,330,13.7514,-1.513,-7.1372,0.0654,-0.4125,0.2898,75
17.503,337,-0.4594,-2.3031,-12.1723,0.6853,0.42,0.0453,76,16.792,324,9.7019,1.2825,-10.1451,-1.1058,-0.4663,-0.077,85,17.186,331,11.3831,-1.9252,-10.6928,0.7243,0.0321,-0.4625,75
17.555,338,-1.4073,-1.9917,-11.8461,1.0976,0.0391,0.0131,76,16.843,325,6.2759,1.4047,-9.476,-0.1353,0.3387,-0.1648,85,17.238,332,8.7621,0.1303,-8.4689,1.2052,0.6171,-1.0116,75
17.607,339,-1.0764,-2.0305,-11.6674,1.016,-0.1517,0.1626,76,16.895,326,3.4343,1.2092,-9.0652,0.573,0.2862,-0.2882,85,17.29,333,7.8403,0.9046,-9.9181,1.0898,-0.0742,-1.4123,75
17.658,340,0.9162,-2.7787,-11.7366,0.8633,-0.7588,0.2786,76,16.947,327,3.1299,0.8921,-8.4214,0.1601,0.0222,-0.2787,85,17.341,334,6.8945,-1.0634,-8.7491,0.7549,0.4832,-1.7048,75
17.71,341,5.7263,-4.5739,-16.5624,0.2773,-0.5662,0.88,76,16.999,328,1.8222,0.1285,-7.8781,0.2169,0.3447,-0.1624,85,17.393,335,5.2411,-2.0272,-13.4708,1.2275,0.2106,-1.8471,75
17.762,342,9.2369,-5.5992,-17.7134,0.6387,-0.573,1.3189,76,17.051,329,0.3565,-0.0377,-7.003,0.83,0.9306,-0.0966,85,17.445,336,3.4167,-5.4782,-16.5575,1.132,0.0671,-1.6873,75
17.814,343,10.244,-4.9601,-15.0828,0.7053,-0.1194,0.9627,76,17.103,330,-0.3817,2.6806,-6.4075,1.2775,0.4947,0.1156,85,17.497,337,7.7046,-1.6876,-14.7134,0.8157,-0.2599,-1.2957,75
17.866,344,5.1119,-4.0415,-12.8352,1.1367,0.5952,1.1276,76,17.154,331,4.6413,4.4653,-6.252,0.2524,0.5198,-0.0701,85,17.549,338,8.0695,-2.0748,-16.6266,0.5916,-0.1044,-0.6054,75
17.917,345,1.4156,-3.0526,-12.3353,0.6388,-0.2349,0.3105,76,17.206,332,8.3073,6.7737,-5.9143,-0.4958,0.2358,0.191,85,17.6,339,9.4859,0.0697,-15.6838,0.1535,0.6021,0.1748,75
17.969,346,1.9275,-3.3198,-12.1541,0.5955,-0.5371,-0.2766,76,17.258,333,10.9829,5.3222,-7.7032,-1.0419,-0.1718,0.4249,85,17.652,340,12.0741,-2.5809,-18.7022,-0.2081,0.5174,0.717,75
18.021,347,0.3874,-2.6224,-11.5992,1.109,-0.2368,-0.2732,76,17.31,334,8.8669,3.0394,-7.8772,-0.6996,-0.1236,0.367,85,17.704,341,8.5881,-2.5361,-18.0464,-0.8271,0.247,1.2011,75
18.073,348,-0.0808,-2.7524,-11.3622,0.8274,-0.6311,0.0245,76,17.362,335,4.8279,1.967,-9.0731,0.1612,0.5889,0.2558,85,17.756,342,7.6422,-2.6969,-16.1677,-1.2072,-0.4931,1.3639,75
18.125,349,1.7,-4.8516,-10.2603,0.6574,-0.6326,0.6816,76,17.413,336,2.2962,1.8733,-9.4362,0.7894,-0.1825,0.3825,85,17.808,343,6.7516,-1.5544,-12.6311,-0.9665,-0.8368,1.3051,75
18.176,350,4.9976,-8.6602,-10.1536,1.1495,-1.057,1.1741,76,17.465,337,2.4208,2.049,-9.4665,1.0555,-0.7736,0.3134,85,17.859,344,5.7596,-1.3791,-8.4552,-1.3806,-1.0057,1.6218,75
18.228,351,8.7051,-10.0516,-12.4377,1.5133,-0.3399,1.2971,76,17.517,338,0.7757,1.5546,-9.2666,0.4559,-0.0419,0.3166,85,17.911,345,4.6725,1.0007,-13.0199,-1.6828,-0.9056,1.8614,75
18.28,352,10.3582,-9.698,-11.5734,1.4068,-0.5263,0.7191,76,17.569,339,-0.5719,1.1926,-8.7779,0.6755,-0.3311,0.5124,85,17.963,346,6.3415,-1.1964,-17.4933,-0.7363,-0.9927,1.4795,75
18.332,353,7.218,-6.1178,-10.9962,1.3289,0.2983,0.4904,76,17.621,340,1.3131,1.8648,-7.7377,0.7231,-0.9143,0.6393,85,18.015,347,9.3494,0.6652,-16.5118,-0.8994,-0.3289,0.905,75
18.384,354,2.905,-2.7196,-10.5598,0.4559,0.7833,-0.0655,76,17.672,341,5.8783,1.4212,-9.8611,0.3681,-0.4177,0.7394,85,18.067,348,12.0894,3.6949,-12.4496,-0.4758,-0.7206,0.9293,75
18.435,355,2.119,-1.3855,-10.1048,-0.1955,0.3731,-0.7229,76,17.724,342,9.2101,0.68,-11.2932,-0.4113,-0.3941,0.8273,85,18.118,349,11.4266,2.9176,-12.3681,0.3293,-0.5358,0.0451,75
18.487,356,-0.2066,-1.893,-10.3583,-0.82,-0.259,-1.2027,76,17.776,343,9.0315,0.7425,-10.2995,0.3715,0.1825,0.4161,85,18.17,350,10.5783,4.6251,-9.8228,0.9168,0.1916,-0.6411,75
18.539,357,0.6623,-1.0789,-8.807,-0.8822,0.4373,-1.2595,76,17.828,344,0.9216,4.7541,-8.7619,0.1186,0.8123,0.5236,85,18.222,351,9.1474,1.2699,-8.6153,0.3141,0.0249,-0.977,75
18.591,358,-0.4227,-1.204,-8.1664,-0.9696,1.0016,-1.1041,76,17.88,345,0.8052,5.3906,-8.6643,-0.3308,-0.0798,0.7077,85,18.274,352,8.1827,-1.0252,-9.1726,0.3336,0.6965,-0.7961,75
18.643,359,4.4804,-4.3579,-9.2358,-1.3851,0.2664,-0.7846,76,17.932,346,1.4513,5.6506,-9.1685,-0.8487,0.6139,0.2826,85,18.326,353,7.1946,-1.5278,-9.9766,-0.08,1.1834,-0.2022,75
18.694,360,8.3276,-5.9378,-12.5411,-1.0687,-0.0525,-1.0536,76,17.983,347,-0.4982,3.1837,-12.1181,-1.2995,1.1271,-0.2637,85,18.377,354,4.0728,4.2369,-15.2862,-0.7091,0.4558,-0.7262,75
18.746,361,11.1354,-6.8639,-14.5984,-0.7102,-0.2149,-1.444,76,18.035,348,-1.4019,3.1059,-13.3737,-1.6284,0.1548,-0.2557,85,18.429,355,8.2383,3.6625,-8.9701,-0.215,-0.3408,-0.1332,75
18.798,362,12.8793,-6.9184,-13.1509,-0.3592,-0.4072,-1.729,76,18.087,349,-0.2361,2.0125,-13.0698,-1.8528,-0.5597,-0.2608,85,18.481,356,7.5336,4.7671,-14.497,0.3831,-0.0003,-0.5373,75
18.85,363,9.2747,-5.9129,-10.7614,-0.1191,0.3852,-1.5503,76,18.139,350,4.7476,2.8891,-11.5609,-1.1289,0.1453,-0.8767,85,18.533,357,10.7555,4.9081,-12.1654,0.3722,0.0966,-0.3899,75
18.902,364,2.7651,-4.8306,-10.2828,-0.7404,0.9482,-1.0249,76,18.191,351,8.3849,1.6146,-11.384,-1.504,0.7188,-1.3262,85,18.585,358,13.1156,3.9573,-11.2481,0.2338,0.5286,0.0731,75
18.953,365,2.1175,-4.9528,-10.4488,-0.5939,0.0227,-0.5409,76,18.242,352,11.0395,0.2457,-10.9985,-0.6953,1.1586,-1.1224,85,18.636,359,13.3526,-2.3489,-14.447,0.6111,0.0897,0.1883,75
19.005,366,2.5658,-3.6827,-10.0751,0.1592,-0.1164,0.022,76,18.294,353,7.9332,1.2062,-11.0383,0.1642,1.5247,-0.2635,85,18.688,360,9.0643,-2.3796,-17.2716,-0.2292,-0.0443,0.8151,75
19.057,367,1.7639,-2.6359,-9.3615,-0.363,0.0889,0.6927,76,18.346,354,2.5585,2.7169,-11.8247,0.7916,1.7919,0.4674,85,18.74,361,7.71,-2.1711,-15.6064,-0.8425,-0.7057,1.2727,75
19.109,368,3.5346,-4.0187,-9.162,-0.9423,-0.4881,1.1822,76,18.398,355,0.4129,2.7138,-10.6807,0.3629,0.6351,0.8714,85,18.792,362,6.196,-2.3812,-13.5604,-1.2901,-1.1885,1.6066,75
19.161,369,7.6373,-6.3302,-14.0055,-0.066,-0.9579,1.5395,76,18.45,356,-0.0172,2.4686,-9.0403,-0.4151,-0.2091,1.1506,85,18.844,363,6.9049,0.6556,-10.009,-0.9806,-1.2185,1.5647,75
19.212,370,10.5395,-6.7269,-14.852,0.1302,-0.4535,0.6062,76,18.501,357,-0.3897,1.1629,-8.162,-0.8085,-0.6286,1.3635,85,18.895,364,9.1616,-1.2824,-9.2963,-0.0744,-1.2019,0.5177,75
19.264,371,9.6718,-6.7885,-14.1272,0.0988,0.1093,-0.2327,76,18.553,358,0.0277,1.8332,-8.1216,-0.6767,-0.843,1.6605,85,18.947,365,11.9523,-1.8627,-10.5205,-0.5601,-1.3,-0.2849,75
19.316,372,5.5562,-5.885,-12.9017,-0.3225,0.7622,-0.7037,76,18.605,359,3.9572,4.7161,-12.4078,-1.1431,-1.2871,1.4866,85,18.999,366,13.989,0.7604,-13.1206,-0.3004,-1.2529,0.3723,75
19.368,373,2.1039,-5.0048,-10.7234,-0.4829,0.0322,-1.1876,76,18.657,360,7.808,0.1482,-16.2566,-1.5143,-0.2603,1.3761,85,19.051,367,14.2572,1.6018,-10.9694,-0.5063,-0.2361,0.7964,75
19.42,374,1.5351,-5.9069,-10.9456,-0.1381,-0.1539,-1.3798,76,18.709,361,9.5244,-1.508,-16.5133,-0.4335,-0.3578,1.2013,85,19.103,368,14.6253,-3.1525,-12.0429,0.307,0.046,-0.0928,75
19.471,375,0.885,-4.2811,-9.8428,0.461,0.1046,-1.1463,76,18.76,362,5.775,-1.8163,-14.1834,-0.1347,0.4179,0.4847,85,19.154,369,10.7696,3.0511,-10.5101,0.9006,0.7119,-0.7417,75
19.523,376,-0.0659,-4.2885,-9.7448,0.6693,0.2118,-0.9222,76,18.812,363,2.5144,-1.9449,-13.4603,0.5734,0.7152,0.2378,85,19.206,370,9.0844,0.3361,-13.0387,0.7556,-0.0703,-1.2154,75
19.575,377,1.1579,-4.63,-9.4821,0.6124,-0.3484,-0.8369,76,18.864,364,1.4732,-1.0803,-11.5955,1.0902,0.1497,0.2538,85,19.258,371,6.4379,-1.6843,-12.5607,1.228,0.2027,-1.561,75
19.627,378,5.9027,-4.1458,-14.917,0.2613,-0.2405,0.0658,76,18.916,365,0.8254,-0.6809,-10.8384,1.2842,0.1112,0.276,85,19.31,372,5.0074,-2.151,-12.5077,1.5728,-0.2686,-1.695,75
19.678,379,9.3656,-4.509,-17.8599,0.8651,-0.6241,0.5156,76,18.968,366,0.2504,-0.6716,-10.0696,1.4018,0.2159,0.1399,85,19.362,373,2.7934,-3.8492,-14.0992,0.4727,-0.0315,-1.512,75
19.73,380,10.1186,-3.6699,-14.8141,0.814,-0.3433,0.2285,76,19.02,367,0.3161,-0.4667,-9.2082,1.1871,-0.043,0.0624,85,19.413,374,7.3045,-4.4779,-15.4336,1.0215,-0.5981,-1.3445,75
19.782,381,5.7597,-2.6161,-13.461,0.8494,0.4319,0.524,76,19.071,368,5.1506,-1.2213,-9.3211,0.3714,-0.704,0.4026,85,19.465,375,10.4406,2.0838,-11.7335,0.0895,-0.8876,-0.6975,75
19.834,382,2.8191,-1.4535,-11.9128,-0.0339,-0.1577,0.1147,76,19.123,369,8.679,-2.1992,-12.4604,-0.0235,-0.7958,0.7236,85,19.517,376,10.977,1.5138,-12.6954,-0.0234,-0.6463,0.1609,75
19.886,383,0.4541,-3.4504,-10.4872,0.0168,0.0366,-0.2666,76,19.175,370,11.2542,-1.835,-13.0175,0.5424,-0.6095,0.6571,85,19.569,377,8.406,0.6525,-17.1666,-0.6063,0.1783,0.7951,75
19.937,384,-1.4175,-5.6587,-10.3908,0.6866,-0.6426,-0.7433,76,19.227,371,8.9072,-0.5381,-11.378,1.0676,0.2085,0.4141,85,19.621,378,6.4002,-1.9279,-17.2469,-1.1177,0.6078,1.2581,75
19.989,385,0.1689,-4.4936,-6.6501,1.1755,-1.0832,-0.3719,76,19.279,372,4.0926,3.1388,-10.738,1.4509,0.8082,0.5964,85,19.672,379,4.3911,3.2334,-18.7788,-1.491,0.2246,1.5959,75
20.041,386,0.7069,-7.0932,-7.7513,0.6951,-0.1486,0.4052,76,19.33,373,2.6584,2.3926,-10.6823,0.3789,-0.0828,0.1689,85,19.724,380,3.9357,5.149,-18.1349,-1.7634,-0.5095,1.5304,75
20.093,387,5.5735,-9.8947,-11.5397,1.1793,-0.7778,0.9724,76,19.382,374,1.4556,-1.1068,-10.8521,-0.3295,0.2771,-0.0941,85,19.776,381,5.0626,2.1773,-11.7467,-0.6105,-0.6652,1.0491,75
20.145,388,9.1254,-10.8063,-15.117,1.5351,-0.3102,1.3863,76,19.434,375,0.0698,-3.6805,-10.7921,0.3277,0.1142,-0.183,85,19.828,382,5.4712,0.2147,-6.1792,-0.5617,-0.7095,1.2328,75
20.196,389,11.7164,-10.8513,-15.9725,1.6489,-0.392,1.3482,76,19.486,376,-0.0202,-3.0035,-10.1727,0.9109,-0.1411,0.1718,85,19.88,383,9.2589,5.5086,-12.5148,-0.5158,-0.8534,1.32,75
20.248,390,10.2798,-8.0266,-14.638,1.8778,-0.217,1.1162,76,19.538,377,1.5532,-1.0845,-9.3287,0.6955,-0.5953,0.6725,85,19.931,384,12.0233,4.1582,-14.4054,-0.1506,-0.7115,0.8947,75
20.3,391,5.3457,-4.6187,-12.6934,1.6662,0.3757,1.0022,76,19.589,378,6.0535,-2.622,-12.7119,-0.1724,-0.5606,1.1562,85,19.983,385,14.0409,5.8137,-14.4297,-0.6988,-1.0305,0.6479,75
20.352,392,4.0099,-2.2903,-12.0301,1.2296,-0.3952,0.4395,76,19.641,379,9.338,-7.1745,-15.0137,0.0567,-0.5771,0.5735,85,20.035,386,13.1996,4.5935,-12.6953,0.1654,-0.5461,0.2585,75
20.404,393,2.0987,-1.4977,-10.495,0.5506,0.166,0.4936,76,19.693,380,10.6345,-6.4246,-13.2646,0.7131,-0.5798,0.1164,85,20.087,387,9.8152,6.0416,-10.2125,0.2637,0.2798,-0.3015,75
20.456,394,0.6101,-1.0447,-9.1407,0.6098,-0.3966,0.0389,76,19.745,381,8.0912,-2.3375,-10.1573,1.1922,0.1067,0.1282,85,20.138,388,8.4048,0.5416,-11.1207,-0.1221,0.5306,-0.7095,75
20.507,395,1.6319,-2.4355,-8.0709,0.0875,-0.4821,-0.1331,76,19.797,382,4.0252,1.491,-8.4529,0.9688,0.757,0.112,85,20.19,389,6.2785,-2.2766,-12.2089,0.5874,0.6653,-0.7454,75
20.559,396,4.5506,-5.0309,-7.8693,0.1631,-0.8628,-0.5259,76,19.848,383,2.3565,1.7706,-9.5226,0.0271,0.2867,-0.5069,85,20.242,390,4.7236,-0.1916,-13.803,0.7366,0.7379,-0.8021,75
20.611,397,8.3788,-6.9892,-8.8315,0.048,-0.6807,-1.0453,76,19.9,384,2.4628,0.8487,-9.3052,-0.0411,0.3937,-0.7934,85,20.294,391,8.642,2.8449,-7.49,1.1746,0.879,-0.7223,75
20.663,398,8.9987,-7.7416,-8.8518,0.6858,-0.3672,-1.438,76,19.952,385,1.0966,0.6049,-9.6639,-0.6687,0.8165,-0.9489,85,20.346,392,11.5731,3.1493,-7.7826,0.9672,-0.0319,-0.4885,75
20.714,399,7.4774,-5.6531,-8.7258,1.1181,-0.5316,-1.6286,76,20.004,386,5.7202,-0.4012,-9.5272,-0.1948,-0.0768,-1.2589,85,20.398,393,13.6591,4.505,-8.6777,0.7424,0.0563,-0.3603,75
20.766,400,6.9896,-4.1298,-8.6899,0.1637,-0.7077,-1.3047,76,20.056,387,9.0948,-0.3532,-11.3072,0.1141,-0.0978,-1.5676,85,20.449,394,12.57,3.7142,-10.1013,0.3017,0.2035,0.0556,75
20.818,401,5.098,-3.429,-8.82,-0.5579,-0.5504,-0.7746,76,20.108,388,11.0581,0.3405,-11.3559,0.206,-0.0286,-1.7176,85,20.501,395,10.4905,2.7689,-11.6167,-0.0226,0.2255,0.2551,75
