right_hand_timestamp,right_hand_index,right_hand_accel_x,right_hand_accel_y,right_hand_accel_z,right_hand_gyro_x,right_hand_gyro_y,right_hand_gyro_z,right_hand_battery_percentage,left_hand_timestamp,left_hand_index,left_hand_accel_x,left_hand_accel_y,left_hand_accel_z,left_hand_gyro_x,left_hand_gyro_y,left_hand_gyro_z,left_hand_battery_percentage,right_leg_timestamp,right_leg_index,right_leg_accel_x,right_leg_accel_y,right_leg_accel_z,right_leg_gyro_x,right_leg_gyro_y,right_leg_gyro_z,right_leg_battery_percentage,left_leg_timestamp,left_leg_index,left_leg_accel_x,left_leg_accel_y,left_leg_accel_z,left_leg_gyro_x,left_leg_gyro_y,left_leg_gyro_z,left_leg_battery_percentage
0.027,0,8.9682,-9.2329,-20.4805,0.9757,-1.3528,1.4208,75,0.423,8,3.5871,8.099,-9.7275,1.0409,-0.0035,-1.1293,84,0.845,16,10.0615,6.1301,-14.8003,-0.7867,-0.2388,0.7311,72,0.06,1,8.4743,1.4012,-15.3734,-0.1359,0.3091,0.0511,40
0.079,1,8.3246,-8.112,-18.3109,0.3745,-0.4905,1.2433,75,0.474,9,7.5379,3.6213,-12.7718,0.2516,0.2894,-1.5106,84,0.897,17,7.9155,5.7839,-17.1427,-0.0256,-0.5042,-0.0181,72,0.112,2,0.7123,0.9767,-17.1192,-0.7594,0.7116,-0.4014,40
0.13,2,6.21,-4.0509,-14.5643,0.6723,-0.6011,1.3353,75,0.526,10,6.9361,2.1357,-13.4813,0.8554,0.3347,-1.5389,84,0.948,18,6.6558,6.3837,-13.271,-0.4085,-0.5277,-0.6853,72,0.164,3,3.6448,2.03,-16.3437,-0.8725,-0.1474,-0.4716,40
0.182,3,4.7843,-3.5412,-11.9648,0.2612,0.0751,1.1899,75,0.578,11,6.5742,4.2123,-11.1036,0.7447,-0.3597,-0.9916,84,1.001,19,5.4182,4.159,-12.8378,0.3455,-0.5326,-1.1742,72,0.216,4,2.1108,-0.5609,-11.1899,-1.3139,-0.7744,-0.5107,40
0.234,4,3.5342,-5.6831,-12.3548,-0.1347,0.7242,1.217,75,0.63,12,6.0173,5.6968,-9.3203,1.1232,-0.4677,-1.1875,84,1.052,20,9.2202,-2.2016,-7.56,0.9287,-0.9404,-0.7497,72,0.267,5,6.6578,4.835,-7.2811,-0.2849,-1.1069,-0.6513,40
0.286,5,2.1119,-9.3455,-16.2086,-0.3495,0.4298,1.5649,75,0.682,13,4.6453,7.4542,-7.9701,1.2509,-0.1128,-1.5531,84,1.104,21,11.995,-2.4858,-12.2736,1.1599,-0.4489,-1.189,72,0.319,6,9.9765,1.7037,-8.8193,0.3451,-0.7112,-0.4553,40
0.337,6,1.5324,-8.8442,-19.8263,0.2181,0.3907,1.8188,75,0.733,14,3.9321,10.7672,-6.6148,0.3074,0.032,-1.8199,84,1.156,22,13.9081,3.5377,-14.4828,0.8013,0.3508,-1.3265,72,0.371,7,9.5504,-0.5293,-8.9363,0.6694,-0.7238,-0.2338,40
0.389,7,-0.9178,-6.7738,-16.2925,0.0186,-0.0508,1.0746,75,0.785,15,2.8805,10.8998,-8.9456,-0.4535,0.6734,-2.0146,84,1.208,23,14.0882,-2.6551,-17.6584,1.2614,-0.4174,-0.2972,72,0.423,8,8.3689,-0.7508,-9.3735,0.376,-0.7866,0.1938,40
0.441,8,-4.8487,-0.0909,-12.7492,0.688,0.1148,0.6797,75,0.837,16,1.2478,9.5493,-13.3218,-0.8148,0.7977,-0.813,84,1.26,24,11.5446,2.0256,-10.9154,1.1057,-0.6457,0.4608,72,0.475,9,5.0031,-0.2961,-6.464,0.9491,0.1108,0.7304,40
0.493,9,-5.036,-2.1836,-13.4501,0.2948,-0.5855,-0.1791,75,0.889,17,-0.9249,1.7087,-15.5948,-0.1951,0.948,-0.5971,84,1.311,25,10.7447,6.099,-15.9714,0.1318,0.2071,0.8364,72,0.527,10,5.8737,-1.92,-8.6107,0.7524,0.7658,1.1269,40
0.545,10,-2.0935,-6.7914,-17.6328,0.3861,-1.0967,0.2163,75,0.941,18,-3.6819,5.724,-14.1233,0.5293,0.1074,0.2022,84,1.363,26,2.5178,2.1454,-17.4008,0.575,0.8295,0.6945,72,0.578,11,9.4042,3.8908,-3.6767,0.35,-0.1078,0.96,40
0.596,11,-0.5073,-8.4979,-19.3367,0.9562,-1.4697,0.7482,75,0.992,19,2.2327,9.5045,-10.8524,0.7849,-0.5943,0.3315,84,1.415,27,6.9681,0.5679,-15.5404,-0.2555,0.4482,0.4225,72,0.63,12,9.1251,4.7056,-7.8948,0.409,0.1981,0.5559,40
0.648,12,4.6874,-4.0164,-19.0971,0.8632,-1.7169,-0.1291,75,1.044,20,1.9563,11.1684,-9.7227,-0.1072,-0.4666,-0.2336,84,1.467,28,3.6893,1.4771,-16.5879,-0.4646,0.4872,0.3881,72,0.682,13,6.3751,7.8845,-11.1264,0.9732,0.5511,0.0037,40
0.7,13,8.4786,-4.8007,-14.9876,-0.0474,-1.2507,-0.7693,75,1.096,21,-1.2471,10.0337,-9.8115,-0.2093,0.2988,-0.2894,84,1.518,29,4.2955,3.2309,-13.6995,-0.8487,0.3628,0.3436,72,0.734,14,9.7615,11.0466,-12.1257,0.2404,-0.2646,-0.6687,40
0.752,14,8.686,-4.7862,-13.0374,-0.698,-0.2304,-1.2366,75,1.148,22,-4.5389,8.7852,-11.9716,0.3697,0.0382,0.4542,84,1.57,30,2.9323,2.5579,-13.1113,-1.2946,0.8393,0.0833,72,0.786,15,8.1084,6.2202,-9.3786,-0.5016,-0.6414,-1.1594,40
0.804,15,3.8114,-8.6909,-16.1486,-1.1868,0.5142,-0.8766,75,1.2,23,-2.5958,7.2875,-10.7858,0.0202,-0.6448,0.9968,84,1.622,31,0.8922,3.7666,-12.6672,-0.2683,1.1823,-0.6129,72,0.837,16,4.0559,-0.2214,-6.9546,0.2577,0.2168,-1.5176,40
0.856,16,-2.7506,-11.5407,-19.0022,-1.5436,0.4746,0.0369,75,1.252,24,-0.7383,9.9387,-9.2141,-0.118,-0.2365,0.5696,84,1.674,32,5.9169,-2.488,-6.661,0.4807,0.1895,-1.0437,72,0.889,17,-2.5124,5.1305,-6.899,0.2631,0.8432,-0.4319,40
0.907,17,-1.1585,-13.6206,-20.3667,-0.4554,-0.3229,0.7036,75,1.303,25,-0.9571,10.3746,-8.0201,0.2655,0.3553,-0.2707,84,1.725,33,9.5842,-2.0652,-12.7557,0.0273,-0.0332,-0.9804,72,0.941,18,-2.7625,3.8372,-10.4541,0.8667,1.3004,-0.4011,40
0.959,18,2.8935,-12.3646,-22.4,0.342,-0.905,1.0657,75,1.355,26,-0.1633,12.8987,-9.5085,-0.4859,0.0855,-0.8839,84,1.777,34,10.7702,3.6564,-10.9543,-0.0915,0.6541,-0.6106,72,0.993,19,-1.5174,-2.4962,-14.211,0.1497,0.3078,0.3285,40
1.011,19,5.4654,-9.7737,-17.1847,-0.0254,-1.3298,0.3779,75,1.407,27,1.5807,14.7409,-13.1525,-1.0346,-0.1522,-1.1004,84,1.829,35,11.1762,-0.0907,-12.1008,-0.0393,-0.1959,0.2238,72,1.044,20,-1.9941,-4.1156,-11.4638,0.7839,0.0885,0.9201,40
1.063,20,3.1012,-1.7433,-12.4931,-0.6339,-0.2882,-0.1349,75,1.459,28,1.0142,9.6894,-13.9037,-0.9649,0.5305,-0.8808,84,1.881,36,8.8838,-4.9171,-12.9782,-0.6707,-0.3237,0.841,72,1.096,21,-0.5359,-1.5311,-9.0998,0.5606,0.4251,1.3519,40
1.115,21,3.6155,-2.4694,-11.7782,-0.9729,0.4721,-0.7678,75,1.511,29,-2.1471,2.5986,-14.0279,-1.1296,0.2309,-0.3682,84,1.933,37,3.3249,-0.3416,-9.7184,0.1808,-0.2884,1.2916,72,1.148,22,1.8159,2.6531,-7.3223,-0.2679,0.9952,1.667,40
1.166,22,4.3233,-7.0,-16.5928,-1.3875,0.5096,-0.4761,75,1.562,30,-1.8684,2.0368,-13.629,-0.1527,-0.3596,0.3966,84,1.984,38,1.0238,3.4087,-9.8908,-0.4515,0.4679,1.6144,72,1.2,23,1.6033,2.2248,-11.601,-0.8726,1.0774,1.5036,40
1.218,23,2.7177,-10.3066,-19.4893,-0.4845,0.045,0.101,75,1.614,31,-3.3857,6.8134,-13.0166,0.194,-0.0235,0.4871,84,2.036,39,-4.577,0.0555,-13.3304,0.2051,1.0198,0.5742,72,1.252,24,6.2874,5.257,-12.287,0.0287,1.4402,1.0581,40
1.27,24,3.0804,-9.3873,-19.0633,0.3207,-0.6365,0.1223,75,1.666,32,-3.0764,10.2996,-11.601,0.133,-0.6898,-0.1864,84,2.088,40,-5.3746,5.0867,-15.0207,-0.5255,0.9044,0.9773,72,1.304,25,3.8604,4.0523,-16.9488,0.6956,1.734,0.1179,40
1.322,25,2.9952,-9.4003,-19.2117,0.4664,-0.798,-0.5289,75,1.718,33,-1.305,11.3878,-10.9441,-0.5783,-1.077,-0.8023,84,2.14,41,-3.1276,7.8615,-16.3675,-0.1801,0.0763,0.3656,72,1.355,26,7.9348,7.4038,-18.971,-0.1267,0.5987,-0.2383,40
1.373,26,3.1582,-5.8209,-16.338,0.3922,-0.6943,-0.1341,75,1.77,34,-1.6058,8.5583,-11.691,-0.1862,-0.5299,-0.3997,84,2.192,42,-2.5781,8.2828,-14.4126,-0.8067,0.1522,-0.4072,72,1.407,27,0.3185,0.1068,-12.9892,-0.7695,0.146,-0.6614,40
1.425,27,2.3854,-4.7927,-13.515,0.2593,-0.2469,0.2239,75,1.821,35,-0.3303,8.396,-11.875,0.5358,-0.0073,0.3736,84,2.243,43,-2.6256,3.8845,-13.0212,-0.5797,0.7108,-0.9712,72,1.459,28,2.1427,-5.2188,-17.4613,-0.0915,0.7804,-1.0762,40
1.477,28,1.8273,-4.4075,-12.5064,0.0463,0.3045,0.3576,75,1.873,36,-1.5666,8.4979,-10.8279,0.8112,0.6738,0.3641,84,2.295,44,-7.2319,2.0469,-17.5083,0.2534,0.8728,-1.3829,72,1.511,29,6.6811,-3.9824,-12.1856,0.455,0.2358,-1.2719,40
1.529,29,1.025,-8.4145,-15.0445,0.3776,0.3566,0.4062,75,1.925,37,-2.2275,7.9096,-9.8581,0.3934,0.5329,0.3846,84,2.347,45,-0.0124,-3.6828,-11.6746,-0.4903,0.8549,-0.5189,72,1.563,30,9.9935,-0.3247,-11.1183,0.9496,-0.0582,-1.1998,40
1.581,30,0.0954,-11.339,-18.7985,0.9454,0.2096,0.7042,75,1.977,38,-2.7921,11.0996,-9.6853,0.4089,0.6072,-0.1441,84,2.399,46,2.6488,-7.9249,-10.451,0.3187,1.3023,-1.031,72,1.614,31,11.0985,-2.3362,-9.8528,0.7219,-0.0411,-0.711,40
1.632,31,0.741,-9.0039,-17.8505,0.567,0.4152,0.5789,75,2.029,39,-1.7454,13.4278,-12.8606,-0.3816,0.3972,-0.541,84,2.451,47,1.4686,-11.021,-14.885,-0.2108,1.6073,-0.2305,72,1.666,32,9.2933,-1.2069,-10.5982,-0.1502,-0.1855,0.1506,40
1.684,32,-1.2291,-6.3561,-13.6736,-0.0897,0.9361,0.5608,75,2.081,40,-1.7709,12.8146,-15.184,-0.9585,0.362,-0.5166,84,2.502,48,1.693,-12.7312,-14.0373,0.5227,0.4997,0.4677,72,1.718,33,6.2984,-1.1382,-8.6001,-0.7867,0.1106,0.7903,40
1.736,33,-1.6892,-3.4528,-14.0597,-0.4656,1.2983,0.3831,75,2.132,41,-4.185,5.4675,-15.8941,-1.3796,0.827,0.0983,84,2.554,49,1.8931,-5.3699,-9.3967,0.7567,0.2707,1.0112,72,1.77,34,5.0897,1.7039,-9.3015,0.1005,0.7657,0.3986,40
1.788,34,-1.9647,-3.971,-16.7373,-0.8582,0.996,0.5138,75,2.184,42,-3.134,4.6634,-13.4975,-0.3352,-0.0691,0.7372,84,2.606,50,6.6474,1.4327,-4.2741,-0.1229,0.0001,1.1517,72,1.822,35,5.0478,-0.5186,-10.8281,0.7359,-0.0417,0.3631,40
1.84,35,-2.3659,-6.3814,-17.5655,-0.5986,0.0576,0.2975,75,2.236,43,0.4781,6.0732,-11.8039,0.0799,-0.0392,0.4456,84,2.658,51,10.1173,-4.1914,-2.9158,0.5868,0.0879,0.5494,72,1.873,36,8.8014,-1.5902,-9.6509,-0.14,-0.1851,0.4763,40
1.891,36,0.2668,-9.2184,-20.7175,0.0425,-0.6273,-0.1033,75,2.288,44,3.495,8.7734,-10.4645,-0.3655,-0.1441,0.1747,84,2.71,52,10.0869,-3.4307,-6.7942,-0.2469,0.7425,0.6279,72,1.925,37,3.9691,2.4024,-12.4346,-0.2442,0.4776,0.4418,40
1.943,37,3.1868,-9.3151,-21.1425,-0.2537,-0.1686,-0.3184,75,2.34,45,4.9296,11.3999,-11.8392,-0.447,0.1774,-0.5589,84,2.761,53,10.5094,-0.2386,-8.8204,0.4963,-0.1266,0.0009,72,1.977,38,3.8308,7.0455,-13.8018,0.181,0.0974,-0.2913,40
1.995,38,2.3503,-5.7438,-16.1844,-0.1926,-0.0613,-0.2972,75,2.391,46,3.251,10.9423,-15.3661,0.1058,0.7206,-0.6987,84,2.813,54,7.7617,2.6559,-6.3615,-0.313,0.4107,-0.4526,72,2.029,39,3.3437,3.1127,-13.955,-0.545,0.2817,-0.884,40
2.047,39,1.1349,-6.8482,-12.7595,-0.2793,0.581,-0.1998,75,2.443,47,0.3989,10.1888,-14.5847,-0.3753,0.0029,-0.3505,84,2.865,55,7.1276,2.2974,-6.1624,-0.2459,0.9781,-0.981,72,2.08,40,0.6269,0.9021,-12.4184,0.2769,0.8366,-1.3166,40
2.098,40,0.2619,-6.2052,-11.7071,-0.873,0.9971,0.2348,75,2.495,48,-1.2454,5.8997,-11.5318,0.196,-0.2156,-0.2154,84,2.917,56,1.4196,-1.2312,-12.5025,0.497,1.2154,-1.39,72,2.132,41,3.0736,-4.6384,-17.0447,-0.475,0.4058,-1.2552,40
2.15,41,-0.5982,-6.6406,-11.0774,-0.3965,1.1281,0.5375,75,2.547,49,-1.2785,4.5448,-10.2571,0.4562,-0.2001,-0.0647,84,2.969,57,2.735,-6.1356,-10.2733,0.249,0.5924,-0.7254,72,2.184,42,7.3606,-7.7674,-16.596,0.0241,0.0738,-0.7559,40
2.202,42,2.9414,-6.0327,-13.6644,-0.4662,1.4884,1.0689,75,2.599,50,-0.6239,7.3967,-11.2605,1.0047,-0.5666,-0.0617,84,3.02,58,7.2619,-9.7151,-9.8707,0.8583,0.899,-0.7498,72,2.236,43,10.4894,-7.0033,-14.3647,0.0285,0.3957,-0.4984,40
2.254,43,3.9386,-4.4891,-17.9694,-0.9005,1.7687,0.6377,75,2.651,51,3.4249,10.7253,-13.2001,0.0532,-0.4142,-0.7314,84,3.072,59,3.6596,-8.137,-13.2364,-0.0488,1.3345,-0.0947,72,2.288,44,9.8368,-3.8613,-13.0613,-0.2953,0.1295,0.2548,40
2.306,44,2.5073,-5.6954,-20.3415,-1.3221,1.9733,0.4291,75,2.702,52,1.8424,11.1974,-13.4672,0.6078,-0.0873,-1.2202,84,3.124,60,5.7932,-7.8193,-12.1385,-0.692,0.4044,0.6008,72,2.339,45,8.434,-5.4996,-16.2747,-0.8926,-0.5577,0.8663,40
2.357,45,0.7638,-1.8443,-17.9079,-0.9635,1.7971,0.0767,75,2.754,53,-0.0165,10.7795,-13.8368,-0.2364,0.6154,-0.4252,84,3.176,61,4.8877,-6.2298,-11.254,0.1566,0.401,1.1162,72,2.391,46,6.6485,-5.3138,-12.0305,-0.2175,-0.9109,1.3126,40
2.409,46,0.7463,-2.0882,-15.755,-0.9629,1.9769,-0.1878,75,2.806,54,-0.8513,4.8849,-11.202,0.3512,0.6805,0.1751,84,3.228,62,4.0095,0.0294,-12.4191,-0.5609,0.9456,1.4924,72,2.443,47,3.7154,-2.0838,-11.9721,-0.8358,-0.5729,1.6383,40
2.461,47,0.994,-1.7727,-15.0275,-0.6325,1.7618,-0.3441,75,2.858,55,-2.813,3.2586,-11.1186,-0.0491,0.8949,0.6249,84,3.279,63,5.4297,5.3734,-15.5361,-0.6286,0.6055,1.5083,72,2.495,48,7.829,3.7713,-16.719,-0.8621,-0.0711,0.9901,40
2.513,48,2.0719,-4.6926,-15.7581,-0.9182,0.9413,-0.0935,75,2.91,56,-3.5095,6.5877,-11.0227,0.4149,0.5236,0.6077,84,3.331,64,9.2286,-0.4027,-14.0855,-0.7961,0.12,1.4018,72,2.547,49,8.0457,4.109,-16.3687,-0.7288,0.633,0.8801,40
2.565,49,6.0689,-6.0419,-19.3855,-0.0219,0.0176,-0.24,75,2.962,57,-3.3998,9.8621,-12.4543,-0.3772,0.0064,-0.0988,84,3.383,65,12.0012,-1.3813,-13.5236,-0.477,0.457,0.8955,72,2.598,50,8.1134,4.852,-18.6249,0.1427,1.1469,-0.0291,40
2.616,50,8.1156,-5.1675,-22.1449,0.3121,0.6869,-0.5237,75,3.013,58,-0.6531,12.5246,-15.0839,-0.9553,-0.668,-0.7585,84,3.435,66,8.4343,-1.1101,-14.0118,0.0346,0.6587,0.3435,72,2.65,51,8.1493,7.661,-20.2903,0.6914,0.1703,-0.4804,40
2.668,51,4.1328,-4.9834,-20.0174,0.9021,0.9695,-0.4257,75,3.065,59,-0.2056,9.9527,-15.0034,-1.1999,-0.415,-0.9955,84,3.487,67,6.5163,-0.6264,-14.3249,0.7018,0.0644,-0.4233,72,2.702,52,7.0894,4.0263,-16.2614,-0.1725,-0.5425,-1.0114,40
2.72,52,2.6642,-1.7746,-17.2977,0.7656,0.0697,-0.1189,75,3.117,60,0.0124,6.6119,-13.4536,-0.204,-0.8107,-0.0612,84,3.538,68,5.9824,1.1406,-12.5066,0.2013,-0.3451,-0.9829,72,2.754,53,4.5309,0.996,-9.2606,0.1832,-0.1476,-1.4036,40
2.772,53,1.5054,-0.5968,-15.2525,0.05,-0.1118,0.229,75,3.169,61,0.6959,5.2811,-12.3083,0.5177,0.0449,0.6207,84,3.59,69,4.3902,-1.4523,-11.3292,0.7894,-0.1856,-1.3914,72,2.806,54,3.0738,-4.5699,-14.74,0.8084,-0.4151,-1.6066,40
2.823,54,1.4529,0.026,-13.5426,0.0908,-0.2735,0.0543,75,3.221,62,0.2752,6.866,-12.6637,0.8154,0.5557,0.8929,84,3.642,70,6.2353,-6.297,-7.5857,1.2527,-0.7852,-1.1863,72,2.857,55,7.3607,-2.4139,-15.7079,-0.0871,-0.2379,-1.0496,40
2.875,55,1.8305,-1.7274,-13.4241,0.3511,-0.8108,-0.2717,75,3.272,63,-0.8472,6.2561,-13.026,1.1568,0.84,0.5364,84,3.694,71,7.8808,0.7561,-12.2212,0.3188,-0.8277,-1.1781,72,2.909,56,8.9393,-2.2723,-13.6675,0.6111,0.489,-0.792,40
2.927,56,6.3936,-6.4585,-17.794,-0.1263,-1.2611,0.2465,75,3.324,64,-1.0519,8.9823,-12.2555,1.5063,0.2674,0.3778,84,3.745,72,7.6281,2.2656,-15.5986,0.5924,-0.1979,-0.9079,72,2.961,57,8.9049,-3.9645,-13.8101,0.2055,0.3099,-0.2356,40
2.979,57,9.7239,-9.9114,-20.6157,0.5822,-0.9264,-0.4201,75,3.376,65,1.2282,10.687,-15.1147,0.4193,0.1801,0.2914,84,3.797,73,8.1146,-3.5835,-18.7422,-0.2282,0.5339,-0.6765,72,3.013,58,7.7878,-5.2209,-11.5591,0.0761,0.2459,0.425,40
3.031,58,5.9284,-3.2775,-18.1237,1.0993,0.0063,-0.2341,75,3.428,66,3.3954,13.1267,-18.9712,0.3311,0.1981,0.574,84,3.849,74,7.6798,0.7928,-19.8418,-0.8418,0.2309,0.1815,72,3.065,59,6.0583,-4.5275,-9.1887,0.7302,0.8644,0.7674,40
3.082,59,-1.2055,-7.4427,-21.224,0.3529,0.217,0.0327,75,3.48,67,0.8071,13.4586,-14.8772,-0.144,-0.0622,0.4391,84,3.901,75,8.5105,2.4,-18.3475,0.0622,-0.5049,0.2196,72,3.116,60,6.6661,-3.6362,-10.4616,0.8657,1.3158,0.9354,40
3.134,60,-0.8542,-5.6106,-22.6643,0.5221,-0.1811,0.7005,75,3.531,68,-1.7916,10.0464,-12.6942,0.0185,0.1808,-0.3659,84,3.953,76,6.3862,1.5342,-14.4306,0.2783,-0.4305,0.7335,72,3.168,61,9.9825,2.6383,-6.4994,-0.0452,0.2936,1.206,40
3.186,61,0.5643,-7.8475,-21.146,0.0238,-0.8015,1.1879,75,3.583,69,-0.1076,6.683,-11.5055,-0.5511,-0.4257,-0.9534,84,4.005,77,7.4117,4.6225,-12.8228,-0.4721,0.0438,1.2126,72,3.22,62,12.403,0.901,-10.5745,0.6417,0.5613,1.387,40
3.238,62,3.5807,-8.8882,-19.0654,0.5563,-1.2543,1.5436,75,3.635,70,-0.0143,2.8478,-11.2157,-1.0823,-0.2946,-1.3699,84,4.056,78,10.6752,-1.8634,-12.2814,0.332,-0.19,0.9517,72,3.271,63,14.1695,-4.6392,-10.9864,0.812,0.4202,0.7544,40
3.29,63,7.671,-11.6847,-17.277,1.03,-1.5848,1.8032,75,3.687,71,-0.1221,2.7007,-9.9402,-0.647,-0.64,-1.1809,84,4.108,79,13.057,-5.5297,-12.6569,-0.0162,-0.2707,0.6971,72,3.323,64,8.9153,0.8558,-14.014,1.2673,-0.082,0.0392,40
3.341,64,7.5262,-6.0529,-12.6626,0.9957,-1.5271,1.9243,75,3.739,72,0.0935,7.298,-9.5744,-0.5173,-0.4775,-0.9916,84,4.16,80,9.1748,-1.6157,-12.6925,-0.6535,0.4736,0.3198,72,3.375,65,9.7924,3.7583,-13.5323,0.252,-0.7266,-0.6388,40
3.393,65,6.663,-6.1875,-11.3259,0.0493,-1.7838,0.7293,75,3.79,73,-1.7881,9.9754,-11.0419,-0.3576,0.1332,-0.6682,84,4.212,81,7.068,0.6564,-12.068,0.012,0.247,-0.2181,72,3.427,66,8.0666,0.3432,-10.6775,-0.4929,-0.8432,-1.1376,40
3.445,66,7.1719,-6.5747,-10.0533,-0.6409,-1.7172,-0.1428,75,3.842,74,-4.3699,12.033,-11.9942,-0.2522,0.5345,0.1777,84,4.264,82,7.1247,1.7376,-10.9128,-0.6664,0.8024,-0.2209,72,3.479,67,5.1214,-1.2613,-13.3068,-0.2112,-0.1157,-1.4446,40
3.497,67,5.1071,-6.0274,-9.7353,-1.1445,-0.5709,-0.723,75,3.894,75,-4.0934,6.6355,-10.8155,0.3068,0.38,0.7951,84,4.315,83,6.2001,0.0166,-10.7423,-1.044,1.1465,-0.1649,72,3.53,68,4.7469,-5.4983,-17.6931,0.5205,0.5071,-1.1473,40
3.549,68,3.333,-6.2924,-9.6657,-1.5127,0.2658,-0.4624,75,3.946,76,-4.6025,5.5671,-9.3816,0.8956,0.4469,1.0284,84,4.367,84,7.3359,1.9182,-15.8451,-1.1214,1.372,-0.7432,72,3.582,69,6.7225,-6.0612,-20.8944,-0.2972,1.0031,-0.2006,40
3.6,69,0.8055,-7.9719,-8.6105,-1.7814,0.8764,0.2774,75,3.998,77,-5.3593,5.0393,-9.1713,0.6994,-0.0335,1.1501,84,4.419,85,6.9164,-3.8371,-9.6221,-0.2105,0.3279,-0.3338,72,3.634,70,10.0236,-3.566,-17.8102,-0.7365,1.0966,-0.0469,40
3.652,70,-1.5839,-11.016,-8.8666,-1.5008,1.1934,0.8791,75,4.049,78,-3.7962,7.196,-9.5845,-0.1671,-0.1633,1.0029,84,4.471,86,10.3136,1.34,-13.0208,-0.112,-0.2779,-0.6149,72,3.686,71,7.9923,-2.4789,-15.7814,0.1371,1.4853,0.2687,40
3.704,71,-2.8422,-13.2376,-14.4678,-1.6168,1.3443,1.3183,75,4.101,79,-1.5537,7.5617,-9.4123,-0.6744,0.1761,0.0514,84,4.523,87,12.5366,4.3148,-13.6361,0.0836,0.2489,-0.7362,72,3.738,72,6.149,-3.1522,-18.2347,-0.256,0.8105,0.7485,40
3.756,72,-6.3763,-14.8591,-17.9713,-1.3086,0.3543,1.6388,75,4.153,80,2.1766,10.8458,-8.1215,-1.1682,0.2281,-0.6489,84,4.574,88,7.4686,-2.0879,-16.4705,-0.5381,0.7049,-0.239,72,3.789,73,4.359,-3.4017,-15.7623,0.1263,0.3431,1.2265,40
3.808,73,0.4039,-6.3749,-16.8605,-0.2807,-0.4107,1.5233,75,4.205,81,1.6096,13.2426,-8.0262,-0.8746,0.235,-0.7087,84,4.626,89,8.7491,-3.2254,-15.1102,-0.9474,0.0037,0.5033,72,3.841,74,3.8764,-3.8002,-12.7943,0.0884,0.3058,1.5581,40
3.859,74,1.7739,0.7372,-18.3333,0.4692,0.1106,0.4367,75,4.257,82,0.2014,9.8525,-8.5836,-1.3144,0.7965,-1.1793,84,4.678,90,7.2383,-1.9687,-14.8123,-0.1254,-0.6707,1.045,72,3.893,75,3.6184,-1.1925,-11.8124,0.7392,0.6777,1.6897,40
3.911,75,6.3523,-2.631,-18.4056,-0.3349,0.0463,-0.3564,75,4.308,83,-2.5628,1.93,-11.1533,-1.6394,1.1016,-1.4213,84,4.73,91,4.0007,2.0538,-12.1189,0.585,-0.3901,1.4405,72,3.945,76,6.8574,4.4218,-9.245,-0.1368,-0.0676,0.8903,40
3.963,76,4.4609,-7.0286,-17.6418,-0.9218,0.7109,-0.9352,75,4.36,84,-1.4619,0.5134,-12.9075,-0.5248,0.1313,-0.372,84,4.781,92,8.1856,6.8509,-15.3176,-0.2482,-0.652,1.6901,72,3.996,77,5.3978,8.3266,-11.9289,0.5749,0.4936,0.3881,40
4.015,77,2.2349,-10.3275,-15.1012,-1.3176,0.9267,-0.833,75,4.412,85,-1.2494,1.558,-10.6658,0.2887,-0.2585,-0.1383,84,4.833,93,9.8296,-0.237,-8.5954,0.4954,-0.5559,1.0362,72,4.048,78,9.0568,4.6526,-12.834,0.9979,0.9673,0.0931,40
4.067,78,0.1772,-12.7352,-13.0897,-1.292,0.9018,-0.4116,75,4.464,86,-2.3471,4.4048,-9.8565,0.7617,-0.3085,-0.2958,84,4.885,94,8.8528,-3.5562,-14.2782,0.3791,0.2236,0.8454,72,4.101,79,3.665,4.2321,-17.348,1.2944,1.0244,-0.0822,40
4.118,79,0.1649,-14.4924,-16.2668,-1.0627,0.1561,-0.694,75,4.516,87,-2.3075,8.5416,-8.78,0.6301,-0.6088,-0.6812,84,4.937,95,9.6604,2.7564,-12.6054,-0.3125,0.8415,0.5916,72,4.152,80,7.2613,3.1852,-19.2887,0.2676,0.0809,-0.2097,40
4.17,80,-0.5065,-15.2232,-17.932,-1.0902,-0.5008,-1.0384,75,4.568,88,-5.2974,11.5609,-11.2182,0.3582,-0.6944,-0.5346,84,4.989,96,8.7577,2.4918,-13.5462,0.4395,0.4404,-0.1979,72,4.204,81,9.2242,3.2259,-15.1969,-0.4818,-0.6078,-0.4742,40
4.222,81,-2.2119,-8.7026,-16.0277,-0.3528,-1.0172,-0.8242,75,4.619,89,-1.838,11.3677,-11.6286,0.0866,-1.1795,0.1121,84,5.04,97,8.1949,5.6841,-13.0539,-0.3544,0.2869,-0.5751,72,4.256,82,6.4175,1.7049,-8.6339,-0.0154,-0.232,-1.0149,40
4.274,82,-1.847,-5.2623,-13.9581,-0.9349,-1.4117,-0.3654,75,4.671,90,0.1223,6.646,-11.023,0.5584,-0.7037,0.4996,84,5.092,98,6.7058,3.019,-11.2382,-0.7688,-0.0691,-1.0938,72,4.308,83,8.2458,-4.0525,-14.2826,0.5967,0.5156,-1.4122,40
4.326,83,-0.6857,-4.4321,-13.3374,-0.8212,-1.6216,-0.2975,75,4.723,91,-0.8195,5.3388,-10.9212,1.017,0.1655,0.5952,84,5.144,99,6.9079,1.2715,-9.4768,-0.1033,-0.3388,-1.4723,72,4.36,84,0.5455,2.3344,-18.4053,-0.2416,0.0474,-0.5802,40
4.377,84,-0.2334,-4.7408,-12.7641,-0.7203,-1.7492,-0.2121,75,4.775,92,-1.6487,4.6154,-11.2429,1.355,0.6043,0.5723,84,5.196,100,2.5038,-4.309,-14.9215,0.6011,-0.6706,-1.7486,72,4.411,85,5.5154,2.3193,-17.696,0.4983,0.6424,-0.4912,40
4.429,85,0.2465,-6.1893,-12.5539,-0.6502,-1.7581,0.2338,75,4.827,93,-3.2182,5.5657,-10.694,1.4986,1.0845,0.1869,84,5.248,101,7.0931,-2.6269,-12.7599,-0.1871,-0.4401,-0.6701,72,4.463,86,5.8431,-3.6041,-18.2524,0.0525,1.1538,-0.0092,40
4.481,86,1.0738,-9.715,-17.1589,-0.9631,-0.9276,0.5496,75,4.878,94,-3.306,4.7621,-8.8358,0.4525,0.8446,-0.2575,84,5.299,102,9.8781,-7.1543,-12.6725,0.54,0.3507,-0.761,72,4.515,87,5.1193,-0.1238,-17.3233,-0.4477,1.1992,0.6039,40
4.532,87,1.2582,-12.2881,-18.3195,-0.0285,-0.4567,-0.0382,75,4.93,95,-2.7551,8.8024,-11.1039,0.9783,1.2955,-0.2144,84,5.351,103,10.1082,-3.8862,-14.0781,-0.2811,0.9343,-0.7285,72,4.566,88,4.1835,-1.1869,-14.4984,0.3479,1.5602,0.668,40
4.584,88,-1.6952,-3.5785,-17.5781,0.6536,-0.5773,-0.4299,75,4.982,96,0.5734,11.7512,-14.8012,0.034,1.6246,-0.545,84,5.403,104,6.4464,-3.5605,-17.072,-0.6773,1.297,0.0234,72,4.618,89,4.5254,0.1255,-12.4782,0.8721,1.8237,0.5799,40
4.636,89,-6.6433,-1.1122,-18.0293,0.5007,0.2611,-0.4166,75,5.034,97,-1.9295,10.2031,-15.89,-0.338,1.8573,-0.4979,84,5.455,105,1.9672,-5.3451,-19.9282,-0.1553,0.7339,0.1159,72,4.67,90,3.2444,-0.7563,-17.0883,-0.0406,2.016,0.8317,40
4.688,90,-6.8271,0.9161,-17.1456,-0.0932,0.1524,-0.3786,75,5.086,98,-3.0759,4.8818,-16.2274,-0.925,1.4904,-0.5002,84,5.507,106,2.4771,-0.3912,-15.0481,0.5632,0.0092,0.3817,72,4.722,91,7.4852,4.7402,-12.4332,-0.7067,0.8045,0.5604,40
4.74,91,-5.9694,-1.1101,-14.2659,-0.0745,-0.3088,-0.4638,75,5.137,99,-3.5523,1.515,-14.7287,-0.0034,0.5094,0.1411,84,5.558,107,5.9938,5.0664,-18.9877,-0.2642,-0.1386,0.4503,72,4.774,92,3.7129,8.3859,-15.0182,0.1589,1.0314,0.4898,40
4.791,92,-3.6451,-6.0079,-14.3248,-0.5131,-0.8352,-0.1373,75,5.189,100,-2.7542,0.6802,-13.7591,0.6161,0.4359,0.524,84,5.61,108,9.6403,3.6874,-16.4749,0.4837,-0.5552,0.6607,72,4.825,93,7.8271,4.7781,-14.6362,0.6401,1.1543,0.5092,40
4.843,93,-0.3576,-9.5825,-12.6595,0.2991,-0.7359,0.5764,75,5.241,101,-2.5208,5.6956,-14.8431,1.1214,-0.1368,0.6666,84,5.662,109,12.3016,1.0779,-15.6562,0.0778,-0.8803,0.2604,72,4.877,94,5.5513,4.2487,-17.9227,1.1108,1.527,-0.1342,40
4.895,94,-0.0182,-9.0469,-11.7304,0.8927,-0.1077,0.6019,75,5.293,102,0.1896,9.3876,-14.9577,0.1384,-0.2986,-0.0394,84,5.714,110,9.6449,2.2044,-15.6254,-0.351,-0.3368,-0.0301,72,4.929,95,5.9336,8.2043,-16.5153,0.7673,0.4477,-0.7693,40
4.947,95,0.9435,-5.944,-11.8864,0.0201,-0.0025,-0.2132,75,5.345,103,0.6195,12.1784,-15.3802,0.3164,0.0603,0.2034,84,5.766,111,7.7635,2.2538,-13.647,0.4204,-0.4135,-0.3889,72,4.981,96,7.7125,5.3776,-14.5999,0.102,-0.3401,-1.2329,40
4.999,96,1.0547,-5.8449,-12.2826,-0.382,0.4716,-0.0424,75,5.396,104,0.4556,12.28,-16.0628,0.9026,0.3523,0.5118,84,5.817,112,5.9232,3.1974,-11.2615,-0.3684,0.1585,-0.3611,72,5.033,97,6.7994,2.663,-12.4435,0.0339,-0.6743,-1.5712,40
5.051,97,-0.4055,-1.6816,-13.202,0.0598,0.9558,-0.4046,75,5.448,105,-1.7505,7.3526,-14.9099,0.1737,0.62,0.2186,84,5.869,113,5.1101,3.5683,-9.7962,-0.8934,0.7565,-0.4549,72,5.084,98,5.5795,-3.3532,-12.8558,0.3071,-0.241,-1.749,40
5.103,98,-1.0127,-1.3195,-12.0648,-0.6337,1.2093,-0.7086,75,5.5,106,-2.7254,7.1657,-13.8028,0.7368,-0.2201,0.8233,84,5.921,114,1.0671,1.401,-15.1546,-0.7601,1.2305,-0.9514,72,5.137,99,9.1894,2.8448,-8.3502,-0.3852,-0.0359,-0.9446,40
5.154,99,-0.1899,-3.201,-9.2721,-1.1399,0.8505,-0.9552,75,5.552,107,-2.6055,6.0573,-12.7981,0.7359,-0.4096,0.6394,84,5.973,115,2.4489,1.5714,-16.6288,-0.8921,1.4141,-0.1964,72,5.188,100,9.4412,5.6956,-8.6342,0.3936,0.5883,-0.5703,40
5.206,100,3.6009,-7.534,-14.6228,-1.5093,1.3032,-0.0205,75,5.604,108,-1.2761,9.7478,-13.8093,-0.1078,-0.9716,0.7132,84,6.024,116,2.1116,-4.0901,-16.9028,-0.9839,1.3463,-0.4239,72,5.24,101,7.2694,-0.3393,-11.6864,-0.3898,0.677,0.2641,40
5.258,101,1.7699,-10.1375,-18.6689,-0.6618,1.6335,-0.3486,75,5.656,109,2.4283,12.4412,-15.8139,-0.5781,-0.9929,-0.1659,84,6.076,117,6.7892,-8.2222,-15.6105,-1.3933,1.6609,-0.0135,72,5.292,102,6.1308,-0.7521,-14.0709,-0.9616,0.1154,0.8731,40
5.31,102,-0.8576,-10.0769,-18.8178,0.1914,1.096,-0.8287,75,5.707,110,3.4112,14.3095,-18.6869,-1.0817,-0.692,-0.8074,84,6.128,118,6.3312,-7.0161,-15.0109,-1.5821,1.1651,0.5303,72,5.344,103,5.2812,-0.7873,-12.1803,-0.0338,-0.033,1.3176,40
5.362,103,-3.8993,-3.8073,-16.0985,-0.1774,0.1562,-0.5514,75,5.759,111,-1.4998,11.4136,-20.1736,-1.4695,0.1741,-0.8543,84,6.18,119,4.5392,-7.6748,-15.6571,-1.1082,0.2829,1.0648,72,5.396,104,4.8877,-1.9042,-10.1239,0.2588,0.1718,1.642,40
5.413,104,-3.4437,-2.1646,-14.2791,-0.8068,-0.5553,-0.3617,75,5.811,112,-1.4526,4.2418,-16.7453,-0.8543,-0.5456,-0.0849,84,6.232,120,5.143,-3.042,-14.9993,-0.5978,-0.3878,1.4549,72,5.447,105,3.2372,3.8883,-15.37,-0.4795,0.546,1.8761,40
5.465,105,-2.1722,-2.3899,-13.2425,-0.6331,-0.8013,-0.2306,75,5.863,113,-2.8467,1.9592,-14.9357,0.0482,0.0104,0.2157,84,6.283,121,6.0393,3.1317,-18.9521,0.2402,-0.8154,1.6999,72,5.499,106,7.48,-2.459,-15.292,0.3247,0.2482,0.9763,40
5.517,106,-0.8826,-4.9206,-15.419,-0.1986,-1.2542,0.0309,75,5.915,114,-2.4152,0.8719,-14.4677,0.7069,-0.3052,0.6544,84,6.335,122,9.6735,-2.9514,-17.9753,0.8359,-1.0561,1.0036,72,5.551,107,4.8365,1.0528,-16.931,-0.4316,0.8661,0.6832,40
5.569,107,3.0756,-8.789,-16.6586,0.5295,-1.5847,0.2364,75,5.966,115,-2.3825,3.9205,-14.3597,1.1877,-0.6574,1.0087,84,6.387,123,12.3259,-7.3911,-15.4978,-0.0581,-0.3841,0.8811,72,5.603,108,7.1468,6.0606,-16.7167,0.3597,1.3171,0.0141,40
5.621,108,1.1324,-7.1436,-19.415,1.0608,-0.4742,-0.2279,75,6.018,116,-2.1057,8.1882,-15.7755,0.3187,-1.1524,1.0768,84,6.439,124,14.2617,-1.3301,-13.292,-0.5774,0.34,0.4273,72,5.655,109,5.3349,7.0296,-19.6451,0.2802,0.2945,-0.3393,40
5.672,109,-2.2582,-9.8263,-19.768,0.1003,-0.3916,-0.6813,75,6.07,117,-2.2866,11.303,-17.0734,-0.3697,-1.4491,0.5148,84,6.491,125,11.752,-1.7797,-14.5071,0.1618,0.1941,-0.305,72,5.706,110,6.8501,5.2522,-18.6728,-0.4726,-0.4519,-0.5859,40
5.724,110,-3.1848,-5.081,-16.3603,0.2552,-0.439,-0.2268,75,6.122,118,-1.0549,12.0739,-17.1492,-0.5751,-1.2645,0.9002,84,6.542,126,11.2744,2.6597,-13.4512,-0.5521,-0.2841,-0.4336,72,5.758,111,3.6062,1.1859,-12.4732,-0.764,-0.5611,-0.9465,40
5.776,111,-3.1518,-4.4328,-14.0916,-0.2806,-0.3194,0.1513,75,6.174,119,-0.958,5.6351,-15.8017,-0.4613,-0.57,0.9609,84,6.594,127,8.1559,0.7534,-12.4744,-1.0781,-0.1537,-0.7139,72,5.81,112,2.5665,-0.548,-17.0847,0.117,0.2754,-1.3622,40
5.827,112,-2.9535,-3.581,-12.865,-0.1377,-0.4017,0.2119,75,6.225,120,-1.22,5.0537,-13.8934,0.3351,-0.0022,0.9317,84,6.646,128,5.86,-1.4149,-12.0541,-0.1103,-0.2881,-1.1873,72,5.862,113,-2.1612,-4.7387,-20.4503,-0.5916,0.8668,-0.7863,40
5.879,113,-2.4694,-3.8057,-12.5705,0.1771,-0.6821,0.1354,75,6.277,121,-2.2586,5.1951,-12.99,0.2672,0.5478,0.5017,84,6.698,129,9.2236,-6.2697,-6.2136,0.596,-0.8837,-1.001,72,5.914,114,3.54,-6.2383,-21.2252,0.0336,0.8226,-0.4606,40
5.931,114,-1.7883,-7.8587,-12.6839,0.5204,-1.0468,0.3014,75,6.329,122,-3.0232,4.7163,-11.9741,-0.0204,0.7513,0.1434,84,6.75,130,11.9975,0.776,-10.4612,0.2031,-1.0597,-1.2444,72,5.966,115,6.688,-7.6216,-18.5579,-0.0388,1.225,-0.1717,40
5.983,115,0.2457,-10.9334,-15.352,0.9729,-1.202,0.3883,75,6.381,123,-2.8994,5.4201,-12.0769,0.1657,0.3619,-0.1291,84,6.802,131,9.806,1.367,-13.6528,0.0615,-0.3625,-0.7714,72,6.017,116,5.6803,-4.7427,-19.042,-0.6761,0.9432,0.4721,40
6.035,116,-1.6381,-13.1774,-16.3351,0.6242,-0.1948,0.1466,75,6.433,124,-2.714,9.2827,-16.7541,0.7927,0.1076,0.3341,84,6.853,132,9.6717,-4.2393,-14.1236,-0.6304,0.4138,-0.5006,72,6.069,117,4.0359,-5.3479,-14.5541,0.1812,0.9039,0.7463,40
6.086,117,-6.0451,-7.7281,-14.3038,0.9474,0.2506,0.6581,75,6.484,125,-2.4062,10.2693,-19.1394,-0.1015,-0.1062,0.3509,84,6.905,133,8.631,-2.0002,-17.1376,-1.0018,-0.2363,0.0839,72,6.121,118,4.2746,-4.4464,-12.7171,0.8069,1.3447,0.9354,40
6.138,118,-5.4945,-2.5843,-13.512,0.4145,0.1193,0.4127,75,6.536,126,-2.1973,7.5461,-16.3588,0.3738,0.1266,0.5632,84,6.957,134,7.4075,-2.8181,-17.2021,-0.6692,-0.8458,0.3774,72,6.173,119,4.4131,-0.0913,-14.5369,0.0712,1.6664,1.0018,40
6.19,119,-4.3466,-1.3692,-13.1594,-0.0196,-0.4072,-0.0864,75,6.588,127,-1.5973,7.3415,-13.7175,0.2023,0.0995,0.5242,84,7.009,135,7.0249,-0.2195,-13.024,0.1881,-1.2907,0.6858,72,6.224,120,8.3382,5.2255,-8.0059,-0.2864,1.0417,0.6028,40
6.242,120,-3.5443,-0.826,-12.4279,-0.3755,-0.6386,-0.4936,75,6.64,128,-1.9111,4.0114,-12.8661,-0.4928,0.0831,0.3885,84,7.061,136,9.8592,3.7403,-17.5104,-0.5368,-0.9747,0.4702,72,6.276,121,8.6834,6.3234,-11.3222,-0.4113,1.1632,0.7856,40
6.293,121,-4.7788,-2.2526,-14.5595,-0.8305,-0.7619,-0.4424,75,6.692,129,-1.2539,2.4471,-11.79,0.3118,0.5167,0.1444,84,7.112,137,12.2941,0.2774,-16.2214,0.2846,-0.7052,0.4093,72,6.328,122,9.6681,3.512,-12.2835,0.3661,1.5254,0.4064,40
6.345,122,-4.123,-6.8417,-18.6227,-0.6916,-1.2254,-0.3118,75,6.743,130,-2.3959,2.197,-13.0686,0.481,0.769,0.0326,84,7.164,138,14.2385,-3.4078,-15.8036,0.0287,-0.3706,0.1521,72,6.38,123,7.9477,5.6751,-13.6736,-0.1306,1.3097,0.2367,40
6.397,123,-4.2632,-10.1911,-15.011,0.0946,-0.409,-0.3464,75,6.795,131,-1.3726,6.9303,-16.9,1.0117,-0.0228,0.0724,84,7.216,139,11.8413,-0.8099,-15.0609,-0.6543,0.3064,0.0338,72,6.432,124,7.2214,6.577,-12.0472,-0.7724,0.6983,-0.2582,40
6.449,124,-2.5063,-9.7202,-13.0305,-0.5912,-0.9321,-0.335,75,6.847,132,-0.3873,10.3849,-18.9171,0.1931,-0.0504,0.299,84,7.268,140,10.4619,0.6719,-12.7944,0.0737,-0.1467,-0.2759,72,6.483,125,7.0879,5.3801,-11.0085,-1.2408,0.4487,-0.7706,40
6.501,125,-2.289,-4.0101,-12.1515,0.1108,-0.436,-0.1329,75,6.899,133,0.561,10.2631,-19.1852,-0.1019,0.3866,-0.1499,84,7.319,141,8.555,1.9771,-10.7671,-0.6214,0.2105,-0.2468,72,6.535,126,7.0386,2.0395,-12.6654,-0.877,0.644,-1.2338,40
6.553,126,-1.1731,-2.6949,-12.0462,-0.3102,0.005,-0.0149,75,6.951,134,-0.1898,6.8179,-16.5647,-0.5148,0.5141,-0.4395,84,7.371,142,6.815,2.3752,-9.7665,-1.0113,0.7832,-0.1418,72,6.587,127,1.9483,-2.9044,-15.2503,0.0346,1.1401,-1.5719,40
6.605,127,-0.4131,-2.5498,-11.1897,-0.2294,0.3996,-0.0973,75,7.003,135,-2.1717,4.4358,-14.7988,-0.4846,0.4135,-0.4681,84,7.423,143,5.0681,3.6726,-8.6333,-0.4226,1.25,-0.4775,72,6.639,128,6.5393,0.533,-19.1115,-0.6518,1.1792,-0.6059,40
6.656,128,0.2451,-2.0546,-11.1977,-0.7227,0.6945,-0.1478,75,7.055,136,-2.4654,2.4188,-13.4429,-0.477,0.0898,-0.2402,84,7.475,144,8.9647,-2.5566,-3.7169,0.3651,0.2389,-0.3754,72,6.691,129,8.4788,-4.2656,-18.0557,0.199,1.5456,-0.4763,40
6.708,129,0.1372,-6.6973,-15.1054,-1.2048,1.1714,0.2297,75,7.106,137,-1.9618,3.5339,-11.8844,0.1356,-0.15,0.0952,84,7.527,145,11.8086,-1.4649,-10.7177,0.6066,-0.1836,-0.4019,72,6.742,130,9.1772,-7.7013,-16.408,-0.2576,1.7948,0.1896,40
6.76,130,-3.894,-10.0857,-19.0211,-0.983,1.5229,0.0427,75,7.158,138,-1.3778,7.0077,-14.2992,0.7562,-0.3847,-0.4938,84,7.579,146,13.8842,4.2617,-8.3498,-0.2325,0.1143,0.1863,72,6.794,131,8.2093,-4.5621,-19.796,-0.7851,0.9609,0.8187,40
6.812,131,-5.4755,-8.6743,-17.3981,-0.2685,0.8319,0.0643,75,7.21,139,2.1014,10.4414,-16.9792,0.2098,-0.7536,-1.0014,84,7.63,147,11.9367,1.4884,-12.8537,-0.8449,-0.59,0.7433,72,6.846,132,6.2658,-5.1312,-16.1859,0.0991,0.4324,1.2779,40
6.863,132,-1.7109,-1.6404,-12.7725,0.4784,0.1149,0.0468,75,7.262,140,-0.1659,7.0409,-19.7785,-0.5269,0.1291,-1.4127,84,7.682,148,10.427,-0.5328,-13.5847,0.0597,-1.104,1.1946,72,6.897,133,4.9059,-5.1379,-11.9383,-0.3324,0.6322,1.613,40
6.915,133,-2.5497,0.492,-13.1932,-0.3282,0.4864,-0.0154,75,7.314,141,-2.5533,0.8228,-15.8782,-0.1271,-0.5785,-0.4357,84,7.734,149,7.9068,3.5032,-10.6724,0.6413,-0.7156,1.4879,72,6.95,134,5.1399,1.5423,-16.6943,0.0056,0.5833,1.8576,40
6.967,134,-2.1359,-0.1494,-13.839,-0.9169,0.4678,0.0715,75,7.365,142,-3.0178,0.0019,-15.2427,-0.2375,-0.2149,0.311,84,7.786,150,8.4658,5.7491,-15.7941,-0.1247,-0.4032,1.6587,72,7.002,135,8.8686,-4.1712,-18.2414,0.6788,0.1308,1.027,40
7.019,135,-2.7982,-5.3067,-15.1525,-0.908,0.1462,0.443,75,7.417,143,-1.8538,0.8443,-16.6108,0.4485,-0.8295,0.7908,84,7.838,151,11.4444,1.1238,-12.7571,-0.005,-0.9677,1.7018,72,7.053,136,10.7813,-2.7087,-20.4738,-0.1817,0.7137,0.773,40
7.071,136,-3.1437,-7.3665,-17.5113,0.0117,0.0095,-0.0012,75,7.469,144,-1.1002,2.1798,-16.3947,0.7981,-1.2781,0.1556,84,7.889,152,13.6184,-1.6507,-13.2924,0.2657,-1.1642,1.3399,72,7.105,137,12.986,3.3152,-18.7516,0.5421,1.2059,0.1164,40
7.122,137,-4.4239,-7.9628,-20.777,0.6375,-0.3146,-0.3934,75,7.521,145,-2.3481,6.9178,-16.7246,0.5154,-1.6055,-0.184,84,7.941,153,8.416,-0.4999,-17.6561,-0.0488,-0.3592,0.6599,72,7.157,138,13.1071,6.1244,-18.6929,0.4524,0.2133,-0.0461,40
7.174,138,-2.7361,-6.4851,-17.8995,0.203,-0.667,-0.4661,75,7.573,146,-2.7284,8.7359,-18.5838,0.7199,-0.9916,0.1088,84,7.993,154,5.9233,1.3023,-15.7287,0.519,-0.4682,-0.1463,72,7.209,139,11.2049,2.753,-14.2818,-0.3469,-0.5111,-0.3688,40
7.226,139,-2.3038,-2.7043,-14.2315,-0.2477,-0.0609,-0.3368,75,7.624,147,-2.4091,9.8576,-16.2093,-0.0737,-0.66,0.6704,84,8.045,155,5.3474,1.3982,-12.883,-0.2957,0.1481,-0.7577,72,7.261,140,7.5167,1.3549,-9.0645,-0.0409,0.036,-0.6294,40
7.278,140,-2.2664,-2.9623,-12.7322,-0.5706,0.3148,-0.3448,75,7.676,148,-1.5056,6.2757,-12.9259,0.2911,-0.3927,0.9062,84,8.096,156,5.0118,-0.3665,-11.3571,0.4191,0.5877,-1.227,72,7.312,141,7.2606,-4.308,-14.5969,0.6448,-0.3212,-1.1307,40
7.33,141,-2.5064,-3.9765,-15.1445,-1.0761,0.3284,-0.3947,75,7.728,149,-2.046,4.9635,-11.8015,0.3834,0.3925,0.5556,84,8.148,157,8.9236,-5.5046,-12.4036,0.9824,-0.2445,-1.2216,72,7.364,142,10.4164,2.148,-12.6976,-0.2065,-0.9009,-0.587,40
7.381,142,-1.9721,-8.0999,-18.3439,-0.7122,-0.4296,-0.1235,75,7.78,150,-2.451,3.5275,-11.9517,0.2197,0.9655,0.1636,84,8.2,158,9.1026,1.3344,-16.8917,0.0418,-0.6469,-0.9423,72,7.416,143,12.4013,-2.1466,-14.4628,0.524,-0.0146,-0.13,40
7.433,143,-1.1472,-6.3754,-21.3847,0.1546,-0.5747,0.5186,75,7.832,151,-2.7518,2.695,-12.022,0.6323,1.0088,0.0471,84,8.252,159,8.4366,1.931,-18.6877,0.5153,-0.0644,-0.9601,72,7.468,144,9.8378,-4.4368,-14.9623,0.0244,0.1911,0.2122,40
7.485,144,-4.3931,-9.8507,-23.5235,0.2103,0.263,0.5693,75,7.883,152,-2.3505,6.6153,-16.714,0.9877,0.9561,0.3762,84,8.304,160,9.2052,-2.3726,-19.1628,0.4889,0.6313,-1.1171,72,7.519,145,7.6949,-2.0027,-15.0887,0.4717,0.1552,0.3106,40
7.537,145,-5.53,-7.2828,-18.4522,0.5905,-0.4011,0.3985,75,7.935,153,-1.6662,10.155,-20.1384,0.0408,0.669,0.4497,84,8.356,161,7.9376,-3.4738,-20.2623,0.8938,-0.0387,-0.2065,72,7.571,146,5.7957,-4.2782,-13.9648,1.0189,0.4173,0.1489,40
7.588,146,-5.3746,-4.3817,-13.493,0.8686,-0.7454,0.1397,75,7.987,154,-0.9292,9.467,-17.6432,-0.5231,0.4821,0.7531,84,8.407,162,8.1666,-3.6441,-19.324,1.3289,-0.7016,0.5027,72,7.623,147,4.7998,-3.303,-10.8164,1.4183,0.698,0.0368,40
7.64,147,-4.9468,-1.9882,-12.3821,0.5379,-0.5746,-0.1987,75,8.039,155,-1.3742,4.176,-13.7432,-0.9122,0.3258,0.6529,84,8.459,163,4.8578,-0.908,-14.5409,0.5788,-0.7351,1.0446,72,7.675,148,-0.2657,2.8815,-15.8755,0.6556,0.1806,0.4219,40
7.692,148,-5.3522,-2.3484,-13.8464,0.481,-0.6746,-0.3495,75,8.091,156,-1.6057,2.4937,-12.8419,-0.2313,0.4866,0.8935,84,8.511,164,8.8112,4.6892,-13.896,-0.2528,-0.3128,0.6872,72,7.727,149,4.9234,-3.0991,-15.8529,0.5574,-0.1969,0.1095,40
7.744,149,-6.4364,-2.9752,-16.9164,0.165,-1.1617,0.1721,75,8.142,157,-0.2156,3.5904,-12.9795,0.0297,0.5013,0.3869,84,8.563,165,11.6965,-0.0591,-12.5311,0.3858,-0.615,0.7797,72,7.778,150,4.212,1.5791,-16.0785,-0.2554,0.4904,0.3709,40
7.796,150,-7.1712,-7.3692,-20.3428,-0.1902,-1.5172,0.3151,75,8.194,158,-0.9181,4.0625,-13.8141,0.5845,0.2982,-0.2971,84,8.615,166,12.5963,-0.6322,-13.5343,-0.1869,-0.5895,0.5433,72,7.83,151,4.1948,3.7735,-16.3166,-0.068,0.6885,0.2682,40
7.847,151,-4.2411,-10.2092,-18.319,-0.8162,-1.0238,0.4227,75,8.246,159,-0.7248,8.2919,-15.9067,0.9019,0.0995,-0.5282,84,8.666,167,10.479,-0.0592,-14.0137,0.084,-0.7821,-0.0968,72,7.882,152,5.0936,5.9258,-16.1697,-0.7267,0.2092,-0.2664,40
7.899,152,-2.7463,-12.1871,-14.1652,-1.2731,-0.6658,0.0981,75,8.298,160,1.0215,11.3786,-18.9912,0.3418,0.2343,0.1683,84,8.718,168,7.522,3.8049,-11.1875,-0.2171,-0.2783,-0.5986,72,7.934,153,4.1436,4.9732,-13.617,-0.092,0.4167,-0.8658,40
7.951,153,-1.4394,-9.6926,-12.7678,-0.2548,0.1801,0.2725,75,8.35,161,-0.5067,9.0077,-17.7163,-0.3442,0.1675,0.188,84,8.77,169,6.6808,2.6091,-11.4687,-0.7346,0.4753,-0.9936,72,7.986,154,1.0267,1.157,-13.1042,-0.0058,0.9758,-1.3033,40
8.003,154,-1.2004,-7.6125,-12.8195,-0.3083,0.4071,0.364,75,8.402,162,-0.6449,6.8972,-15.3012,-0.0431,-0.5501,0.6929,84,8.822,170,6.0971,3.1754,-14.9258,-0.5693,0.7216,-1.2966,72,8.037,155,5.8666,-4.4524,-6.9562,0.4708,0.0498,-0.6088,40
8.055,155,-1.5198,-5.9676,-13.1256,0.0952,0.7513,0.5949,75,8.454,163,-1.625,3.8495,-13.6596,0.0625,-0.421,0.2907,84,8.874,171,9.7157,-2.9195,-13.6128,0.2186,-0.1467,-0.9892,72,8.089,156,9.1807,-8.5463,-8.144,0.6804,0.1066,-0.8302,40
8.107,156,-1.8979,-7.873,-15.02,-0.0929,0.5371,1.0856,75,8.505,164,-1.7933,3.5737,-12.0748,0.3113,-0.5579,0.149,84,8.925,172,12.3567,-0.4801,-17.3231,0.6157,-0.5968,-1.1252,72,8.141,157,9.8146,-5.9088,-9.5488,0.5053,0.7455,-0.7452,40
8.158,157,-5.6831,-10.5593,-18.0759,0.5975,1.0744,0.9708,75,8.557,165,-1.9095,4.4804,-11.7776,0.5361,-0.6342,-0.0344,84,8.977,173,14.2842,5.0015,-13.8457,-0.2258,-0.1647,-0.6387,72,8.193,158,9.8131,-6.4796,-9.2761,0.9224,0.7289,-0.0221,40
8.21,158,-6.4306,-9.6696,-18.1208,-0.2078,1.3162,0.0334,75,8.609,166,0.9182,8.5968,-16.5356,1.063,-0.9957,-0.6507,84,9.029,174,12.0865,0.9124,-14.5069,-0.8401,-0.6783,0.2116,72,8.244,159,8.8915,-8.0381,-10.7238,-0.0039,-0.1205,0.6642,40
8.262,159,-4.4585,-8.1632,-15.7919,0.178,1.3767,-0.6507,75,8.661,167,1.1885,11.4197,-20.0083,0.2557,-0.575,-0.8038,84,9.081,175,10.9655,-2.7076,-14.4887,-0.6303,-1.1616,0.8322,72,8.296,160,7.2968,-6.104,-8.631,0.266,-0.3514,1.1651,40
8.314,160,-5.4242,-4.2547,-14.7335,-0.4853,1.2864,-1.1227,75,8.713,168,-0.4211,9.3733,-17.8813,-0.4934,-0.2351,-0.6723,84,9.132,176,9.1459,-0.5822,-12.4043,0.1519,-1.1465,1.2851,72,8.348,161,4.8376,-4.6039,-6.8399,0.1894,0.1487,1.5307,40
8.366,161,-4.6238,-5.1418,-14.4131,-0.1101,1.1894,-0.8213,75,8.764,169,-2.4851,1.5803,-15.0803,-0.3646,0.0063,-0.0109,84,9.184,177,6.8511,0.9443,-10.7175,0.3579,-0.5056,1.6156,72,8.4,162,8.648,1.932,-2.3843,-0.5388,-0.5583,1.1817,40
8.417,162,-2.9946,-7.1288,-14.7833,-0.6902,0.8035,0.0585,75,8.816,170,-2.1846,1.0733,-14.8075,0.4056,-0.0973,0.6574,84,9.236,178,10.266,2.2779,-11.5751,-0.2305,-1.0424,0.9975,72,8.452,163,11.429,6.1054,-7.4574,0.2814,-0.0014,1.3748,40
8.469,163,-1.4701,-9.369,-17.9085,0.1174,0.3594,0.7193,75,8.868,171,-2.6029,1.1145,-16.1944,0.9678,0.3491,0.4633,84,9.288,179,12.7583,7.0144,-16.187,-0.5956,-1.4334,0.4501,72,8.504,164,13.4549,-0.8408,-9.9498,0.2072,0.4459,0.881,40
8.521,164,-1.2667,-12.0357,-21.0669,0.3294,0.4155,0.8793,75,8.92,172,-2.7565,6.1089,-17.816,1.378,-0.3334,0.5379,84,9.34,180,13.2925,4.5676,-16.2155,-0.2154,-0.5473,0.3453,72,8.555,165,4.3873,0.3149,-15.243,0.2223,1.0104,0.2271,40
8.573,165,-2.5738,-11.7943,-20.5778,0.0658,0.6676,0.6268,75,8.972,173,0.9301,9.7854,-19.0784,0.3787,-0.8637,0.2,84,9.391,181,10.235,4.3261,-16.686,-0.4459,0.0633,-0.3704,72,8.607,166,4.1519,4.2385,-15.8002,0.7379,0.0707,-0.1546,40
8.624,166,-4.3455,-7.9796,-17.316,0.356,0.0296,0.479,75,9.023,174,2.6516,11.4943,-21.2185,0.0075,-0.6932,0.5855,84,9.443,182,10.2967,8.5093,-13.6266,-0.0272,-0.4111,-0.9444,72,8.659,167,5.9492,1.5555,-15.0628,-0.1385,-0.6152,-0.5335,40
8.676,167,-4.0907,-4.9695,-14.4962,0.5102,-0.352,0.0703,75,9.075,175,-0.0564,10.5413,-17.3757,-0.6722,-0.3623,0.7996,84,9.495,183,8.8538,5.6467,-11.7893,-0.5082,0.2513,-1.3373,72,8.711,168,0.9826,-2.5454,-8.3857,-0.3173,-0.7032,-1.0608,40
8.728,168,-3.7579,-4.7377,-13.5521,0.4627,-0.9234,-0.1367,75,9.127,176,0.2849,5.3171,-14.9269,-0.9017,-0.2093,0.4194,84,9.547,184,7.1557,1.5226,-11.4606,0.3001,0.3383,-1.6461,72,8.763,169,5.8344,-6.2122,-5.9937,0.4431,-0.4244,-1.1897,40
8.78,169,-3.3283,-3.8291,-13.5939,0.4822,-1.3072,0.0273,75,9.179,177,0.2693,5.2495,-13.8378,-0.2786,0.4104,0.1066,84,9.599,185,9.0543,-4.1258,-7.0194,0.8956,-0.4265,-1.2841,72,8.814,170,8.7232,-7.5862,-10.9881,-0.1955,-0.0983,-0.9381,40
8.832,170,-1.7165,-5.1617,-15.7783,0.3367,-1.6234,0.6965,75,9.231,178,0.4051,3.6197,-13.0596,0.1806,0.9262,-0.2032,84,9.651,186,11.874,2.3407,-11.7587,-0.0216,-0.351,-1.2434,72,8.866,171,10.534,-6.6604,-10.7,-0.7175,0.2928,-0.5436,40
8.883,171,0.2421,-8.965,-18.1424,0.8784,-1.5674,1.185,75,9.282,179,-0.2643,4.6041,-12.2905,0.3344,1.0868,-0.3975,84,9.702,187,10.0156,3.0805,-15.7914,0.4945,-0.3208,-0.6186,72,8.918,172,7.702,-7.0627,-10.8993,-0.2575,0.5235,-0.0222,40
8.935,172,-4.58,-11.7128,-17.4991,0.1987,-0.4615,0.6982,75,9.334,180,-0.1526,7.6453,-16.0856,0.5577,0.9151,-0.3993,84,9.754,188,8.8888,-2.2855,-16.0939,-0.2422,0.4442,-0.3772,72,8.97,173,6.6167,-5.4662,-12.4596,-0.865,0.7178,0.5813,40
8.987,173,-7.2316,-11.5248,-18.3081,0.8194,-0.4845,-0.0388,75,9.386,181,1.5868,10.9067,-19.6798,-0.2682,0.5944,-0.5975,84,9.806,189,7.665,-6.9051,-17.8602,-0.0269,1.0026,-0.7619,72,9.022,174,5.2525,-2.8806,-11.687,0.0434,1.2088,0.7393,40
9.039,174,-7.4619,-5.7092,-15.5594,0.0189,-0.7848,0.0136,75,9.438,182,0.3658,12.1081,-17.9691,-0.7311,0.1056,-0.8785,84,9.858,190,4.5165,-3.5017,-18.8627,-0.6949,0.7793,0.0887,72,9.073,175,4.1514,-2.5885,-12.7285,0.7063,1.487,0.8867,40
9.091,175,-6.4143,-1.985,-13.1964,0.6507,-0.7901,0.5088,75,9.49,183,-0.2135,7.3461,-15.1771,-1.2114,0.0396,-0.8664,84,9.91,191,5.6771,-2.7609,-18.737,0.1523,-0.1046,0.2887,72,9.125,176,0.6377,3.4029,-17.271,-0.1076,0.8116,1.2771,40
9.142,176,-5.7503,1.1711,-12.83,-0.2025,-0.4424,0.5021,75,9.541,184,-1.7243,3.0746,-12.8443,-0.6338,0.2003,-0.6133,84,9.961,192,5.5153,3.3369,-11.0911,0.0043,-0.0492,0.4347,72,9.177,177,5.5827,-2.8132,-12.9703,0.5779,0.1333,0.9377,40
9.194,177,-5.7608,-0.8534,-15.7967,-0.7874,-0.7485,0.1667,75,9.593,185,-1.4206,3.8783,-12.999,-0.0413,0.1786,-0.0881,84,10.013,193,7.1821,1.1985,-11.7053,0.6797,0.6424,0.3004,72,9.229,178,6.848,-4.0974,-13.3992,-0.2553,0.1469,1.0416,40
9.246,178,-8.9166,-5.3815,-19.5256,-0.7135,-1.2156,0.0376,75,9.645,186,0.1197,5.1729,-13.6139,-0.7102,0.1249,-0.7445,84,10.065,194,10.5075,-2.0582,-11.8479,-0.1792,0.3452,0.2418,72,9.281,179,6.6932,0.1135,-15.2903,0.2891,0.6364,0.6259,40
9.298,179,-8.0889,-6.6524,-19.2823,-0.8839,-1.4234,-0.201,75,9.697,187,-0.0614,9.1023,-11.4487,-0.1998,-0.4654,-1.2297,84,10.117,195,10.7665,1.1723,-10.8617,-0.7484,0.2916,0.2058,72,9.332,180,3.9707,4.7116,-13.1058,0.6095,0.6266,-0.2145,40
9.35,180,-6.54,-7.8169,-16.8478,-1.2466,-0.6399,-0.5021,75,9.749,188,-2.0984,7.5094,-11.4664,-0.8259,0.3319,-0.9734,84,10.168,196,9.3678,0.8364,-12.2071,-0.1634,-0.2336,0.0645,72,9.384,181,6.2979,4.7197,-11.4035,-0.2322,0.4038,-0.8279,40
9.401,181,-3.6215,-6.1706,-15.0104,-0.3894,0.1075,-0.2794,75,9.801,189,-6.4984,10.8075,-13.374,-0.0658,0.7384,-0.0451,84,10.22,197,7.7193,2.8508,-9.1797,-0.7942,0.0843,-0.1349,72,9.436,182,6.7332,2.7938,-10.8508,-0.7952,0.4907,-1.2757,40
9.453,182,-3.459,-3.7665,-14.1863,0.2949,0.6548,0.3294,75,9.852,190,-6.4935,7.6692,-12.8598,-0.5048,0.2605,0.3309,84,10.272,198,6.5528,1.9073,-8.446,-1.2513,0.7288,-0.3958,72,9.488,183,4.595,-2.9153,-14.1322,-0.3106,0.9425,-1.6024,40
9.505,183,-3.6008,-2.7492,-13.1458,0.6622,1.0367,0.8673,75,9.904,191,-5.8039,6.4302,-11.4366,-0.1219,-0.4825,0.43,84,10.324,199,6.4273,2.3649,-14.1692,-0.6586,1.2103,-0.7416,72,9.539,184,8.4709,-5.9277,-9.7099,0.448,0.4652,-1.1368,40
9.557,184,-3.8399,-2.0495,-12.7696,0.6422,1.1336,0.9534,75,9.956,192,-4.7855,4.9449,-10.9427,0.0293,-0.5927,-0.155,84,10.376,200,9.9567,-3.511,-7.7572,0.1959,1.0171,-0.5085,72,9.591,185,11.2192,-9.6231,-10.6421,0.6637,0.7375,-0.7058,40
9.609,185,-7.8846,-5.6324,-17.3163,0.8584,1.5098,0.8117,75,10.008,193,-3.6185,4.776,-10.5938,0.0703,-0.5919,-0.727,84,10.427,201,11.9092,-7.7995,-8.9859,0.6091,1.4072,-0.7192,72,9.643,186,6.1541,-10.5963,-10.5404,0.0751,1.0604,-0.0326,40
9.66,186,-9.1366,-8.3429,-20.6347,0.3572,0.9404,-0.0827,75,10.06,194,-4.6401,8.8126,-10.8535,-0.1855,-0.8121,-1.0541,84,10.479,202,11.2998,-3.3933,-9.735,-0.2141,1.683,-0.0837,72,9.695,187,5.6565,-6.476,-13.2548,-0.6073,0.8238,0.6154,40
9.712,187,-6.5147,-7.805,-15.727,0.7816,0.017,-0.6968,75,10.111,195,-2.7525,11.7587,-11.1698,-0.8154,-0.7332,-0.7001,84,10.531,203,9.5794,-4.1518,-10.8337,-0.1692,0.8644,0.4165,72,9.746,188,3.8272,-5.2267,-11.3761,-0.4559,0.5177,1.1266,40
9.764,188,-5.1585,-2.7321,-11.7647,1.2448,0.3477,-0.4326,75,10.163,196,-2.9106,13.08,-9.9309,-0.5034,-0.7471,-0.3328,84,10.583,204,7.3972,-5.0138,-10.6875,0.5531,0.3764,0.9735,72,9.798,189,4.0017,-6.1809,-10.6272,-0.8506,0.306,1.4867,40
9.816,189,-3.5128,-1.3702,-11.9548,0.7143,0.8341,-0.2608,75,10.215,197,-2.7681,6.2764,-10.103,0.2572,-0.7437,-0.4027,84,10.635,205,7.3884,-2.6261,-8.0908,1.0802,0.0543,1.3883,72,9.85,190,4.5629,0.7811,-7.0063,-1.0475,-0.3658,1.1282,40
9.868,190,-3.1017,-2.4699,-13.1092,0.354,1.1616,0.1105,75,10.267,198,-3.5391,4.2995,-10.2444,0.8333,-0.6213,-0.0412,84,10.686,206,4.9061,0.5581,-8.4543,1.3017,0.3228,1.6587,72,9.902,191,8.4289,-4.7267,-11.8495,-0.1055,-0.4004,1.1198,40
9.919,191,-3.959,-4.0132,-12.7544,0.2502,0.9793,0.4614,75,10.319,199,-3.2628,3.9063,-10.1569,1.0796,-0.3566,-0.1005,84,10.738,207,8.8465,2.3921,-10.8741,0.87,0.576,1.2109,72,9.954,192,8.1429,-8.1887,-13.3391,-0.5225,0.2883,1.0626,40
9.971,192,-4.7836,-8.1267,-13.4835,0.8482,0.8973,0.505,75,10.37,200,-4.5585,5.7505,-8.8189,1.2384,-0.4334,-0.3934,84,10.79,208,11.7223,7.0978,-8.8785,0.5884,0.7608,0.5349,72,10.006,193,7.5819,-3.5295,-14.5197,0.2601,0.8954,0.3665,40
10.023,193,-7.0434,-11.129,-17.8373,1.2935,1.3373,-0.0628,75,10.422,201,-6.0191,9.5238,-9.6006,0.7284,-0.9436,-0.4187,84,10.842,209,9.4763,8.0495,-10.8709,0.0499,1.2336,0.1415,72,10.058,194,4.9147,2.2655,-16.7373,-0.1898,-0.0133,-0.0952,40
10.075,194,-6.0114,-8.5792,-16.4503,0.2666,1.0142,-0.6966,75,10.474,202,-5.0282,12.2778,-12.5388,-0.1484,-0.5871,-0.6436,84,10.894,210,8.166,3.5213,-14.0213,0.4492,0.8276,-0.5545,72,10.11,195,5.7197,-0.5527,-15.8338,-0.8156,-0.6765,-0.6438,40
10.126,195,-5.287,-7.8495,-14.429,0.6576,0.9973,-0.7473,75,10.526,203,-2.6777,10.0836,-14.2027,0.5634,-0.5292,-0.3195,84,10.945,211,7.3016,2.3325,-12.8484,-0.3289,0.4267,-1.0726,72,10.161,196,2.5952,-5.5115,-9.6418,-0.5265,-0.6369,-1.0286,40
10.178,196,-5.3797,-4.7438,-12.7702,0.549,0.7849,-0.5756,75,10.578,204,-1.1766,7.0958,-12.6197,0.2493,-0.0848,0.0649,84,10.997,212,6.7564,3.0084,-11.0505,0.4365,-0.362,-1.4519,72,10.213,197,7.0114,-6.9129,-4.4292,0.2904,-1.1115,-0.5593,40
10.23,197,-4.7322,-4.8025,-12.7913,0.3152,0.5472,-0.24,75,10.629,205,-2.1946,3.6911,-11.4796,0.8454,0.6142,0.4488,84,11.049,213,5.6326,0.4227,-12.3642,0.9951,-0.8297,-1.7337,72,10.265,198,10.2345,0.165,-6.7274,-0.4651,-1.036,-0.9499,40
10.282,198,-3.6721,-4.8945,-13.7186,0.1198,0.1504,0.365,75,10.681,206,-2.5705,5.2998,-11.1293,1.2888,1.0595,0.5224,84,11.101,214,9.3766,-4.9285,-10.4567,1.4028,-1.2496,-1.3589,72,10.317,199,11.4769,4.3458,-8.747,0.3218,-0.2786,-0.7588,40
10.334,199,-2.4098,-8.7699,-15.9198,0.2783,-0.2734,0.943,75,10.733,207,-3.2339,4.8272,-10.3097,0.6969,1.1568,0.4814,84,11.153,215,11.6438,1.7548,-15.0522,0.781,-0.6654,-1.3093,72,10.369,200,11.3194,-0.2421,-9.1976,0.6028,0.4361,-0.4818,40
10.385,200,-5.9495,-11.5984,-16.1113,0.8495,0.0937,0.0286,75,10.785,208,-1.5169,3.5911,-10.3872,1.1118,1.1599,0.8296,84,11.204,216,13.7639,2.5391,-13.1792,-0.1052,0.1927,-0.6633,72,10.42,201,8.8179,0.0113,-9.8452,-0.1907,0.3005,0.071,40
10.437,201,-6.6409,-10.1906,-16.9866,1.2944,-0.0064,-0.174,75,10.837,209,2.0493,7.9478,-15.5209,1.4832,1.4808,-0.0449,84,11.256,217,7.9933,-1.6453,-17.6096,-0.752,-0.2174,0.0979,72,10.472,202,7.4077,-2.585,-8.8552,0.4519,0.1589,0.4279,40
10.489,202,-8.1995,-2.9279,-17.8364,0.2673,0.0135,0.5125,75,10.888,210,1.1919,10.6157,-19.2676,1.7382,1.7598,0.385,84,11.308,218,7.1654,-5.8197,-18.8857,-0.7524,-0.8321,0.5576,72,10.524,203,4.9977,-1.377,-8.5501,1.0045,0.4889,0.6928,40
10.541,203,-6.947,-2.3,-14.6369,-0.4823,-0.6595,0.4344,75,10.94,211,-4.8001,10.0092,-20.2067,1.1528,1.9635,-0.2685,84,11.36,219,6.8933,-3.9444,-13.9307,0.1274,-1.2807,1.0095,72,10.576,204,-1.1174,4.2872,-14.2214,0.2215,-0.0228,0.7115,40
10.592,204,-6.4547,-0.8286,-13.2452,0.1989,-0.5473,0.1853,75,10.992,212,-6.613,7.6503,-19.2448,0.4884,0.7604,0.4113,84,11.412,220,6.5437,-8.1158,-18.1721,0.7695,-0.2684,0.9368,72,10.628,205,4.3018,-1.9661,-12.8829,0.8363,-0.4097,0.0677,40
10.644,205,-6.7948,-0.5195,-17.6635,-0.5322,-0.6905,-0.0084,75,11.044,213,-4.5669,6.929,-18.9344,0.3809,-0.1177,0.5988,84,11.463,221,8.49,-8.9115,-21.2677,0.7816,-0.2149,0.4548,72,10.679,206,8.2569,0.7764,-13.8465,-0.0667,-0.3601,0.5992,40
10.696,206,-5.5766,-5.4262,-20.8252,-0.9982,-1.1733,-0.572,75,11.096,214,-0.1804,8.3733,-20.182,-0.3474,-0.7586,0.1439,84,11.515,222,10.1041,-3.3492,-20.8267,-0.1048,0.2588,-0.0801,72,10.731,207,6.3968,3.3039,-15.3451,0.4622,-0.0025,0.2861,40
10.748,207,-4.7741,-5.8344,-21.6229,-0.1202,-0.6583,-0.7762,75,11.147,215,0.5447,8.473,-20.2506,-0.9335,-1.1718,-0.5109,84,11.567,223,7.7415,-5.2857,-20.753,0.6001,0.7707,-0.508,72,10.783,208,3.7668,3.8257,-13.5666,-0.3398,0.2087,0.0289,40
10.8,208,-3.1404,-5.6804,-19.8444,-0.7651,0.202,-0.8982,75,11.2,216,-0.4013,7.0545,-19.878,-1.3614,-0.8244,-0.4045,84,11.619,224,5.6328,-2.2667,-17.7,1.0553,0.6115,-1.0126,72,10.835,209,3.6918,5.1248,-12.6902,-0.925,0.8295,-0.4163,40
10.852,209,-0.5812,-7.3955,-17.6857,-0.2172,0.8298,-0.3147,75,11.251,217,-2.5474,4.9955,-20.0093,-0.3219,0.0774,-0.0198,84,11.671,225,4.8232,-1.1664,-14.7826,0.2593,0.5902,-1.3403,72,10.887,210,3.161,1.5079,-13.0338,-0.4528,1.2904,-0.9752,40
10.904,210,-1.0848,-4.8303,-16.5132,0.5112,1.2881,0.1262,75,11.303,218,-2.5291,8.8977,-16.031,0.2257,-0.4057,0.6509,84,11.722,226,4.1907,0.4097,-12.5613,-0.4729,0.8576,-1.4551,72,10.938,211,3.5022,-0.7647,-17.4938,0.3442,1.2058,-1.3832,40
10.955,211,-2.6371,-2.5892,-17.484,1.0475,1.6225,0.5337,75,11.355,219,-3.8788,5.7321,-14.4222,-0.0815,0.0549,0.2034,84,11.774,227,-1.5681,0.2666,-17.1726,-0.6595,1.3042,-1.4194,72,10.99,212,7.6734,4.7341,-12.5192,-0.4259,0.6446,-1.4173,40
11.007,212,-7.4531,-1.2042,-17.9424,0.2387,1.607,0.7449,75,11.407,220,-2.5833,5.0198,-12.4913,0.4028,0.0184,-0.1353,84,11.826,228,4.1213,-0.0221,-14.3606,-1.1565,0.9591,-0.3582,72,11.042,213,10.7176,5.0936,-11.8795,-0.3893,0.2778,-0.9176,40
11.059,213,-7.469,-5.0189,-21.0916,0.8379,0.5035,0.2573,75,11.459,221,-2.1824,4.8658,-12.7378,0.9599,0.1185,-0.3338,84,11.878,229,5.6832,-5.2532,-13.5894,-0.9894,1.0338,-0.2348,72,11.094,214,8.2777,4.0098,-11.5084,0.2078,0.7895,-0.5894,40
11.111,214,-0.3936,-7.1936,-23.3901,-0.0569,-0.3018,-0.3541,75,11.51,222,-1.6738,8.8781,-17.2365,1.2335,-0.2294,-0.9287,84,11.93,230,6.6331,-9.071,-13.5477,-1.3973,1.4328,0.2408,72,11.146,215,6.2748,2.9987,-13.8828,-0.5254,0.3919,0.2502,40
11.162,215,-4.5721,-10.4479,-23.1468,0.6049,0.4083,-0.9262,75,11.562,223,-4.9421,11.8065,-20.5198,0.4779,0.5117,-0.9515,84,11.981,231,5.9636,-8.3565,-12.6044,-1.695,0.8139,0.7996,72,11.197,216,5.3606,0.8133,-13.0729,-0.2172,-0.2284,0.8629,40
11.214,216,-1.1865,-4.2521,-17.9869,0.1018,-0.2536,-0.5413,75,11.614,224,-3.157,12.2785,-19.6076,-0.3226,-0.2992,-1.1801,84,12.033,232,3.4645,-11.336,-12.0184,-1.1811,0.4699,1.2576,72,11.249,217,3.9324,0.7845,-9.9958,-0.541,-0.4148,1.3101,40
11.266,217,-2.9334,-3.3593,-16.6348,-0.6031,-0.0514,0.1228,75,11.666,225,-2.2193,3.7006,-17.1477,-0.9154,0.3065,-1.5476,84,12.085,233,3.757,-4.8147,-12.1199,-0.1855,0.2158,1.5953,72,11.301,218,3.0603,5.8647,-14.4624,-1.0719,-0.549,1.6366,40
11.318,218,-2.5318,-2.9329,-14.8949,-0.2239,-0.3038,0.3527,75,11.718,226,-1.4839,2.1679,-15.5521,-0.3178,0.6536,-0.4642,84,12.137,234,2.6255,-2.8819,-13.7188,-0.8076,0.2375,1.4618,72,11.353,219,7.3509,-1.0165,-16.2699,-0.1077,-0.2215,1.0555,40
11.37,219,-1.5981,-3.0745,-15.191,-0.281,-0.5444,0.4661,75,11.769,227,-2.4943,1.9876,-16.4427,0.0871,0.9319,0.1942,84,12.189,235,7.182,-7.3404,-15.0306,-0.9267,-0.0429,1.4293,72,11.405,220,4.376,-1.3583,-17.6009,-0.7557,0.5233,0.6906,40
11.421,220,-2.0065,-6.308,-18.6319,-0.0615,-0.681,0.4672,75,11.821,228,-2.984,4.809,-17.1158,0.7252,0.2367,0.3051,84,12.24,236,7.9553,-8.9581,-16.4005,-1.0612,-0.2006,1.308,72,11.457,221,5.8072,2.3321,-19.2262,0.1232,1.0669,-0.1674,40
11.473,221,-3.526,-6.092,-21.5949,0.5132,0.1571,0.3264,75,11.873,229,-3.0591,7.5839,-20.3296,0.4328,-0.4999,0.086,84,12.292,237,9.1491,-6.7605,-14.5291,-1.0296,0.5154,0.6733,72,11.508,222,3.9343,3.4805,-18.6022,0.6152,0.1448,-0.3167,40
11.525,222,-4.5289,-6.0222,-20.507,-0.3028,0.0723,0.0452,75,11.925,230,-2.781,9.395,-22.7772,-0.3503,-0.8631,0.1242,84,12.344,238,7.8651,-5.6356,-13.6811,-0.0749,0.021,-0.1826,72,11.56,223,4.8971,4.0669,-17.7078,-0.057,-0.5611,-0.3132,40
11.577,223,-4.1513,-5.375,-17.018,0.3048,0.4162,-0.0224,75,11.977,231,-2.4883,6.9271,-21.9322,-0.5445,-0.5567,0.756,84,12.396,239,6.3648,-2.1711,-11.6423,-0.7299,-0.0157,-0.5829,72,11.612,224,5.7516,2.0332,-12.7401,-0.7187,-1.0763,-0.6668,40
11.628,224,-4.2493,-3.8494,-14.3479,0.1217,0.1413,-0.3758,75,12.028,232,-0.4091,6.0899,-16.5053,0.2743,-0.0958,1.1095,84,12.447,240,5.4424,-2.9416,-9.7677,-1.2079,0.3001,-0.7605,72,11.664,225,4.4573,-2.0226,-17.2795,-0.9009,-0.1764,-0.9967,40
11.68,225,-4.9187,-3.429,-14.2965,0.2585,0.0435,-0.5828,75,12.08,233,-1.0206,5.7125,-14.6506,0.3699,0.6091,0.6516,84,12.499,241,4.5869,-5.3304,-15.1338,-1.0089,0.5861,-1.2037,72,11.716,226,8.2765,3.816,-18.9212,-0.6839,-0.2933,-0.3636,40
11.732,226,-5.3237,-6.0665,-17.2728,-0.3446,-0.6376,-0.627,75,12.132,234,-0.6443,5.2023,-15.0183,0.1697,0.9261,-0.0294,84,12.551,242,8.6135,-5.246,-13.0142,-0.2405,0.1198,-0.2976,72,11.767,227,11.1291,-2.5117,-20.1201,0.1755,0.3928,0.0649,40
11.784,227,-5.0956,-9.1348,-20.6029,0.4229,-1.1347,-0.1307,75,12.184,235,-0.5168,4.8235,-16.7616,0.4429,0.7249,-0.6766,84,12.603,243,10.3874,-9.0658,-11.5913,0.0204,-0.3724,-0.485,72,11.819,228,9.4505,-3.535,-17.4266,-0.5473,0.9634,0.2867,40
11.836,228,-4.3098,-8.6089,-22.6102,0.983,-1.4679,0.5164,75,12.236,236,-1.7253,7.7003,-17.3806,-0.2805,0.2172,-1.1802,84,12.655,244,12.5581,-5.4184,-13.2998,-0.2953,0.0138,-0.7357,72,11.871,229,7.8505,-1.228,-15.8033,-0.6395,0.6856,0.6635,40
11.887,229,-7.5205,-8.2998,-21.386,0.9551,-0.8564,0.2638,75,12.287,237,-6.2789,7.3558,-20.2977,-0.7617,0.8376,-1.5478,84,12.706,245,11.2834,-9.1916,-16.6814,0.1523,0.6884,-0.9268,72,11.923,230,6.2207,-2.0591,-13.2827,0.2079,1.0031,0.7697,40
11.939,230,-3.8859,-7.8986,-16.919,1.1047,-0.6125,-0.3788,75,12.339,238,-5.028,8.9539,-22.754,-0.7219,-0.0614,-0.7268,84,12.758,246,10.1087,-5.848,-17.4394,-0.1363,-0.0308,-0.0712,72,11.974,231,5.6366,-1.2996,-11.6979,0.8264,1.4171,0.7185,40
11.991,231,-5.9897,-3.617,-15.5572,1.4806,0.2354,-0.0554,75,12.391,239,-3.0909,7.4648,-18.854,-1.2069,-0.203,-0.2748,84,12.81,247,10.8944,-4.0719,-15.4771,0.577,-0.6958,0.5954,72,12.026,232,4.5013,-1.881,-11.5073,0.5711,1.7192,0.791,40
12.043,232,-5.0863,1.6028,-14.2419,1.4772,0.5475,-0.0058,75,12.443,240,-1.9806,3.5456,-15.2461,-1.5609,-0.7004,0.2597,84,12.862,248,7.343,-0.0788,-11.6933,0.7401,-0.3613,1.0947,72,12.078,233,8.4026,3.9193,-6.4603,-0.2603,0.6062,0.8229,40
12.095,233,-5.4533,0.1857,-14.3332,0.4008,0.6976,-0.0113,75,12.495,241,-2.0087,0.4088,-13.8328,-1.2076,-0.3547,0.6215,84,12.914,249,10.625,5.0329,-10.9378,-0.135,-0.0561,1.4162,72,12.13,234,7.8937,7.5497,-10.4195,0.2692,0.8204,0.8737,40
12.146,234,-5.8631,-5.0622,-16.0678,-0.0957,-0.1381,0.3706,75,12.546,242,-0.0705,2.2237,-12.9915,-0.2715,0.0146,0.6898,84,12.965,250,13.0203,4.4999,-11.3508,0.2788,-0.6033,1.2949,72,12.182,235,8.7207,4.8264,-10.9019,0.7036,1.0728,0.4613,40
12.198,235,-4.8654,-8.8923,-15.3885,0.5742,-0.5596,-0.3264,75,12.598,243,0.0037,6.3441,-13.3723,0.2033,0.5144,0.1297,84,13.017,251,13.6861,4.5691,-11.2192,0.083,0.1095,0.9547,72,12.233,236,6.2347,7.4116,-12.1022,0.4175,0.597,-0.2195,40
12.25,236,-3.3807,-8.9641,-13.4803,-0.1454,-0.5438,-0.9133,75,12.65,244,-1.14,9.957,-16.112,0.7477,1.0545,-0.0743,84,13.069,252,13.4709,3.5669,-10.876,0.7034,-0.3686,0.0848,72,12.285,237,7.0383,5.6413,-11.9207,-0.3724,0.2953,-0.8232,40
12.302,237,-1.6286,-8.5603,-12.2609,-0.7835,0.2855,-1.2109,75,12.702,245,-2.2005,12.5939,-19.6991,1.0761,1.2316,0.6112,84,13.121,253,11.1989,5.7579,-8.2167,0.1395,-0.1621,-0.5463,72,12.337,238,6.8909,4.1124,-11.2603,0.0991,0.6455,-1.2722,40
12.354,238,-3.3877,-6.9599,-12.6191,-0.6147,0.8908,-0.8928,75,12.754,246,-0.8726,8.6639,-16.1643,0.6729,0.3252,0.9284,84,13.173,254,9.4974,3.5759,-7.9408,-0.4056,0.5402,-1.027,72,12.389,239,2.3928,-2.2954,-11.9052,-0.5109,1.1561,-1.5999,40
12.406,239,-4.2196,-5.189,-12.8649,-0.338,1.3326,-0.4055,75,12.806,247,-4.2611,5.6707,-13.4503,0.0773,0.1503,0.4914,84,13.224,255,8.3488,2.6837,-8.9652,-0.1103,1.0344,-1.2146,72,12.441,240,6.8636,3.3513,-6.0812,0.2331,0.177,-0.7973,40
12.457,240,-4.4583,-4.0024,-12.5318,-0.5658,1.1051,-0.092,75,12.857,248,-4.5943,3.9137,-12.398,0.2009,-0.3188,0.1331,84,13.276,256,11.3591,-3.2783,-3.9592,0.2896,0.9693,-0.635,72,12.492,241,9.8419,-1.0053,-7.9305,0.5636,0.477,-0.803,40
12.509,241,-2.7501,-5.8942,-12.5002,-0.6032,0.8669,-0.3523,75,12.909,249,-4.1888,3.3796,-12.2932,-0.5046,-0.676,0.1329,84,13.328,257,13.5561,-1.7651,-9.3388,-0.0584,0.6893,-0.8458,72,12.544,242,10.9834,-2.7469,-7.2439,0.1657,0.9482,-0.3143,40
12.561,242,3.0385,-9.4995,-17.1197,-1.1176,0.8841,-0.5207,75,12.961,250,-1.6047,2.6273,-14.8718,-1.0483,-1.1465,0.3076,84,13.38,258,15.1596,3.4016,-9.0704,-0.5821,0.9286,-0.6646,72,12.596,243,8.888,-3.0359,-7.8331,0.4131,0.7263,0.2224,40
12.613,243,-1.7832,-11.2666,-19.2396,-0.1435,1.1399,-0.7253,75,13.013,251,3.7487,7.2444,-17.7863,-0.1492,-0.2927,-0.1389,84,13.432,259,10.6529,-2.3035,-10.9827,-1.1001,1.2998,0.1457,72,12.648,244,8.7978,-1.6573,-9.9997,-0.2142,-0.1367,0.8388,40
12.664,244,-2.7293,-9.6457,-16.1418,0.5466,0.1664,-0.0583,75,13.065,252,2.766,10.6141,-16.2137,-0.2841,0.4655,0.4795,84,13.483,260,8.8261,-6.9021,-10.8489,-1.0498,0.8102,0.7841,72,12.699,245,7.1797,-0.7731,-7.3219,-0.2933,-0.5328,1.2923,40
12.716,245,-2.0884,-3.9928,-14.6626,1.0733,-0.4123,0.4248,75,13.116,253,0.9839,10.1371,-17.7647,-0.8874,1.0188,-0.3355,84,13.535,261,7.7084,-4.3627,-11.3012,-0.0897,0.2827,1.25,72,12.751,246,5.6597,-3.6716,-12.1237,-0.1219,0.1711,1.6235,40
12.768,246,-0.0439,-0.7672,-13.5839,0.2533,-0.312,0.5364,75,13.168,254,-3.71,2.1377,-20.9053,-0.7822,1.1344,-0.7552,84,13.587,262,5.119,-1.554,-11.3595,0.0628,0.2052,1.5536,72,12.803,247,9.248,2.6125,-14.7894,-0.766,0.2696,1.2572,40
12.82,247,0.7479,-1.6447,-13.022,-0.4925,0.088,0.5386,75,13.22,255,-2.0272,0.3074,-20.1899,0.1008,0.1553,-0.2183,84,13.639,263,9.0018,4.1998,-11.3144,-0.0233,-0.5236,0.8399,72,12.855,248,11.2759,7.1988,-16.7475,-0.3288,0.4609,0.7762,40
12.872,248,1.9728,-6.3981,-14.8563,-0.7772,0.0041,0.781,75,13.272,256,-1.0738,1.2956,-17.1145,0.7453,-0.5594,-0.2301,84,13.69,264,11.8357,8.4171,-12.6473,-0.6923,-0.6554,0.2978,72,12.907,249,12.5074,2.9478,-15.6992,0.4312,0.9651,0.4607,40
12.923,249,-0.1499,-9.8673,-18.8393,0.1071,0.4261,0.2938,75,13.324,257,-1.5685,5.7556,-14.3862,1.2128,-1.0805,-0.33,84,13.742,265,12.6644,5.7882,-12.9681,-0.5407,0.0548,0.1348,72,12.958,250,7.6965,5.0088,-19.4392,0.4478,1.2343,0.0356,40
12.975,250,-2.5199,-9.0209,-19.2293,-0.4996,0.6749,-0.0048,75,13.375,258,-2.5604,9.5275,-14.7249,1.2045,-1.1517,-0.495,84,13.794,266,12.3149,2.1601,-12.3109,0.1783,-0.0018,-0.5182,72,13.01,251,7.174,7.2483,-18.454,0.0338,0.234,-0.3208,40
13.027,251,-3.1774,-6.1511,-16.4625,0.2912,0.0557,0.0806,75,13.427,259,-2.961,12.2805,-16.3032,1.1305,-0.9367,0.1984,84,13.846,267,11.3465,5.2802,-11.1547,0.4128,-0.59,-1.0491,72,13.062,252,6.519,3.8587,-15.0319,-0.6524,-0.496,-0.5968,40
13.078,252,-3.456,-1.609,-13.8108,0.0502,-0.143,0.1624,75,13.479,260,-1.9795,7.9717,-14.4801,1.2298,-1.3445,0.5323,84,13.897,268,8.7108,2.946,-7.7098,0.8856,-0.4377,-1.4397,72,13.114,253,4.8813,2.1788,-11.6127,-0.0545,0.0076,-1.0878,40
13.13,253,-2.6246,-1.9834,-12.3849,-0.6407,-0.2311,-0.0719,75,13.531,261,-1.901,6.1815,-11.1789,1.0269,-0.5828,0.3565,84,13.949,269,5.347,-3.0869,-13.6318,1.3229,-0.038,-1.7248,72,13.166,254,5.3253,0.8849,-13.5475,0.6349,0.6905,-0.7678,40
13.182,254,-1.9678,-3.933,-13.2385,-0.9741,-0.452,-0.2654,75,13.583,262,-1.8879,3.8588,-10.4246,0.9965,-0.0436,0.3155,84,14.001,270,8.4135,-3.0664,-11.3687,0.2903,0.1116,-0.7309,72,13.217,255,9.004,-4.651,-15.7467,0.5427,0.4371,-0.395,40
13.234,255,-1.5112,-6.5366,-15.4411,-0.6807,-0.5809,-0.327,75,13.634,263,-1.3983,4.0146,-10.9231,1.399,0.5059,0.1204,84,14.053,271,9.8903,-7.4203,-10.8908,0.8884,0.4836,-0.7541,72,13.269,256,8.2207,-3.8873,-14.6559,0.1104,0.9344,-0.1829,40
13.286,256,0.3397,-7.2612,-18.5725,0.1559,-0.5261,-0.5354,75,13.686,264,-0.6857,6.9409,-12.0222,0.6257,0.7872,-0.2223,84,14.105,272,8.1505,-10.6527,-10.2943,0.0754,1.0108,-0.2171,72,13.321,257,8.1084,-2.5985,-13.5827,0.1419,0.9932,0.2677,40
13.337,257,-0.1098,-8.0047,-19.3292,-0.5636,0.0198,-0.5366,75,13.738,265,-1.132,9.3635,-15.0814,0.2416,1.0523,0.1081,84,14.156,273,7.717,-6.78,-10.748,0.5239,1.0491,-0.342,72,13.373,258,6.4889,-3.7604,-13.5388,-0.4239,0.6186,0.7161,40
