right_hand_timestamp,right_hand_index,right_hand_accel_x,right_hand_accel_y,right_hand_accel_z,right_hand_gyro_x,right_hand_gyro_y,right_hand_gyro_z,right_hand_battery_percentage,left_hand_timestamp,left_hand_index,left_hand_accel_x,left_hand_accel_y,left_hand_accel_z,left_hand_gyro_x,left_hand_gyro_y,left_hand_gyro_z,left_hand_battery_percentage,right_leg_timestamp,right_leg_index,right_leg_accel_x,right_leg_accel_y,right_leg_accel_z,right_leg_gyro_x,right_leg_gyro_y,right_leg_gyro_z,right_leg_battery_percentage,left_leg_timestamp,left_leg_index,left_leg_accel_x,left_leg_accel_y,left_leg_accel_z,left_leg_gyro_x,left_leg_gyro_y,left_leg_gyro_z,left_leg_battery_percentage
0.201,3,3.7516,2.03,-11.5393,0.8833,0.1595,-0.2772,86,0.494,9,8.6742,6.182,-6.3895,0.2514,-1.0024,-0.226,91,0.012,0,3.7045,4.9484,-8.4917,0.3337,0.3925,-0.291,92,0.1,1,7.2897,-4.0837,-3.8385,1.4079,0.3013,-1.0243,63
0.252,4,2.1586,2.3937,-10.4476,0.9231,0.7287,0.2325,86,0.546,10,11.2496,8.1058,-4.9347,-0.4965,-1.389,0.0779,91,0.064,1,7.9694,-1.6255,-4.0617,0.2425,0.5876,0.1558,92,0.152,2,6.443,-5.1797,-6.2893,0.3618,0.9049,-0.5301,63
0.304,5,3.0434,2.523,-12.6583,1.0734,-0.1375,-0.5054,86,0.598,11,7.3374,5.0783,-8.0527,-0.0156,-0.3347,0.5484,91,0.116,2,11.0822,0.2157,-4.6473,-0.4982,-0.1228,0.6095,92,0.204,3,4.7382,-4.8862,-12.5714,0.8171,1.2064,-0.0445,63
0.356,6,7.2777,0.2833,-13.7127,0.9872,-0.1895,-0.1746,86,0.649,12,2.9569,0.7108,-9.7772,0.6603,-0.685,1.0656,91,0.167,3,9.5418,0.87,-9.4668,-1.0388,0.3216,1.1225,92,0.255,4,8.5754,1.726,-7.9645,0.9418,0.2222,-0.623,63
0.408,7,10.3679,-3.1089,-14.7445,1.0713,0.0759,0.5416,86,0.701,13,4.7503,5.2005,-8.9883,1.1537,0.0097,0.8087,91,0.219,4,8.8232,2.8424,-11.5904,-1.4334,0.913,1.2803,92,0.307,5,4.8556,6.4898,-12.0131,0.5003,0.4641,-0.4403,63
0.46,8,7.0909,-2.5168,-11.7023,0.9101,0.737,0.5204,86,0.753,14,2.9156,4.8307,-8.5621,1.1577,0.2162,1.2556,91,0.271,5,7.2326,3.6984,-11.3063,-1.0137,1.3447,0.4141,92,0.359,6,8.6611,3.538,-12.6088,0.5365,0.827,-0.0636,63
0.511,9,-0.3571,-0.5308,-14.377,0.7802,0.2065,0.2921,86,0.805,15,1.4365,4.9813,-8.2461,1.4695,0.6303,1.2226,91,0.323,6,4.5214,3.8144,-12.3104,-0.0633,1.5774,-0.3718,92,0.411,7,9.0865,0.803,-11.0973,1.0663,1.2885,0.0818,63
0.563,10,0.0274,-0.5048,-12.9607,0.4933,-0.5186,-0.2127,86,0.857,16,2.8828,5.7401,-6.7188,0.6612,0.2347,1.0483,91,0.375,7,3.5925,3.0146,-12.8273,0.6303,1.4049,-0.9454,92,0.463,8,9.9191,1.2166,-12.3806,1.3813,0.2885,0.2541,63
0.615,11,2.6556,-1.4417,-11.3623,0.6976,-1.0479,-0.8304,86,0.909,17,7.0228,2.4252,-9.6275,0.4579,0.716,0.8532,91,0.426,8,3.8281,1.7806,-13.0586,1.1366,0.6466,-1.364,92,0.514,9,5.5497,0.0286,-7.7047,0.992,0.7957,0.4636,63
0.667,12,2.6627,-1.2021,-10.7717,1.1835,-0.4578,-1.1192,86,0.96,18,10.0443,2.4847,-9.2255,-0.3458,0.3383,0.3398,91,0.478,9,8.0597,-3.9375,-10.9071,0.5975,-0.1822,-0.5936,92,0.566,10,4.9257,0.4268,-10.4586,0.8304,1.2657,0.7191,63
0.718,13,1.9221,0.5346,-9.4199,1.4588,0.3483,-0.651,86,1.012,19,6.697,0.5564,-10.2787,-0.9324,0.926,-0.1899,91,0.53,10,0.6393,-8.1108,-15.4022,1.0028,-0.5405,-0.6699,92,0.618,11,3.4566,0.0308,-13.665,0.2977,0.8063,0.9634,63
0.77,14,1.9498,1.8315,-8.4128,1.0791,0.4819,-0.7436,86,1.064,20,-0.7823,-2.8613,-13.7639,-0.2345,0.6148,0.0228,91,0.582,11,5.4902,-3.1737,-17.016,0.3994,0.2401,-0.4057,92,0.67,12,7.6401,-5.2743,-16.8068,-0.4173,-0.0779,0.4438,63
0.822,15,6.4795,0.5317,-11.2666,0.6063,0.6033,-0.9386,86,1.116,21,-0.8041,-1.6878,-13.2229,0.5006,-0.0577,0.2449,91,0.634,12,7.9034,-3.1149,-20.4239,-0.3837,0.6821,0.3716,92,0.721,13,10.1001,-7.411,-19.9999,-0.8789,-0.7218,0.0965,63
0.874,16,9.7855,-0.9016,-11.0606,0.2198,0.5029,-0.2395,86,1.168,22,0.8112,0.6421,-11.2237,0.5306,-0.6071,-0.0856,91,0.686,13,6.8986,-2.7607,-21.6829,0.1965,-0.1756,0.3513,92,0.773,14,12.4888,-6.7934,-18.9568,-0.3962,-0.599,0.202,63
0.926,17,6.5049,-0.7842,-8.8045,-0.3176,0.9473,-0.0406,86,1.219,23,0.5624,0.3695,-10.8883,0.182,-0.3484,-0.2211,91,0.737,14,7.8366,-3.709,-18.5503,0.079,-0.8015,0.5621,92,0.825,15,13.5345,-1.1897,-13.4082,0.3855,0.2478,0.634,63
0.977,18,3.3476,-0.9001,-8.5795,-0.9075,0.8142,-0.0703,86,1.271,24,-0.4958,0.0821,-9.1767,0.5342,0.3241,-0.405,91,0.789,15,5.7517,-3.0356,-10.9548,0.6345,-1.2397,0.9388,92,0.877,16,11.8424,0.6476,-17.7671,0.5876,0.1281,-0.1323,63
1.029,19,0.7191,-0.2499,-8.9518,-0.3334,-0.0503,-0.1888,86,1.323,25,-1.6297,1.0005,-6.9773,1.039,-0.1505,-0.0921,91,0.841,16,6.8895,-1.889,-9.4225,0.3914,-0.4061,1.3629,92,0.929,17,7.7097,0.1673,-13.4407,0.7638,-0.0222,-0.7679,63
1.081,20,0.6205,-0.2799,-8.9586,-0.4431,-0.706,-0.4111,86,1.375,26,3.7293,6.0571,-12.4274,0.0783,-0.7825,0.0473,91,0.893,17,7.9638,3.9732,-6.4274,-0.026,0.382,1.6686,92,0.98,18,5.8015,-1.8401,-12.9071,0.9441,0.3251,-1.2319,63
1.133,21,2.001,0.0166,-8.1106,-0.6977,-1.1368,-0.7422,86,1.427,27,7.6406,5.2649,-13.1148,0.7289,0.1029,-0.6136,91,0.944,18,6.0337,-2.3372,-3.4608,0.5724,-0.3604,0.7558,92,1.032,19,4.5695,-4.3045,-12.2422,1.3637,0.2565,-1.3791,63
1.185,22,1.3855,-0.0123,-6.5783,-0.5727,-0.282,-0.2203,86,1.478,28,7.4752,4.6498,-14.087,0.2407,0.709,-0.6275,91,0.996,19,9.6694,-3.5001,-10.468,0.1462,0.1977,0.2701,92,1.084,20,3.7587,-6.9165,-12.1035,0.3184,-0.0736,-0.7527,63
1.236,23,3.0294,1.3341,-5.9495,-0.4413,0.3517,-0.2818,86,1.53,29,4.6059,4.0206,-13.241,0.4329,1.1966,-0.5359,91,1.048,20,12.3229,0.9843,-11.1838,0.0667,-0.0344,0.6636,92,1.136,21,7.8606,-9.0682,-14.0451,-0.4447,-0.236,0.019,63
1.288,24,7.2675,0.1184,-11.9379,-0.9948,0.4328,0.0893,86,1.582,30,1.6852,1.8115,-12.5287,-0.2058,0.2861,-0.4185,91,1.1,21,10.9495,-2.2195,-12.4631,-0.5899,0.4962,0.2703,92,1.188,22,0.8121,-9.4185,-13.3324,0.0122,0.4042,-0.1517,63
1.34,25,10.3606,-2.3696,-12.9369,-0.8909,0.5164,0.3866,86,1.634,31,0.9956,1.4395,-10.0147,-0.6354,-0.0284,-0.2473,91,1.152,22,8.0437,-3.0478,-16.014,0.2459,0.6814,-0.4605,92,1.239,23,1.3565,-2.7432,-15.4127,0.6451,0.9325,-0.0869,63
1.392,26,8.0053,-0.5321,-11.0482,-0.6025,0.7688,0.2405,86,1.686,32,0.8873,1.5185,-9.1426,-1.1438,-0.2159,-0.2316,91,1.204,23,7.7893,-0.7136,-16.0479,-0.4958,0.2885,0.0019,92,1.291,24,6.0595,-4.494,-14.9234,0.1578,1.2339,0.2953,63
1.444,27,2.4797,4.0675,-13.9061,-0.3074,1.2436,-0.1609,86,1.737,33,0.8608,0.6591,-8.4179,-1.5148,-0.3354,0.4895,91,1.256,24,6.8528,1.3263,-10.9187,-0.4226,0.4003,-0.4439,92,1.343,25,7.3325,-3.6735,-11.2762,0.7899,1.5855,0.1507,63
1.495,28,1.9017,2.8669,-13.2587,-0.9017,0.2383,-0.7925,86,1.789,34,0.8347,-0.2656,-7.1266,-1.3083,0.4283,0.4959,91,1.307,25,5.6006,2.0734,-8.288,0.1131,0.9705,-0.656,92,1.395,26,6.9694,-1.103,-11.4799,1.2512,1.2581,-0.1337,63
1.547,29,6.4444,1.5408,-14.1223,-0.9804,-0.4533,-0.3465,86,1.841,35,5.5279,-1.7114,-8.3753,-0.4256,-0.3583,0.2962,91,1.359,26,5.6667,-0.7912,-12.6039,-0.4626,1.3867,-0.6852,92,1.446,27,4.5295,-2.3325,-11.01,1.1414,0.6228,0.3657,63
1.599,30,4.3723,0.1668,-12.9829,-0.2221,-0.4262,-0.7397,86,1.893,36,8.9533,1.9192,-6.7694,-0.7364,-0.1749,-0.4406,91,1.411,27,-1.0557,-1.6332,-17.2038,0.155,1.2672,-0.9453,92,1.498,28,3.4276,-2.1362,-11.7075,0.5654,0.0098,0.9249,63
1.651,31,4.8412,0.4509,-10.9684,-0.4138,-0.8868,-0.9869,86,1.945,37,7.5239,1.4195,-6.2057,-1.0277,0.5514,-0.5239,91,1.463,28,-6.0947,4.1599,-20.1175,0.5995,0.5894,-1.0358,92,1.55,29,1.7598,-0.4018,-10.295,0.1037,-0.4353,1.2612,63
1.703,32,4.5646,-0.4187,-8.5111,0.3724,-1.239,-1.2509,86,1.997,38,-0.1788,2.4728,-11.2891,-0.6075,1.0636,-1.0416,91,1.515,29,0.8176,3.9206,-19.0507,0.0096,0.6133,-0.6744,92,1.602,30,4.9881,4.9989,-12.2828,0.0897,-0.652,1.0081,63
1.755,33,8.3878,1.2762,-9.4386,0.9462,-0.2219,-1.5881,86,2.049,39,-0.4257,2.9707,-11.2311,0.2284,0.1036,-1.1524,91,1.566,30,5.8625,0.1169,-16.4552,-0.6682,1.126,-0.3381,92,1.654,31,8.7105,-1.6484,-16.9457,-0.6001,-0.4425,0.9216,63
1.806,34,11.1782,0.2316,-10.7592,0.0132,0.5205,-0.4843,86,2.1,40,1.3238,1.5012,-13.6881,-0.5133,-0.597,-0.7236,91,1.618,31,7.2132,3.1004,-19.9266,-0.7734,0.2078,0.3871,92,1.706,32,11.4746,-2.4566,-14.3062,-0.2584,-0.2525,0.4842,63
1.858,35,7.6101,-0.3018,-11.4903,-0.6559,1.0623,0.289,86,2.152,41,0.7206,-0.422,-13.1789,-1.0054,0.0166,-0.9756,91,1.67,32,5.603,0.848,-16.0984,-0.9963,-0.2282,0.9603,92,1.757,33,11.6359,-0.9609,-12.9695,0.1444,0.5007,0.7395,63
1.91,36,2.5506,-1.8459,-12.1397,-0.8318,1.4577,0.4049,86,2.204,42,0.2766,-0.1914,-12.9926,-0.1268,-0.4742,-1.36,91,1.722,33,5.4238,0.1653,-14.0403,-1.1353,-0.2777,1.3786,92,1.809,34,8.8583,3.9524,-17.4469,-0.5717,0.8223,0.4553,63
1.962,37,1.7305,-1.1689,-12.6137,-0.0235,0.3946,0.4858,86,2.256,43,4.8052,1.6604,-9.8557,-0.7726,-0.3429,-1.679,91,1.774,34,5.8326,4.829,-12.1024,-0.7297,-0.4375,1.6465,92,1.861,35,9.6304,7.379,-15.8094,-0.1309,-0.0666,-0.3125,63
2.013,38,6.2146,0.2977,-8.4501,0.3662,-0.0728,-0.0255,86,2.308,44,8.4258,6.5387,-8.4984,0.1079,-0.9229,-1.8737,91,1.825,35,4.6081,8.8763,-9.0081,0.144,-0.6372,0.5277,92,1.913,36,5.6102,3.6629,-9.8697,-0.6261,-0.4467,-0.7866,63
2.065,39,4.0491,0.7405,-8.4467,-0.378,0.6293,0.0783,86,2.359,45,10.5978,8.4988,-9.6394,-0.6013,-1.2478,-1.5592,91,1.877,36,8.6289,1.2413,-3.9905,0.7816,-1.127,-0.17,92,1.965,37,5.873,-1.8946,-7.342,-1.1045,0.3579,-0.9597,63
2.117,40,1.9855,0.1768,-7.7477,-0.8749,0.8148,0.279,86,2.411,46,9.5004,7.1076,-11.5947,-0.3909,-0.3295,-1.1749,91,1.929,37,11.5635,-3.7339,-10.9173,1.0046,-0.8832,-0.5007,92,2.016,38,5.1804,-6.6796,-8.4338,-0.1314,0.7159,-0.6696,63
2.169,41,6.5056,2.2858,-13.6511,0.0358,-0.0747,0.2921,86,2.463,47,6.0968,5.1829,-13.6881,-0.0686,-0.0715,-0.7631,91,1.981,38,9.0014,-0.987,-12.9578,0.0596,-0.1506,0.2654,92,2.068,39,8.8982,0.4171,-14.1365,-0.4878,-0.1443,-1.0021,63
2.221,42,9.8045,-1.9331,-14.4748,-0.0633,0.2613,0.8898,86,2.515,48,4.0503,0.9231,-9.927,0.6217,0.5982,0.1084,91,2.033,39,10.5019,-0.0939,-13.5927,-0.6317,0.3291,0.852,92,2.12,40,3.9039,2.6705,-16.736,-0.1167,0.051,-0.5098,63
2.272,43,10.2519,-0.7919,-14.1348,0.6232,0.7844,1.1113,86,2.567,49,1.4268,2.1176,-8.3793,1.1255,0.6586,0.7445,91,2.084,40,9.4953,0.4302,-12.6681,-0.8258,0.5198,0.2462,92,2.172,41,7.5865,0.8691,-17.4169,-0.0006,0.1861,-0.4155,63
2.324,44,5.8474,0.8285,-11.7739,0.9375,1.2549,1.4877,86,2.619,50,0.5903,3.3065,-13.3342,1.491,1.1249,0.4938,91,2.136,41,6.8419,1.4928,-11.2121,-0.9022,0.6962,-0.2621,92,2.223,42,10.6542,-0.8016,-15.9256,0.0415,0.7921,0.0674,63
2.376,45,-1.2646,0.7764,-14.2707,0.9981,0.5845,0.9122,86,2.67,51,-0.9147,3.8922,-12.2667,0.8667,0.8957,0.7577,91,2.188,42,5.9792,2.577,-10.3618,-0.3158,1.0826,-0.8425,92,2.275,43,7.7258,-1.9839,-13.2335,0.6658,1.0321,0.2112,63
2.428,46,-1.6292,1.2607,-12.1015,0.3065,-0.0748,0.4269,86,2.722,52,3.9882,7.5213,-8.3186,0.2737,0.029,0.8259,91,2.24,43,5.8706,2.0559,-11.8352,0.4461,1.0345,-1.2889,92,2.327,44,8.9092,-0.7739,-12.1988,-0.1911,0.0865,0.4193,63
2.48,47,-1.2614,0.0589,-10.9972,0.1065,-0.7239,-0.3558,86,2.774,53,7.8295,7.6753,-10.8251,-0.4362,0.7002,0.2883,91,2.292,44,5.558,-2.0401,-11.6621,1.0021,0.2,-1.6147,92,2.379,45,4.3275,-1.1441,-7.4774,0.5323,0.6898,0.6637,63
2.531,48,2.9875,-1.589,-9.1271,0.5713,-1.1977,-0.4567,86,2.826,54,10.6331,5.3792,-10.6215,-0.9984,0.2604,0.0503,91,2.343,45,9.3222,-6.3748,-5.9275,0.6928,0.4864,-1.1279,92,2.431,46,6.1135,-0.4532,-8.8604,0.8935,1.1884,0.9689,63
2.583,49,1.9702,-0.3968,-9.3252,1.0914,-0.1917,-0.2526,86,2.877,55,6.504,3.3975,-9.7422,-1.4087,0.8691,-0.5366,91,2.395,46,11.6534,-4.3064,-10.3421,0.3821,0.5527,-0.5886,92,2.482,47,6.673,1.1584,-12.1654,0.754,0.7473,0.8644,63
2.635,50,5.5949,1.0877,-12.6419,1.4709,-0.8092,-0.5857,86,2.929,56,3.0362,0.8061,-12.2855,-1.1351,0.4718,0.2014,91,2.447,47,12.6419,-2.3005,-11.9902,0.3665,1.0818,-0.4972,92,2.534,48,8.3527,-1.8761,-16.86,-0.1268,1.0996,0.9102,63
2.687,51,9.1399,-4.0671,-15.1707,1.734,-0.8562,-0.0094,86,2.981,57,5.5485,-0.267,-14.2104,-0.1567,-0.3283,0.7279,91,2.499,48,9.035,-5.537,-16.7558,-0.4076,1.0587,0.2597,92,2.586,49,11.2135,-3.3662,-16.049,-0.1059,1.1334,0.6303,63
2.738,52,7.9597,-0.7183,-13.49,1.3347,-0.1113,0.5303,86,3.033,58,5.5889,-0.5229,-14.2377,0.5573,0.4394,-0.0071,91,2.551,49,9.8965,-5.2957,-18.051,-0.4179,0.0993,0.4809,92,2.638,50,11.2992,-2.7353,-16.3083,-0.0003,1.4994,0.6027,63
2.79,53,2.7455,1.7387,-11.8109,0.297,0.6012,1.0637,86,3.085,59,1.6872,3.5816,-11.3064,0.5712,0.037,0.6602,91,2.603,50,7.3778,-5.008,-12.1677,0.0216,-0.6009,0.5293,92,2.689,51,10.0555,3.2958,-16.6807,0.3651,1.7464,0.5939,63
2.842,54,-0.2718,0.7631,-12.3828,-0.261,-0.2217,0.1169,86,3.136,60,1.8845,2.3502,-9.6482,-0.2629,0.4142,0.5881,91,2.654,51,6.219,-3.6078,-10.3608,0.6923,-0.1596,0.6357,92,2.741,52,8.6731,4.8263,-13.3171,0.387,0.7646,-0.2342,63
2.894,55,-0.1325,0.8691,-11.3278,-0.8502,-0.8311,-0.5898,86,3.188,61,5.5286,4.036,-7.355,0.0998,-0.3004,1.094,91,2.706,52,6.8042,-0.8704,-10.6222,1.1818,0.5619,0.5947,92,2.793,53,5.9688,3.3953,-9.7058,0.9572,0.6259,-0.8424,63
2.945,56,1.777,0.7028,-10.805,-1.2979,-1.2759,-0.8122,86,3.24,62,8.9538,4.8471,-8.9824,-0.6072,0.4472,0.8971,91,2.758,53,5.0205,4.5119,-10.8591,0.3841,0.9054,1.0947,92,2.845,54,4.8587,1.679,-10.2596,1.2761,0.8795,-1.2862,63
2.997,57,1.1519,0.3175,-9.8522,-1.3223,-0.3339,-0.8754,86,3.292,63,11.4536,1.5693,-11.9872,0.1101,0.9875,0.0034,91,2.81,54,8.93,8.6449,-8.6257,0.1483,0.3253,0.1365,92,2.897,55,3.4216,0.1208,-11.9286,0.7351,0.7783,-1.2699,63
3.049,58,2.5577,1.3794,-8.6768,-0.9626,-0.6194,-1.0412,86,3.344,64,7.2777,3.4402,-13.0545,0.7521,1.3998,-0.6839,91,2.861,55,11.3016,7.3,-12.5425,0.0603,0.1194,0.4101,92,2.948,56,1.6229,-4.1857,-12.9676,-0.1406,0.3222,-0.7998,63
3.101,59,6.9232,2.925,-14.2252,-1.3498,-0.6303,-0.7577,86,3.395,65,0.5211,0.5486,-14.7797,-0.1225,1.1733,-1.169,91,2.913,56,13.5142,4.6965,-11.2694,-0.2542,0.3302,0.3561,92,3.0,57,6.3017,-8.3517,-17.4455,-0.6789,-0.3682,-0.1752,63
3.153,60,10.1093,-3.0629,-15.1933,-0.5445,-0.4993,-0.3199,86,3.447,66,-1.0278,1.5516,-13.8397,-0.2938,0.1837,-0.9909,91,2.965,57,11.3454,4.7176,-13.9474,-0.7728,0.301,-0.0318,92,3.052,58,9.7166,-11.3922,-16.1192,-1.1726,-0.9355,-0.1108,63
3.205,61,10.1651,0.0527,-13.3598,0.277,-0.0077,-0.2881,86,3.499,67,0.2997,1.933,-12.5684,-0.8944,-0.5386,-0.5326,91,3.017,58,8.4818,3.5589,-9.3833,-1.2393,-0.0303,-0.2443,92,3.104,59,12.2089,-3.0966,-16.2008,-0.1811,-0.3833,-0.1464,63
3.256,62,4.6123,4.3666,-11.2035,0.6565,0.6768,0.2128,86,3.551,68,1.0239,0.4171,-11.6244,-1.3328,-0.3389,0.0946,91,3.069,59,7.3105,4.2165,-7.8363,-1.5797,0.5527,-0.0999,92,3.156,60,11.5919,-4.9953,-13.189,0.5425,0.4052,0.0829,63
3.308,63,3.7154,5.4084,-10.4933,-0.1431,0.3812,-0.5198,86,3.603,69,0.4986,-0.4451,-9.5163,-1.3358,0.2546,-0.1673,91,3.12,60,6.8825,4.012,-8.1928,-0.7844,1.0817,-0.2339,92,3.207,61,13.5627,0.5571,-12.8055,1.0689,-0.3139,-0.1448,63
3.36,64,6.2448,6.2515,-9.5319,-0.4745,0.9595,-1.0545,86,3.655,70,5.2827,-3.7438,-11.8258,-1.6509,-0.4868,0.4321,91,3.172,61,6.7678,2.2019,-10.3871,0.0658,1.4678,-0.6997,92,3.259,62,8.8265,-0.3375,-9.133,0.9253,-0.403,0.1428,63
3.412,65,7.2143,6.1011,-8.9517,-0.9454,1.3827,-1.4447,86,3.706,71,8.7743,2.4178,-9.2671,-0.7476,-0.2037,-0.371,91,3.224,62,2.8347,-1.5417,-15.5858,0.1208,1.2875,-0.981,92,3.311,63,6.3934,-0.3605,-8.6799,0.391,-0.1641,0.7846,63
3.463,66,7.7446,5.1083,-7.7335,-1.3485,1.6916,-1.7295,86,3.758,72,9.2023,0.4066,-9.7922,-0.9292,0.5304,-0.8478,91,3.276,63,-2.5509,4.1632,-14.1645,0.5978,1.0718,-1.39,92,3.363,64,3.2873,0.9248,-8.9631,-0.3917,0.2087,1.253,63
3.515,67,8.1407,3.874,-7.2516,-1.6494,1.792,-1.9374,86,3.81,73,1.0462,-0.7757,-11.8771,-0.7032,1.0662,-1.3051,91,3.328,64,3.3733,4.1907,-15.7215,0.1431,0.5505,-1.265,92,3.415,65,1.3755,4.1851,-9.9006,-0.9629,0.337,1.553,63
3.567,68,8.3931,-0.4483,-7.693,-1.8632,1.457,-1.9159,86,3.862,74,0.4241,-0.605,-10.3528,0.1585,0.8164,-0.5112,91,3.379,65,7.7277,6.2872,-15.5897,0.1118,1.0549,-0.9491,92,3.466,66,6.1212,-2.2424,-14.9524,-1.3799,0.2874,1.7826,63
3.619,69,11.1821,-5.475,-13.6112,-0.6855,0.3941,-0.7217,86,3.914,75,0.6067,2.1903,-7.5826,0.7417,0.5629,-0.4895,91,3.431,66,5.2876,4.1521,-18.2996,-0.5848,0.9609,-0.015,92,3.518,67,9.5848,-5.3914,-13.441,-1.24,-0.4571,0.9896,63
3.671,70,8.2952,-2.2798,-13.4158,0.1741,0.899,0.1499,86,3.966,76,-0.1086,2.3789,-7.2003,-0.1387,1.0899,-0.983,91,3.483,67,4.4226,-1.9159,-16.4404,-1.102,0.3676,0.6668,92,3.57,68,11.6121,-2.1306,-14.4512,-0.2303,0.2056,0.6648,63
3.722,71,2.9593,0.0913,-12.2107,-0.5249,0.3314,0.7861,86,4.017,77,-0.5099,2.0913,-6.2667,0.5188,1.4745,-1.1833,91,3.535,68,4.1369,-1.4725,-15.1557,-1.4795,-0.0662,1.1644,92,3.622,69,10.6478,3.7371,-18.5283,-0.2902,0.835,0.6373,63
3.774,72,3.0754,0.2802,-12.3299,-0.7849,-0.4275,-0.0633,86,4.069,78,-0.1953,6.0594,-3.6419,0.3815,1.7553,-1.55,91,3.587,69,4.3658,2.9533,-13.6634,-1.3866,-0.6163,1.5276,92,3.674,70,8.1155,4.7655,-18.5488,0.4621,-0.0409,-0.2012,63
3.826,73,5.0422,1.9534,-10.1034,-1.2494,-0.3777,0.6304,86,4.121,79,3.4145,9.7493,-3.559,0.9502,1.6895,-1.7096,91,3.638,70,4.8502,7.5074,-11.2968,-0.3355,-0.7702,0.7348,92,3.725,71,6.8372,3.5199,-15.2066,1.0119,-0.6967,-0.7725,63
3.878,74,4.0279,0.7619,-7.7384,-0.4289,0.1811,1.1367,86,4.173,80,1.3162,12.4423,-3.1518,1.0012,0.7446,-1.9341,91,3.69,71,8.8056,0.2422,-5.6608,0.4317,-1.2273,0.1223,92,3.777,72,5.5673,1.2198,-9.3915,0.3058,-0.6449,-1.1972,63
3.929,75,6.5736,3.811,-5.6701,0.3614,-0.4225,1.1311,86,4.225,81,0.2564,3.8201,-10.2401,0.0507,-0.1292,-0.7462,91,3.742,72,8.1738,-2.6085,-11.9073,0.4723,-1.4724,-0.2109,92,3.829,73,6.6577,-3.5608,-6.221,-0.4539,-0.0667,-1.148,63
3.981,76,9.8541,1.5606,-8.2475,0.6087,-0.3952,1.2083,86,4.276,82,1.4312,-0.2496,-15.1128,0.7087,-0.767,0.1207,91,3.794,73,11.2313,1.1801,-12.1464,-0.309,-0.5599,0.2778,92,3.88,74,6.5417,2.6933,-12.5215,0.3434,0.5391,-0.9256,63
4.033,77,12.2485,-0.2084,-10.1088,1.1186,0.3926,1.333,86,4.328,83,5.9633,5.1447,-12.0159,1.189,-1.2324,0.7535,91,3.846,74,11.9263,-0.6156,-13.1868,0.0413,-0.1327,-0.4595,92,3.932,75,7.6431,3.0979,-15.5149,0.3729,0.2488,-0.3559,63
4.085,78,9.0963,0.4056,-9.3258,0.1495,0.969,1.551,86,4.38,84,7.7889,8.3307,-9.3496,1.5395,-1.5466,1.2153,91,3.898,75,8.7684,0.0824,-11.4643,0.2431,-0.0838,-1.0094,92,3.984,76,9.9329,2.258,-16.1339,0.5251,0.7854,-0.2834,63
4.137,79,5.1348,1.4644,-9.4176,-0.3384,1.3896,1.5164,86,4.432,85,3.2834,8.1405,-4.641,0.9035,-0.4497,1.0518,91,3.949,76,5.8768,0.0295,-11.1701,0.3926,0.1486,-1.4107,92,4.036,77,8.94,-1.0321,-12.4226,0.6925,1.2582,-0.2251,63
4.188,80,1.4995,0.6165,-10.2833,-0.5248,0.3449,0.815,86,4.484,86,3.3127,6.0871,-1.4597,0.3033,-0.8057,1.018,91,4.001,77,3.7678,-0.789,-11.2302,0.9631,0.2131,-1.7036,92,4.088,78,9.2385,1.0113,-14.9938,1.0069,0.2765,0.0116,63
4.24,81,0.5474,1.1394,-9.8656,-0.3847,0.0762,0.2752,86,4.535,87,7.3365,2.697,-5.288,0.5061,-1.2607,0.1212,91,4.053,78,3.3914,-1.7416,-12.2366,1.1578,-0.1203,-1.8558,92,4.139,79,5.0055,-0.8871,-9.057,0.7432,0.2912,0.409,63
4.292,82,0.1014,0.5333,-9.9515,-0.1283,-0.3512,-0.1806,86,4.587,88,10.2733,3.3728,-6.0015,-0.2818,-1.3056,0.02,91,4.105,79,2.6141,-4.65,-10.4195,1.1024,-0.761,-1.7793,92,4.191,80,4.2631,-1.4654,-8.0175,0.7248,0.8975,0.9599,63
4.344,83,0.0949,1.013,-10.0239,-0.2265,-0.8832,-0.799,86,4.639,89,9.9033,2.442,-7.9084,-0.8857,-0.2957,-0.2939,91,4.156,80,7.1736,1.9581,-5.0205,1.2731,-0.8833,-1.5294,92,4.243,81,3.2944,1.3499,-12.6942,-0.1481,0.7773,1.2395,63
4.395,84,0.7836,1.4103,-7.9467,-0.1279,-0.9255,-0.7398,86,4.691,90,3.7,0.1053,-7.4229,-0.9655,0.4633,-0.0938,91,4.208,81,9.2351,1.5614,-9.306,0.4363,-0.096,-0.8481,92,4.295,82,2.2568,3.4547,-16.5383,0.5202,0.2951,0.6695,63
4.447,85,5.6284,1.9869,-9.9178,-0.2465,-1.3448,-0.4805,86,4.743,91,2.3145,0.7704,-10.0412,-0.7914,-0.3345,-0.0099,91,4.26,82,12.006,0.5241,-7.2911,-0.3565,0.6083,-0.1226,92,4.347,83,-3.8255,7.8135,-20.0515,0.7584,0.9003,0.831,63
4.499,86,9.1643,-3.7476,-10.5493,-0.847,-0.7163,0.326,86,4.794,92,4.0132,0.8679,-10.2717,-1.2576,-0.0913,-0.1911,91,4.312,83,8.4282,-0.7846,-11.9994,-0.7843,0.0925,0.201,92,4.398,84,2.0921,5.3768,-18.9868,0.7636,0.1306,0.5606,63
4.551,87,7.9525,-2.379,-10.4046,0.0562,-0.4117,0.3099,86,4.846,93,2.1974,-0.2907,-10.2198,-1.4985,0.6124,-0.3479,91,4.364,84,8.4713,-0.4462,-13.7662,-0.1845,-0.6059,0.3434,92,4.451,85,6.6442,2.0107,-17.6712,1.0495,0.4045,0.5803,63
4.603,88,2.8367,2.4665,-9.1611,-0.3599,0.062,0.9028,86,4.898,94,0.4687,-0.1483,-10.4397,-0.4219,-0.1236,0.0627,91,4.415,85,6.1844,-1.7823,-10.7207,0.5259,-1.1156,0.4557,92,4.502,86,8.1143,5.2151,-14.4413,0.5836,0.9802,0.8205,63
4.655,89,1.0906,2.3436,-11.5362,-0.94,0.4175,-0.0162,86,4.95,95,0.5147,1.2101,-8.7676,-0.0816,-0.3373,-0.1006,91,4.467,86,5.6144,-0.8722,-7.0989,0.9007,-0.6414,1.004,92,4.554,87,5.989,4.4213,-11.3193,0.6003,0.729,-0.043,63
4.706,90,0.7756,1.3054,-11.5714,-1.3635,-0.2629,-0.6869,86,5.002,96,5.2944,-3.5634,-14.2685,-0.7395,-0.9188,-0.5052,91,4.519,87,6.9098,1.1457,-7.9222,0.7669,0.2102,1.4051,92,4.606,88,4.3809,3.4112,-9.1385,1.1128,0.908,-0.7028,63
4.758,91,2.3041,-1.1002,-11.5792,-1.3893,0.2784,-0.7079,86,5.054,97,8.7828,-2.7418,-12.5649,-1.2198,-0.7045,-0.6055,91,4.571,88,5.3693,4.8647,-9.3982,1.0037,0.298,1.2753,92,4.658,89,3.234,0.3953,-10.2928,1.4868,1.1339,-1.1843,63
4.81,92,1.0988,-1.8209,-10.9998,-0.3396,0.2538,-0.9852,86,5.105,98,11.3289,-2.6093,-12.7551,-0.2185,0.1649,-1.1283,91,4.623,89,9.1845,6.1518,-4.2752,0.0573,-0.4559,1.1131,92,4.71,90,3.1398,-2.5483,-11.3099,0.7549,0.8197,-1.0514,63
4.862,93,1.8094,0.0948,-9.7145,0.4265,0.4031,-1.2694,86,5.157,99,7.6788,-1.8103,-12.9399,0.5122,0.7995,-1.0571,91,4.674,90,10.0796,4.1921,-8.97,0.1219,-0.265,0.9988,92,4.761,91,2.3685,-3.1896,-12.392,-0.1261,0.1018,-0.2218,63
4.913,94,6.3771,0.0363,-11.0888,0.0919,-0.2242,-1.0159,86,5.209,100,4.3625,-1.309,-12.8306,1.0456,-0.0892,-0.1126,91,4.726,91,12.6223,6.2147,-11.2016,-0.4785,0.2286,1.0869,92,4.813,92,6.8459,-7.6247,-17.0254,-0.6263,-0.4635,0.075,63
4.965,95,9.7108,-4.7979,-14.1954,0.6337,-0.3324,-0.8746,86,5.261,101,1.1555,0.0064,-11.8676,1.4348,-0.6115,0.5832,91,4.778,92,11.1048,4.76,-15.2944,-0.8654,0.347,0.5588,92,4.865,93,9.9586,-7.3279,-16.9989,-0.1849,0.0087,-0.1522,63
5.017,96,10.8206,0.533,-14.5486,1.0791,0.1531,-0.0017,86,5.313,102,1.9938,2.5397,-10.964,0.3672,-1.119,0.3483,91,4.83,93,7.8553,4.0166,-10.8576,-1.3068,0.2751,0.3857,92,4.917,94,9.7162,-2.7359,-16.7022,0.0362,0.6617,0.1758,63
5.069,97,7.0707,1.2771,-13.9034,0.908,0.7942,0.6194,86,5.364,103,1.6663,0.6001,-10.5117,-0.1219,-0.2375,0.4957,91,4.882,94,6.5165,5.0816,-9.835,-1.239,0.8791,0.1387,92,4.969,95,12.2086,-3.186,-12.7797,0.1716,1.1679,0.4693,63
5.121,98,0.4642,2.186,-14.147,0.2538,0.8892,-0.2231,86,5.416,104,-0.117,0.5293,-8.8142,0.5827,0.5058,-0.099,91,4.933,95,6.1326,3.7003,-10.9455,-0.2736,1.32,-0.4408,92,5.02,96,9.2167,-0.4784,-17.3084,0.2805,0.957,0.6088,63
5.173,99,0.2135,1.5905,-14.0818,-0.4921,-0.0203,-0.8379,86,5.468,105,4.8072,0.0596,-5.995,-0.2547,-0.3035,-0.3219,91,4.985,96,4.3234,0.7491,-13.3988,0.3269,1.4668,-0.9814,92,5.072,97,7.23,-0.4158,-15.6938,0.2366,0.2724,0.7583,63
5.224,100,5.2123,-0.7614,-11.3008,-0.8655,-0.6842,-1.2867,86,5.52,106,8.4273,3.8634,-4.0221,-0.3015,0.0604,-0.3241,91,5.037,97,3.1889,-2.6104,-15.3253,0.3338,0.7943,-1.0677,92,5.124,98,5.1067,-0.9001,-13.6779,0.0362,-0.0756,0.859,63
5.276,101,3.7539,-0.0683,-11.0793,-1.309,-0.4039,-1.1846,86,5.572,107,11.0178,4.7099,-4.657,-0.9001,0.5699,-0.7834,91,5.089,98,7.5931,2.898,-8.601,0.6452,-0.0937,-0.5441,92,5.176,99,4.203,-0.1694,-12.8315,-0.2868,-0.4862,0.9937,63
5.328,102,2.762,0.7861,-10.2719,-1.1576,-0.8631,-1.5153,86,5.624,108,2.3713,4.7236,-5.8962,-0.979,1.095,-0.2695,91,5.141,99,10.8075,3.8767,-13.4541,0.1318,-0.1479,-0.157,92,5.228,100,1.3167,2.3029,-11.234,-0.6359,-0.5684,0.9448,63
5.38,103,7.0723,5.7519,-12.7916,-0.1705,-1.2992,-1.781,86,5.675,109,0.1458,3.7563,-7.0968,-0.1313,0.6256,0.0405,91,5.192,100,13.1536,4.5503,-11.1624,0.0018,0.5704,-0.1688,92,5.28,101,6.0783,-1.7083,-9.0113,-0.1139,-1.0816,0.167,63
5.431,104,9.7695,6.61,-11.1319,0.1139,-0.2658,-0.6232,86,5.727,110,-0.7276,3.4397,-8.7224,-0.2765,-0.1819,-0.0856,91,5.244,101,10.2908,-1.1476,-15.7899,-0.6739,0.6013,0.5542,92,5.331,102,9.5535,-6.5436,-5.8423,-0.6493,-1.4562,-0.075,63
5.483,105,8.7989,4.6867,-12.1796,0.1258,0.4884,0.2218,86,5.779,111,-0.3481,2.8392,-9.3003,-0.5218,-0.8054,-0.6352,91,5.296,102,8.9841,-4.0075,-13.6634,-1.1671,0.0834,1.0822,92,5.383,103,12.0899,-2.7473,-7.1918,0.1856,-0.8283,-0.1664,63
5.535,106,5.7404,3.7069,-11.1989,-0.5856,1.0389,0.8385,86,5.831,112,0.5634,2.7992,-9.4952,-0.86,-0.7656,-0.7061,91,5.348,103,6.6451,-3.7973,-11.9962,-1.5121,0.0723,1.4676,92,5.435,104,12.7157,0.615,-6.5085,0.5823,0.0804,0.4361,63
5.587,107,-1.3427,-1.223,-13.8613,-0.1455,0.7276,0.5152,86,5.883,113,-0.0503,1.8709,-9.1754,-0.9801,0.0705,-0.9374,91,5.4,104,6.5624,-0.4528,-11.7764,-0.6623,0.2932,1.7488,92,5.487,105,9.4745,3.8177,-10.2359,-0.2521,-0.1095,-0.3103,63
5.639,108,-0.9609,-0.1279,-13.879,0.5682,-0.1383,0.4527,86,5.934,114,4.882,6.0727,-8.2689,-0.1012,-0.6212,-1.263,91,5.452,105,5.9814,3.2093,-13.2196,0.1931,0.1988,1.8951,92,5.538,106,9.6572,1.7647,-10.5084,-0.2919,-0.7467,-0.7425,63
5.69,109,3.0945,2.4697,-15.585,0.501,0.4136,0.6782,86,5.986,115,8.4819,9.759,-5.3551,-0.3853,-0.5523,-1.6082,91,5.503,106,4.2063,7.6942,-12.7653,0.591,-0.5132,1.1205,92,5.59,107,5.9523,0.9556,-6.9829,-0.1293,-1.2068,-0.9393,63
5.742,110,1.61,3.3806,-14.2237,1.0372,0.9843,0.7657,86,6.038,116,10.8854,7.391,-3.6165,-0.9613,0.2327,-1.6672,91,5.555,107,8.3357,0.3785,-6.7326,0.1372,-0.0156,1.1576,92,5.642,108,4.1763,-2.2962,-5.1195,-0.2584,-0.4132,-0.8985,63
5.794,111,-0.9219,7.0962,-14.0664,1.4314,0.3356,0.0024,86,6.09,117,2.2746,0.1335,-7.9776,-1.3816,0.849,-0.7532,91,5.607,108,11.3495,2.8829,-7.2027,0.4954,-0.1859,0.7,92,5.694,109,4.0446,-5.7732,-6.2396,0.4861,0.1267,-1.0865,63
5.846,112,4.3836,3.9106,-17.6344,0.4519,0.6136,0.0623,86,6.142,118,1.3592,0.5141,-11.1079,-0.3366,-0.0531,0.1156,91,5.659,109,10.3963,3.4117,-9.8403,-0.3137,0.198,0.6021,92,5.746,110,8.0692,1.0786,-12.5351,0.0135,-0.2347,-1.1928,63
5.898,113,8.2558,3.9102,-18.0004,0.1338,1.1303,0.5674,86,6.194,119,1.258,0.5725,-10.11,-0.2139,-0.7114,0.7498,91,5.711,110,9.4196,3.1338,-10.221,-0.6685,0.4684,-0.2077,92,5.797,111,10.6341,-4.1036,-15.2457,-0.5594,-0.5272,-0.6646,63
5.949,114,6.1831,2.9737,-14.9009,-0.0131,1.5074,0.9851,86,6.245,120,4.6847,1.2742,-8.1873,0.2113,-0.9896,1.1891,91,5.763,111,8.0237,3.3369,-9.1436,-0.9698,0.6238,-0.7898,92,5.849,112,12.8785,-4.4145,-15.0938,0.0853,0.0258,-0.5319,63
6.001,115,-1.0196,5.4623,-15.0154,-0.3654,1.7826,1.2067,86,6.297,121,3.0178,1.391,-7.2322,0.8259,-0.0432,1.0406,91,5.814,112,5.5463,2.0602,-10.0178,-0.0318,0.7764,-1.2504,92,5.901,113,13.5461,-5.2702,-10.6016,0.7124,0.7021,-0.2674,63
6.053,116,-1.092,3.6776,-12.7616,-0.4027,0.6317,0.6384,86,6.349,122,0.3717,1.8049,-6.6453,0.3595,0.4003,0.8001,91,5.866,113,3.7474,1.5055,-10.0548,0.6114,0.8826,-1.5839,92,5.953,114,14.7206,-1.912,-8.2607,0.777,-0.1543,-0.1599,63
6.105,117,-0.8102,2.5469,-11.7198,-0.4644,-0.1006,0.3685,86,6.401,123,5.19,3.0663,-10.5304,-0.3761,-0.3805,0.7631,91,5.918,114,3.553,-2.427,-13.0702,1.1135,0.4079,-1.83,92,6.005,115,10.108,-1.7504,-4.5778,0.9575,0.4971,0.263,63
6.157,118,0.7548,0.9587,-11.8728,-0.5366,-0.7427,0.3581,86,6.453,124,8.7067,7.5444,-9.4286,0.3081,-0.2423,-0.1293,91,5.97,115,7.8589,-3.6754,-7.0057,0.3135,-0.3757,-0.8102,92,6.056,116,10.3628,-2.4363,-7.8537,1.3735,1.0477,0.8583,63
6.208,119,0.6833,0.9301,-11.2678,-0.1737,-0.0087,0.5202,86,6.505,125,6.6081,3.0738,-10.6278,-0.4551,0.4567,-0.4105,91,6.022,116,5.714,-6.5088,-13.118,0.3772,-0.3992,-0.6213,92,6.108,117,7.3683,0.9323,-13.2988,0.3253,0.9717,1.0666,63
6.26,120,1.2656,1.1605,-9.9117,0.4705,0.2152,0.6346,86,6.556,126,-0.7542,-0.4519,-12.7101,-0.0698,-0.0236,-0.2064,91,6.073,117,7.509,-1.0886,-15.9372,-0.1291,0.097,-0.3323,92,6.16,118,10.495,5.9558,-7.0983,0.7001,0.0424,0.2392,63
6.312,121,5.9801,2.049,-11.9201,1.0177,-0.1855,0.0482,86,6.608,127,0.4753,-2.0496,-12.0271,0.3977,-0.6899,0.2866,91,6.125,118,10.7462,1.006,-12.3898,-0.7382,0.7492,0.3462,92,6.212,119,9.2738,9.6389,-12.1004,-0.148,-0.6358,0.0502,63
6.364,122,9.421,-1.7303,-12.8541,0.6212,0.2687,0.7118,86,6.66,128,2.65,-0.8922,-11.6159,0.4801,-1.0291,0.6304,91,6.177,119,6.7042,-0.3462,-13.4844,-1.1599,0.5788,0.587,92,6.264,120,11.8857,7.3967,-12.8002,0.1103,-0.5933,0.1375,63
6.416,123,7.1924,1.6204,-13.8169,1.1278,0.842,1.0621,86,6.712,129,2.0064,-1.4601,-11.6776,-0.3296,-0.9417,0.819,91,6.229,120,6.3561,-2.223,-14.5636,-1.2998,-0.251,0.6973,92,6.315,121,13.792,3.8133,-12.8915,0.6664,0.1741,0.4585,63
6.467,124,-0.283,5.9878,-14.3117,0.3397,1.297,0.5447,86,6.764,130,-0.266,-2.4301,-10.9075,0.4054,-0.8585,1.2621,91,6.281,121,5.1796,-1.2484,-14.435,-0.6348,-0.8566,0.6656,92,6.367,122,14.3539,6.9826,-12.7748,-0.0474,0.812,0.4547,63
6.519,125,-0.3159,3.8816,-13.983,-0.4295,0.2772,-0.2776,86,6.815,131,-0.1322,-1.9467,-10.3957,-0.3676,-1.2993,1.5865,91,6.332,122,4.8528,-1.7387,-13.3423,0.2132,-1.2986,0.6594,92,6.419,123,10.7885,6.2572,-11.4747,-0.7117,0.4458,-0.3203,63
6.571,126,4.8259,3.7481,-8.5316,-0.8451,-0.467,-0.4358,86,6.867,132,4.8223,-4.8593,-13.4852,0.1316,-1.6209,1.0936,91,6.384,123,3.9053,0.4774,-10.2861,0.4594,-1.1219,1.1128,92,6.47,124,7.7045,4.4296,-8.1785,0.1553,0.6546,-0.9044,63
6.623,127,2.3982,2.8132,-6.7449,-0.8013,0.3416,-0.4931,86,6.919,133,7.227,-4.9633,-13.4741,-0.5839,-0.5039,0.414,91,6.436,124,4.7615,3.7354,-7.0388,0.3364,-0.3657,1.2192,92,6.522,125,5.9205,2.8475,-8.9881,0.4044,1.0828,-1.2028,63
6.675,128,1.402,2.7424,-6.3434,-1.0876,0.1504,-0.7062,86,6.971,134,10.1933,-3.2371,-16.026,0.2455,0.3113,-0.3842,91,6.488,125,8.7409,7.9602,-2.5532,0.2574,-0.9403,1.0131,92,6.574,126,4.5157,0.3105,-11.5324,0.2562,1.0984,-1.2973,63
6.726,129,1.3803,1.4317,-5.532,-1.3023,-0.0224,-1.0486,86,7.023,135,6.3519,-1.0071,-15.2262,0.8509,0.9063,-0.7808,91,6.539,126,9.4585,4.7087,-9.5336,0.4659,-0.167,1.1724,92,6.626,127,3.1495,-2.3335,-13.3719,-0.4901,0.3418,-0.7463,63
6.778,130,6.0639,-2.1839,-7.7202,-0.5123,0.229,-1.3948,86,7.074,136,4.0016,-1.1057,-12.0586,0.6362,-0.0112,-0.8052,91,6.591,127,12.169,5.2056,-8.2781,-0.2072,0.5545,0.557,92,6.678,128,-3.174,-6.9999,-16.8143,0.0108,0.9344,-1.0948,63
6.83,131,9.4821,-0.7643,-10.2072,-0.029,0.4497,-0.4426,86,7.126,137,3.4812,0.0777,-11.1906,-0.2157,-0.6329,-1.1506,91,6.643,128,9.5525,1.7455,-12.6951,-0.8265,0.2972,0.5771,92,6.729,129,-0.395,-7.57,-16.6263,0.355,1.3017,-1.0556,63
6.882,132,6.4469,0.6746,-10.9467,0.634,0.8823,0.3536,86,7.178,138,3.7645,-3.5238,-10.7854,-0.8341,0.1461,-0.916,91,6.695,129,7.8116,1.4367,-10.2665,-1.2784,0.6759,0.3725,92,6.781,130,3.6083,-4.8778,-16.3348,0.2826,1.635,-0.549,63
6.933,133,-0.6673,5.0679,-12.9665,1.096,1.3264,-0.1832,86,7.23,139,1.8493,-2.4422,-9.9627,0.063,0.7857,-0.9173,91,6.747,130,6.7488,2.3645,-10.0481,-1.3957,1.1717,0.0662,92,6.833,131,7.0341,-8.6042,-14.9779,0.8809,1.8757,-0.2,63
6.985,134,-0.4386,4.047,-15.4488,0.1225,0.2987,-0.8088,86,7.282,140,1.5415,-2.4432,-8.5503,-0.4124,0.7499,-0.7374,91,6.799,131,5.2988,1.5809,-11.8444,-0.6776,1.5335,-0.4062,92,6.885,132,4.7981,-8.9439,-14.9753,0.7723,0.9912,0.4008,63
7.037,135,2.6595,1.2606,-15.8237,-0.4719,0.0507,-0.3395,86,7.334,141,6.0438,-0.3906,-10.6366,0.331,0.8885,-0.6493,91,6.85,132,3.9457,-0.3133,-14.9508,0.0395,1.7934,-0.8814,92,6.937,133,3.6018,-8.1213,-12.3991,-0.1133,0.1927,0.6934,63
7.089,136,4.1323,0.9981,-14.8595,0.0586,-0.6323,-0.6693,86,7.385,142,9.3298,1.9521,-9.0896,-0.0175,1.3275,-1.0172,91,6.902,133,1.3061,-2.1001,-18.9166,-0.193,0.6572,-0.7899,92,6.988,134,2.6418,-5.3992,-11.576,-0.3147,-0.3068,0.928,63
7.141,137,3.2196,2.5896,-12.863,0.6923,-0.8521,-0.9507,86,7.437,143,6.0391,1.6625,-9.9956,0.4631,1.648,-0.4896,91,6.954,134,-4.3709,3.8192,-16.9675,0.4311,0.0621,-0.6989,92,7.04,135,2.2047,-1.5404,-11.9392,0.1664,-0.7617,0.8474,63
7.192,138,7.4063,4.398,-15.1921,1.1122,-1.2913,-1.3689,86,7.489,144,2.4017,1.4399,-9.7846,0.2751,0.5301,0.0418,91,7.006,135,2.0756,2.183,-18.6856,-0.3098,0.4292,-0.5661,92,7.092,136,0.9416,1.9753,-16.695,0.7572,-0.3065,0.4577,63
7.244,139,10.4619,4.0254,-14.7025,1.4445,-0.26,-0.3225,86,7.541,145,-1.5607,2.2986,-9.6237,0.2939,-0.0574,0.5287,91,7.058,136,5.8217,-1.1558,-16.3842,-0.7737,0.9916,-0.3024,92,7.144,137,-4.7854,-2.4753,-20.1659,0.629,0.4613,0.0464,63
7.296,140,7.4976,3.0358,-13.9992,0.4599,0.4927,0.4413,86,7.593,146,-1.5864,2.8178,-9.3519,-0.4655,-0.6886,0.5416,91,7.109,137,4.8254,-4.8593,-14.8862,-1.2399,0.4838,0.457,92,7.195,138,-2.5833,-3.6349,-20.4237,0.7488,1.0216,-0.2127,63
7.348,141,0.2685,3.892,-16.4532,-0.3119,1.042,0.224,86,7.644,147,-0.6571,2.4304,-8.2961,-1.0198,-1.0603,0.4291,91,7.161,138,5.1138,-4.8796,-13.9292,-1.4041,-0.0773,1.0113,92,7.247,139,1.5809,-2.2714,-18.3025,0.7104,1.4306,0.0253,63
7.4,142,0.0881,2.5234,-15.3509,-0.6192,0.0912,-0.5116,86,7.696,148,0.5542,1.7086,-7.1316,-0.2344,-0.2689,0.35,91,7.213,139,5.1681,-2.7784,-13.6261,-0.7407,-0.4821,1.4158,92,7.299,140,3.607,1.6134,-21.3391,-0.1586,1.3417,-0.2128,63
7.452,143,4.1938,1.0779,-15.8626,-0.3133,-0.0855,-0.023,86,7.748,149,5.3233,5.5181,-10.6235,0.4772,-0.869,-0.431,91,7.265,140,3.982,1.9229,-12.048,0.1359,-0.5192,1.6359,92,7.351,141,4.9157,3.0321,-20.599,-0.2105,0.3124,-0.6065,63
7.503,144,5.2954,2.5626,-15.5942,0.4457,0.0419,-0.6598,86,7.8,150,8.8039,9.3542,-8.1745,0.1173,-1.2911,-1.0009,91,7.317,141,3.9464,6.7553,-13.3901,0.1384,-0.3741,1.0511,92,7.403,142,3.2822,1.2431,-14.6684,-0.149,-0.4388,-1.0177,63
7.555,145,3.8311,3.3795,-14.7402,-0.2167,0.713,-0.1825,86,7.852,151,9.6692,5.8346,-8.632,-0.5944,-0.3079,-1.4169,91,7.368,142,-2.4355,10.2822,-7.1886,-0.2363,-0.5516,1.107,92,7.454,143,3.442,-1.9879,-9.415,0.3753,0.3236,-1.4055,63
7.607,146,4.0053,3.3742,-15.7806,0.4654,-0.0256,-0.8081,86,7.904,152,2.2663,-1.0025,-14.2398,-1.1139,0.4544,-1.3998,91,7.42,143,3.4882,8.2443,-9.2209,-0.6439,-0.8036,1.0807,92,7.506,144,3.7091,-6.7476,-8.1508,0.9486,0.6054,-1.5056,63
7.659,147,7.9797,2.5245,-17.8228,0.1228,-0.0327,-0.3086,86,7.955,153,3.2706,-2.9172,-17.0675,-0.1412,-0.3411,-0.3563,91,7.472,144,7.5042,5.9986,-10.6352,-0.8289,-0.3849,0.4079,92,7.558,145,7.8244,-7.9813,-8.1361,0.4122,-0.0036,-1.2671,63
7.71,148,10.8804,1.4124,-16.0234,0.4194,0.3231,-0.0213,86,8.007,154,3.7094,-2.7937,-16.3347,0.5687,-0.6762,0.4053,91,7.524,145,6.9927,5.5551,-9.7084,-1.013,-0.2706,-0.3531,92,7.61,146,10.8279,-4.9547,-10.3539,0.5549,0.3444,-0.9545,63
7.762,149,8.3409,0.9716,-11.8688,-0.3058,0.9074,0.5117,86,8.059,155,5.8617,0.0971,-12.8945,1.0868,-0.381,0.9612,91,7.576,146,5.8578,4.7039,-8.9897,-0.2473,0.0939,-0.9317,92,7.662,147,10.2902,-3.933,-11.132,0.4941,0.7258,-0.4939,63
7.814,150,4.6755,0.4555,-10.2978,-0.2873,1.1044,0.5817,86,8.111,156,5.2123,0.3482,-11.6224,1.4649,-0.2199,1.3669,91,7.627,147,4.1876,1.8883,-8.7065,0.4961,0.4498,-1.354,92,7.713,148,9.3078,-4.1044,-9.5589,1.0184,0.933,-0.3185,63
7.866,151,1.2704,-0.442,-10.6596,0.223,1.4884,0.9878,86,8.163,157,5.7724,2.7695,-9.4735,1.0203,0.1703,1.4851,91,7.679,148,2.4712,1.0885,-11.0539,1.0386,0.6986,-1.6044,92,7.765,149,9.2999,-1.0912,-13.3519,0.7262,0.0465,-0.1163,63
7.918,152,0.7996,-0.0584,-11.0176,0.2235,0.4364,0.8926,86,8.214,158,9.1317,5.2501,-10.3285,0.0647,-0.4078,1.748,91,7.731,149,2.2574,-1.2318,-13.4612,1.0417,0.4232,-1.7454,92,7.817,150,7.3012,-3.0498,-10.1668,0.1228,-0.2337,0.2085,63
7.969,153,0.9659,-0.4129,-11.7906,-0.167,-0.3509,1.2358,86,8.266,159,11.5835,5.3078,-9.1903,-0.0124,-0.1759,0.6564,91,7.783,150,6.9133,2.037,-17.8295,1.1048,-0.3645,-1.0874,92,7.869,151,4.7292,-2.2444,-8.319,0.3298,0.4172,0.7189,63
8.021,154,0.602,-0.0697,-10.7231,-0.0016,0.4264,1.4879,86,8.318,160,8.879,3.7198,-9.6854,-0.6847,0.5507,0.1015,91,7.835,151,10.3114,1.7657,-13.8036,0.8038,-0.9394,-0.7874,92,7.92,152,2.9664,-0.411,-12.0207,0.149,0.9894,0.8101,63
8.073,155,2.8857,-0.2431,-6.5953,0.6732,0.3916,1.1149,86,8.37,161,0.8103,2.1548,-10.5024,-1.0568,1.081,0.5768,91,7.886,152,9.4497,2.4355,-15.5085,0.5304,-0.1378,-0.7711,92,7.972,153,7.2823,4.7763,-6.1655,-0.0408,0.0553,0.8404,63
8.125,156,7.1626,-5.3751,-5.9052,-0.0757,0.252,1.4229,86,8.422,162,0.5474,0.8151,-11.1791,-1.0967,0.1163,0.5022,91,7.938,153,12.1625,1.1299,-17.5298,-0.2881,0.5778,-0.1402,92,8.024,154,10.4322,-1.7826,-11.7748,-0.6289,-0.6264,0.2648,63
8.177,157,9.2056,-6.0922,-5.6153,0.4611,0.1624,1.5898,86,8.473,163,2.489,0.6354,-10.1675,-0.6269,-0.1552,0.2399,91,7.99,154,8.8636,-1.9589,-17.6679,-0.8855,0.0298,0.5707,92,8.076,155,12.7312,-1.4838,-12.0541,-0.5116,-0.5409,0.0956,63
8.228,158,6.4261,-3.5706,-6.8218,1.0109,0.4812,1.4843,86,8.525,164,1.3764,0.3051,-9.853,-0.7009,0.1413,0.139,91,8.042,155,8.3566,-3.6306,-17.443,-1.3215,-0.6517,1.0789,92,8.128,156,14.4091,-0.7606,-11.8194,0.3011,0.2111,0.1783,63
8.28,159,1.5414,0.8013,-8.4636,0.7226,1.0336,0.8319,86,8.577,165,0.8341,-0.4292,-9.4052,-0.5669,0.3879,0.0652,91,8.094,156,7.5094,-3.5552,-16.2133,-0.7515,-1.149,1.1236,92,8.179,157,14.6385,1.4428,-9.104,0.1905,0.8134,0.4283,63
8.332,160,1.0593,0.4374,-8.4352,-0.15,0.085,-0.068,86,8.629,166,1.591,-1.7554,-8.046,-1.0869,0.0597,0.3062,91,8.145,157,6.5965,-0.7305,-11.9931,0.128,-1.2992,1.1632,92,8.231,158,11.415,2.6079,-8.1683,-0.4856,0.6067,-0.2165,63
8.383,161,0.8734,0.4318,-8.2425,-0.7868,-0.5828,-0.7247,86,8.681,167,6.08,0.1946,-9.8718,-0.2082,0.3847,0.3517,91,8.197,158,6.4684,2.7805,-8.9719,0.5471,-0.7996,0.9849,92,8.283,159,8.1584,2.4127,-7.0558,0.3203,0.5643,-0.8294,63
8.435,162,2.1172,-0.5605,-8.1206,-0.5715,-0.4737,-0.3924,86,8.732,168,9.3562,0.683,-10.3976,-0.832,0.9409,0.1582,91,8.249,159,8.4767,7.3813,-8.4591,1.0703,-0.007,0.5858,92,8.335,160,6.407,0.094,-6.8127,0.3107,0.831,-1.1826,63
8.487,163,0.1289,-0.6116,-6.2239,-0.1929,0.3367,-0.1647,86,8.784,169,7.9927,1.3195,-10.8932,0.0645,1.3658,-0.1576,91,8.301,160,4.49,5.4823,-14.1787,0.6543,-0.6785,0.6225,92,8.387,161,4.95,-2.0322,-10.9162,-0.4503,0.6225,-0.8584,63
8.539,164,-5.4382,-5.4835,-5.1367,-0.6491,0.9282,-0.5709,86,8.836,170,0.1634,3.7025,-13.7062,0.4327,1.6759,0.4234,91,8.353,161,8.5428,4.0531,-17.5559,0.6945,0.1832,0.7592,92,8.438,162,8.1629,3.809,-5.4777,-0.9054,-0.1592,-1.0257,63
8.591,165,1.0874,-9.1998,-11.7455,-0.7229,1.0549,-0.2811,86,8.888,171,-1.3511,3.3576,-12.123,0.3915,0.5505,0.277,91,8.404,162,11.5006,7.7614,-14.1626,0.0997,0.8039,0.7516,92,8.49,163,0.485,8.0721,-8.7098,-0.1489,-0.4451,-0.7,63
8.642,166,5.8501,-8.6184,-12.4178,-0.5898,0.6676,0.4715,86,8.94,172,-0.7288,2.7564,-11.3819,-0.3943,-0.2709,0.1941,91,8.456,163,11.3293,5.4995,-12.3641,-0.6025,0.2987,0.6146,92,8.542,164,4.8486,6.8627,-10.3962,0.5183,-0.7158,-0.6612,63
8.694,167,4.9049,-4.7868,-12.9308,0.2439,0.0393,0.5748,86,8.991,173,0.2941,0.5541,-9.6576,-0.3956,0.3915,0.0749,91,8.508,164,8.8256,6.0945,-9.3756,-1.0605,0.7678,0.2359,92,8.594,165,8.656,4.4202,-10.7367,0.855,0.147,-0.0771,63
8.746,168,3.0703,0.3652,-16.8751,0.8524,-0.3563,0.6678,86,9.043,174,-1.5476,-0.5547,-9.3661,-0.0446,0.9648,-0.0472,91,8.56,165,8.1458,5.8037,-10.1525,-0.4255,1.2387,-0.4131,92,8.645,166,8.6388,1.2841,-11.6468,1.0185,0.7923,0.2372,63
8.798,169,0.9542,3.5965,-15.9775,0.0776,-0.9072,-0.1867,86,9.095,175,0.4769,-2.3484,-7.3869,0.5582,0.0597,0.462,91,8.612,166,6.6172,4.3621,-13.7258,-0.1291,1.5824,-0.9668,92,8.697,167,6.0034,-0.667,-11.6923,0.8387,0.355,0.5563,63
8.85,170,0.8909,2.3535,-16.3028,-0.6207,-1.3314,-0.8113,86,9.147,176,5.2668,2.4336,-5.1248,-0.1028,0.4948,0.3035,91,8.663,167,4.971,-2.0439,-15.6875,-0.5703,1.0578,-1.0709,92,8.749,168,4.3181,-1.4933,-10.356,0.6409,-0.2013,0.7771,63
8.901,171,5.7067,1.4023,-15.9624,-1.1304,-1.5955,-1.2673,86,9.199,177,8.7627,1.7773,-5.7413,-0.2925,1.0402,0.1487,91,8.715,168,8.8938,-6.7287,-8.8701,-0.6626,0.3348,-0.4418,92,8.801,169,3.9106,-0.6748,-10.0979,0.6603,-0.7475,0.8687,63
8.954,172,6.6528,0.415,-15.1057,-1.4959,-1.8338,-1.6,86,9.251,178,5.4175,2.8752,-4.99,0.4583,1.4383,0.3003,91,8.767,169,11.5965,-4.413,-11.6402,-0.6414,0.1931,-0.031,92,8.853,170,1.068,2.6225,-8.2432,0.9904,-0.6778,0.5827,63
9.005,173,9.912,0.7157,-17.5541,-0.4174,-2.0077,-1.8429,86,9.303,179,-1.7161,1.5566,-9.2646,0.0254,0.8876,-0.0148,91,8.819,170,10.6281,-3.4879,-13.6076,-0.4598,0.7437,-0.1395,92,8.905,171,5.8967,-0.745,-7.7676,1.3975,-1.108,-0.1649,63
9.057,174,12.2907,1.9385,-17.3836,0.347,-0.7864,-0.8594,86,9.354,180,-2.9939,2.3941,-9.4595,0.0832,-0.0248,0.3175,91,8.871,171,13.0226,-5.6376,-12.3249,-0.8176,1.2212,0.0139,92,8.956,172,-1.1689,-1.4251,-11.807,0.4332,-1.1376,-0.4749,63
9.109,175,11.5648,-0.642,-16.3863,-0.4241,0.1085,0.0494,86,9.406,181,-2.0194,2.3615,-8.5045,-0.5831,-0.6908,0.1471,91,8.922,172,10.9899,-7.102,-16.7922,-1.2719,0.5304,0.6856,92,9.008,173,1.4945,0.0405,-12.736,0.9783,-0.6935,-0.1735,63
9.161,176,7.1133,-1.1526,-17.567,-0.7942,0.7616,0.7127,86,9.458,182,0.0739,1.7572,-8.8019,-0.9163,-0.6803,0.5059,91,8.974,173,10.2983,-7.0316,-16.8562,-1.6035,-0.2863,1.1781,92,9.06,174,6.2081,-1.0027,-10.8042,1.3472,0.1788,0.1979,63
9.213,177,5.1341,0.616,-15.2041,-1.257,-0.1135,0.2273,86,9.51,183,0.3772,2.4085,-7.8484,0.003,0.0524,-0.1969,91,9.026,174,7.2064,-3.6123,-12.2298,-0.4938,-0.753,1.5376,92,9.112,175,3.7495,-1.5001,-15.8666,1.1743,0.3748,-0.3453,63
9.264,178,3.7158,-0.6497,-13.5199,-1.5948,-0.6442,0.1226,86,9.562,184,5.194,6.3337,-7.5462,0.2254,-0.6315,-0.8301,91,9.078,175,6.1499,1.8864,-12.3439,0.3161,0.0202,1.5554,92,9.163,176,6.1812,-1.2021,-15.5622,0.18,-0.3932,-0.5763,63
9.316,179,7.643,-2.0357,-16.0702,-0.5948,-1.1395,-0.3687,86,9.613,185,8.7096,9.9494,-5.0389,0.3378,-0.5982,-1.2922,91,9.13,176,3.419,6.7287,-14.3231,0.865,-0.5964,0.6352,92,9.215,177,1.9058,-0.9522,-9.0603,0.1108,-0.8346,-0.7318,63
9.368,180,6.1054,-0.4855,-13.4025,-0.2313,-0.2521,0.4075,86,9.665,186,11.2754,10.9844,-4.3696,-0.4335,-0.6099,-1.6295,91,9.181,177,7.7611,10.2628,-18.4585,1.3078,-1.0262,-0.2104,92,9.267,178,2.7841,-2.1091,-4.9401,-0.0963,-0.0837,-1.156,63
9.419,181,9.5125,-2.1939,-12.6547,0.4686,0.1654,0.9741,86,9.717,187,2.5593,2.7561,-11.1289,-0.9964,0.2339,-0.6459,91,9.233,178,9.4444,12.0396,-15.475,1.5355,-0.57,-0.3245,92,9.319,179,2.7763,3.7528,-11.5867,0.6044,-0.2475,-1.4287,63
9.472,182,11.9991,-2.6797,-13.6381,0.0474,0.0962,1.3629,86,9.769,188,5.9579,0.0679,-15.9227,-0.0555,-0.5019,0.194,91,9.285,179,12.1587,7.1813,-15.6192,0.4455,-0.0805,0.0808,92,9.371,180,7.1435,-2.5578,-5.8487,-0.2356,-0.7655,-0.7176,63
9.523,183,13.3359,-4.4609,-12.59,0.7089,-0.0732,0.8825,86,9.821,189,9.2671,5.3764,-13.021,0.6312,-1.039,0.7244,91,9.337,180,11.7476,6.9502,-15.6338,0.3564,-0.031,-0.542,92,9.422,181,10.331,-1.3622,-7.938,-0.0449,-1.0466,-0.6386,63
9.575,184,9.4072,-3.1123,-9.0513,0.2482,0.5864,0.4451,86,9.872,190,8.218,7.5066,-10.5624,-0.0215,-0.6626,0.858,91,9.389,181,8.4128,5.9383,-14.5105,0.4885,-0.0448,-1.0527,92,9.474,182,10.8019,0.1896,-9.3117,0.2166,-0.2839,-0.2778,63
9.627,185,3.2987,-0.681,-10.4896,0.5722,1.1104,1.0015,86,9.924,191,4.2348,4.9202,-9.7638,-0.2115,0.1955,1.0049,91,9.44,182,4.5385,4.9146,-14.4191,0.2082,0.0064,-1.2654,92,9.526,183,9.726,-2.2849,-7.5748,0.814,0.4778,-0.126,63
9.678,186,2.3987,-0.0934,-9.3327,-0.1864,0.1411,0.0558,86,9.976,192,0.4037,3.5306,-7.8379,-0.0153,-0.2847,0.6642,91,9.492,183,3.0528,4.2285,-13.4727,0.0155,-0.1486,-1.4187,92,9.578,184,12.1934,-0.6854,-6.7623,-0.083,-0.3181,0.2362,63
9.73,187,2.3865,-0.2452,-10.4699,-0.4987,-0.5663,-0.6344,86,10.028,193,5.2134,5.2112,-6.5333,-0.5934,0.1325,0.8487,91,9.544,184,2.9237,2.423,-13.8516,0.3807,-0.4972,-1.6834,92,9.629,185,8.9529,-1.8059,-5.3874,0.5989,0.4109,0.7194,63
9.782,188,3.1336,-0.3222,-10.4121,0.3104,-0.4345,-1.0454,86,10.08,194,8.7237,3.9124,-5.716,-0.95,0.4268,-0.0655,91,9.596,185,-3.1904,0.7679,-18.1144,0.7904,-0.7019,-1.9025,92,9.681,186,7.2772,-2.7105,-9.4577,0.4633,0.9849,1.2054,63
9.834,189,1.9099,0.4105,-10.2505,0.9009,0.2448,-0.8603,86,10.131,195,5.2225,-2.0458,-7.9859,-1.3734,0.9905,0.1147,91,9.648,186,-7.6526,-2.8745,-19.3208,1.0221,-0.7692,-1.7339,92,9.733,187,4.4577,1.1132,-11.5503,-0.339,0.9638,1.5601,63
9.886,190,0.0248,1.8426,-8.7687,1.3319,0.5143,-0.645,86,10.183,196,0.7438,-1.468,-9.0423,-0.9202,0.0503,0.72,91,9.699,187,-1.5488,-0.8056,-20.2817,0.4105,-0.2872,-1.3193,92,9.785,188,6.8988,6.1046,-16.4111,0.1948,1.2173,0.9998,63
9.937,191,5.0746,3.742,-14.3963,0.9686,-0.2578,-0.3396,86,10.235,197,1.156,-1.0904,-9.7777,-0.0658,-0.636,0.5069,91,9.751,188,4.1353,-0.6773,-20.7006,-0.3756,0.4687,-0.3642,92,9.836,189,-0.4376,9.7476,-15.7454,0.5331,0.5595,0.7065,63
9.989,192,8.7601,2.8974,-12.8654,0.8811,-0.0272,0.2766,86,10.287,198,2.3031,1.2946,-9.5264,0.6237,0.1657,0.2137,91,9.803,189,1.7951,-1.1113,-23.1131,0.1232,0.4002,-0.1122,92,9.888,190,-1.0252,7.7202,-16.3146,0.8401,0.2798,0.6137,63
10.041,193,6.967,2.9047,-10.3229,0.4392,0.1694,0.7998,86,10.339,199,0.225,0.8696,-9.3673,-0.181,0.4723,0.2568,91,9.855,190,3.0504,-1.0327,-20.8462,0.7664,-0.3813,-0.0212,92,9.94,191,4.3691,3.9453,-13.0488,0.9728,0.7765,0.9478,63
10.093,194,4.4615,3.4506,-10.5025,0.8606,0.8061,1.2604,86,10.391,200,-0.8332,0.4518,-8.9639,-0.3228,-0.042,0.235,91,9.907,191,2.0636,-0.7401,-16.6007,1.2359,-0.9517,0.0821,92,9.992,192,4.8719,4.4124,-17.5048,0.0329,0.7689,0.359,63
10.145,195,-1.0634,3.6039,-11.5261,0.1137,0.2773,0.4919,86,10.442,201,0.1216,-0.4154,-7.5959,-0.9156,-0.6197,0.4149,91,9.959,192,3.3002,0.8838,-13.3696,1.4873,-0.2032,0.6941,92,10.044,193,3.4207,4.8813,-14.105,0.303,0.4556,-0.4094,63
10.196,196,-0.7416,3.0797,-11.0595,-0.5944,-0.467,-0.3161,86,10.494,202,5.0075,-1.3574,-10.5862,-0.3475,-0.1311,0.1242,91,10.01,193,4.1211,4.352,-13.0488,1.2295,0.4835,1.0954,92,10.095,194,1.724,3.8538,-11.9472,0.8671,0.8358,-0.9646,63
10.248,197,4.5151,1.8232,-8.6004,-1.0894,-1.0102,-0.4351,86,10.546,203,8.5734,-3.1808,-10.4356,-0.8701,0.5799,-0.5381,91,10.062,194,8.2735,-2.0608,-17.5285,0.7413,0.3558,1.3846,92,10.147,195,1.5108,0.1027,-12.8608,1.2146,1.2127,-1.2475,63
10.3,198,2.9935,1.2724,-7.6821,-0.6442,-0.0906,-0.5275,86,10.598,204,7.9802,-2.5856,-11.4431,0.0367,1.1023,-1.0692,91,10.114,195,8.4462,0.4953,-20.7979,0.2165,-0.4137,0.8159,92,10.199,196,1.5682,-2.5168,-15.7132,0.2094,0.8999,-0.8914,63
10.352,199,3.2395,2.9264,-7.3235,0.2042,-0.6216,-0.9917,86,10.65,205,0.1543,-1.6643,-10.9206,0.2125,1.4836,-0.4707,91,10.166,196,10.345,0.741,-21.9659,0.1413,0.2847,0.9238,92,10.251,197,2.794,3.4553,-19.1812,-0.1548,0.0415,-0.5191,63
10.404,200,7.4208,0.3917,-10.5713,-0.5283,-0.7849,-0.3462,86,10.701,206,-0.1663,-1.0146,-11.239,0.3109,0.4101,-0.515,91,10.218,197,12.816,4.9087,-21.3052,-0.5085,0.8694,0.88,92,10.303,198,-3.4334,7.814,-17.9645,0.3058,-0.245,-0.1919,63
10.455,201,10.4725,0.0352,-12.5515,0.2888,-0.2538,-0.3744,86,10.753,207,0.3682,0.4025,-10.2357,0.3087,-0.2811,-0.6731,91,10.269,198,9.5568,2.282,-22.3139,-1.0464,0.7465,0.5534,92,10.354,199,-4.826,5.6846,-20.1779,0.7819,0.3455,-0.268,63
10.507,202,9.5825,0.7062,-12.0537,-0.1492,-0.1781,0.3303,86,10.805,208,1.521,0.0844,-9.6561,-0.4547,-0.0983,-0.3138,91,10.321,199,8.6351,1.8792,-17.5346,-1.3879,0.3056,-0.0252,92,10.406,200,1.5951,3.1583,-18.3448,0.8263,0.885,0.0435,63
10.559,203,6.5432,1.3675,-12.6019,0.5156,0.5525,0.9154,86,10.857,209,0.4369,-0.9185,-8.5722,-1.0095,0.6073,-0.1552,91,10.373,200,5.8081,2.8724,-13.3527,-1.0878,0.6968,-0.3784,92,10.458,201,4.4396,3.9268,-16.6436,0.508,1.3309,0.2901,63
10.611,204,-0.7568,2.73,-14.25,-0.1387,0.069,0.1505,86,10.909,210,-0.4184,-2.1518,-6.9416,-0.4119,-0.0519,0.3403,91,10.425,201,5.6381,2.6351,-12.5142,-1.0308,1.1869,-0.4422,92,10.51,202,3.5965,2.006,-14.9364,0.6778,0.3095,0.3318,63
10.663,205,-0.4734,1.8846,-14.7548,-0.7786,-0.6189,-0.5653,86,10.96,211,4.6134,0.968,-5.8761,-0.2287,0.5319,0.5806,91,10.477,202,5.6394,1.859,-14.2814,-0.7284,1.5446,-0.6963,92,10.562,203,2.8319,0.8343,-10.4277,0.589,-0.4409,0.507,63
10.714,206,4.4453,1.0655,-14.9737,-0.4971,-0.8543,-0.649,86,11.012,212,8.2858,1.3953,-5.3484,-0.7462,1.018,-0.1671,91,10.528,203,-1.2083,-0.3603,-18.428,0.0975,0.5963,-0.9351,92,10.613,204,1.4743,-0.6748,-7.913,0.8137,-0.241,0.7205,63
10.766,207,3.2846,1.7794,-13.353,-0.6016,-0.6661,-0.491,86,11.064,213,8.4253,0.8397,-5.965,-0.3955,1.422,-0.4055,91,10.58,204,-4.9437,-0.2942,-21.4545,0.4558,0.0334,-0.8167,92,10.665,205,1.5096,0.4121,-9.1006,0.849,0.1464,0.7724,63
10.818,208,1.993,3.4328,-13.3464,0.233,-0.5406,-0.7034,86,11.116,214,0.4791,3.155,-10.477,0.0829,1.717,-0.1064,91,10.632,205,-0.2177,0.6195,-20.8032,0.0178,0.3318,-0.7353,92,10.717,206,6.2087,5.5929,-14.6232,1.2868,-0.2361,0.2109,63
10.87,209,6.511,7.8437,-17.7373,0.7112,-1.0639,-1.0181,86,11.168,215,-1.3887,2.6379,-10.4975,0.4567,1.2077,-0.058,91,10.684,206,5.1069,1.8295,-18.8043,-0.4008,0.9205,-0.6206,92,10.769,207,-0.9412,9.3741,-18.6539,1.5718,0.4532,0.5537,63
10.921,210,9.8085,7.8709,-18.7732,0.9554,-0.094,-0.2967,86,11.22,216,-1.4337,2.7898,-10.1004,0.5932,0.2088,-0.1034,91,10.735,207,3.6245,-0.1441,-18.3849,-0.9677,0.9236,0.2248,92,10.82,208,-3.6438,7.0455,-20.1314,1.4494,1.0155,0.461,63
10.973,211,7.3992,5.884,-15.3582,0.0343,0.6138,0.4239,86,11.271,217,0.1269,2.9236,-9.5649,-0.0073,-0.5203,-0.6221,91,10.787,208,4.1567,-4.9817,-17.7131,-1.3815,0.0007,0.8418,92,10.872,209,2.4579,2.4338,-18.4476,1.3039,1.3564,0.6421,63
11.025,212,0.7689,4.7835,-18.138,-0.6523,1.1304,-0.0651,86,11.323,218,0.6255,1.41,-9.4703,-0.0678,0.0989,-0.7424,91,10.839,209,3.3244,-3.0284,-15.0028,-1.4402,-0.5197,1.2921,92,10.924,210,6.8215,3.1414,-16.0506,1.1562,1.675,0.4952,63
11.077,213,0.4058,3.1532,-16.099,-0.5218,0.1557,-0.1521,86,11.375,219,-0.3402,1.5367,-8.0201,0.334,0.7512,-1.0295,91,10.891,210,3.055,-1.7207,-14.3616,-0.9617,-0.679,1.6208,92,10.976,211,5.3105,2.5305,-17.8206,0.1667,0.6297,0.1049,63
11.129,214,3.2596,1.8508,-14.8372,0.1048,-0.5557,-0.2833,86,11.427,220,4.6705,4.6041,-13.5851,0.8091,-0.1244,-1.4223,91,10.943,211,2.8703,4.096,-12.1532,-0.0254,-0.6905,1.4552,92,11.028,212,6.6189,0.6685,-12.1374,0.2315,-0.2072,-0.3853,63
11.18,215,2.5709,2.8505,-13.9574,-0.3296,0.1332,-0.0299,86,11.478,221,8.3275,8.6872,-10.2893,-0.0522,-0.7635,-1.7244,91,10.994,212,3.5657,8.3414,-10.6845,0.658,-0.8065,0.7373,92,11.079,213,3.5463,-0.1954,-6.481,0.6786,-0.2414,-0.8468,63
11.232,216,1.1712,4.9909,-13.3893,-0.3962,0.3635,-0.0357,86,11.53,222,7.3757,4.9924,-10.7385,-0.7181,0.1218,-1.6618,91,11.046,213,6.0832,11.4398,-5.214,0.1335,-1.1553,0.6157,92,11.131,214,4.3088,-2.0052,-6.576,0.3407,0.5087,-1.2549,63
11.284,217,4.023,5.4715,-17.4943,0.3852,-0.4041,-0.7012,86,11.582,223,-0.2869,-1.1647,-15.7773,0.1137,0.768,-0.5569,91,11.098,214,8.598,10.2319,-6.0698,0.091,-1.0132,0.3239,92,11.183,215,7.6796,-6.7603,-11.7707,0.2844,-0.2953,-1.356,63
11.336,218,7.9926,-0.2116,-20.1061,-0.3442,-0.4434,-0.1896,86,11.634,224,-0.3896,-2.0515,-15.1527,0.7547,0.3165,0.2589,91,11.15,215,10.0233,8.9848,-9.607,-0.463,-0.4306,0.2977,92,11.235,216,8.5431,-10.1695,-16.572,-0.3652,-0.6348,-1.1773,63
11.388,219,10.7011,0.816,-17.6693,0.3608,0.0893,0.3281,86,11.686,225,-2.4171,-2.5423,-14.4836,1.2225,0.6526,0.8543,91,11.202,216,9.377,7.443,-10.5261,-0.6986,0.1845,-0.2548,92,11.287,217,11.3524,-8.2168,-12.4343,-0.2366,-0.7677,-0.5072,63
11.439,220,7.6154,1.0105,-13.0602,0.4652,0.7476,0.8403,86,11.738,226,1.0723,2.9033,-9.88,1.564,0.2206,0.7112,91,11.254,217,7.2164,5.8433,-11.0381,-0.774,0.4777,-0.7816,92,11.338,218,11.1458,-6.4842,-12.7947,-0.1326,-0.1953,-0.11,63
11.491,221,4.8199,1.0975,-11.3691,0.8419,1.228,1.1637,86,11.789,227,0.3171,2.0301,-10.3989,0.4614,0.8401,0.8996,91,11.305,218,4.7861,4.1343,-11.6355,-0.0342,0.5752,-1.2438,92,11.39,219,9.7059,-4.3934,-10.445,0.5559,0.4306,-0.0338,63
11.543,222,-0.2029,0.949,-11.6588,-0.0629,1.2972,0.7316,86,11.841,228,2.5664,3.7076,-8.9269,0.9916,0.1967,0.0434,91,11.357,219,3.2522,3.235,-11.3189,0.6516,0.5679,-1.5818,92,11.442,220,8.4096,-3.1327,-11.4691,0.0024,0.1364,0.1373,63
11.595,223,-0.2316,0.3265,-10.5715,0.1349,0.5329,0.6663,86,11.893,229,6.7918,7.7064,-10.3736,0.3198,0.8226,0.6349,91,11.409,220,2.4367,1.8401,-11.8843,1.1521,0.2162,-1.8285,92,11.494,221,5.817,-5.008,-8.8487,0.1126,0.0541,0.4074,63
11.647,224,-0.2541,0.3057,-10.1163,0.3027,0.3477,0.7735,86,11.945,230,9.8757,8.2847,-10.6229,-0.4466,0.2515,1.0825,91,11.461,221,7.0441,-3.8941,-6.0897,0.4922,-0.3723,-1.6706,92,11.546,222,4.4256,-4.8718,-7.5304,0.4486,0.6513,0.6258,63
11.698,225,-0.0901,1.008,-9.1031,0.423,0.43,0.7198,86,11.997,231,7.3846,5.7746,-10.8017,-0.539,0.7704,1.0455,91,11.513,222,6.1942,-2.1804,-11.6769,0.3197,0.1465,-1.289,92,11.597,223,3.4743,-2.0696,-10.7716,0.3906,1.0215,0.6766,63
11.75,226,2.4879,0.9856,-6.1971,0.2643,-0.302,0.2898,86,12.049,232,3.9172,4.9752,-11.5768,0.2783,1.2414,1.4189,91,11.564,223,6.0039,-2.2196,-15.0942,0.1039,0.7697,-1.0868,92,11.649,224,6.2385,-1.6332,-15.8428,-0.0746,1.1363,0.8489,63
11.802,227,6.8723,-4.4784,-9.7347,0.379,-0.3203,0.8873,86,12.1,233,1.957,3.0528,-11.0636,-0.1731,0.5357,1.5341,91,11.616,224,7.32,-6.857,-19.0213,-0.5903,1.1665,-0.4612,92,11.701,225,9.6704,-3.9004,-12.9149,-0.4344,0.1626,0.5799,63
11.854,228,9.266,-2.2171,-9.7518,0.951,-0.2108,1.3243,86,12.152,234,0.7914,3.4478,-10.3328,-0.448,0.1439,1.3171,91,11.668,225,6.1342,-7.619,-18.9166,-1.106,0.1779,0.341,92,11.753,226,11.966,-3.4126,-13.5687,-0.3888,0.1857,0.457,63
11.906,229,6.5052,0.4693,-10.4944,1.3684,0.3916,1.6431,86,12.204,235,0.9057,2.7055,-9.9283,-0.1672,-0.2367,1.2453,91,11.72,226,6.2134,-6.2879,-17.5171,-1.4824,-0.5435,0.7572,92,11.805,227,13.8506,-2.3928,-11.8669,0.0788,0.8203,0.4144,63
11.958,230,0.2758,4.1086,-11.4922,0.3819,0.9682,0.6802,86,12.256,236,0.8112,2.7664,-9.2951,0.5263,-0.0638,1.0643,91,11.772,227,4.0536,-5.3991,-14.0796,-0.4054,-1.0701,0.6256,92,11.857,228,11.2626,0.4995,-12.0247,0.0016,1.1135,0.259,63
12.009,231,0.0553,2.7405,-11.7037,-0.3986,0.0675,-0.1526,86,12.308,237,1.9152,2.5695,-7.2754,-0.2943,-0.5242,1.0337,91,11.823,228,4.5284,-3.3973,-11.2329,0.3806,-0.5469,0.7287,92,11.908,229,9.1314,0.9762,-10.434,-0.3102,0.6913,-0.3558,63
12.061,232,0.3274,2.2952,-10.788,-0.9683,-0.6199,-0.7865,86,12.359,238,6.3165,2.8858,-7.4902,0.423,0.2965,0.5221,91,11.875,229,5.6476,0.0637,-9.6255,0.817,0.098,0.5933,92,11.96,230,6.9788,1.3018,-9.2381,0.4483,0.6643,-0.9311,63
12.113,233,0.8859,1.1174,-10.4179,-0.7471,-0.061,-0.9053,86,12.411,239,9.5288,1.763,-9.7279,0.0206,0.6047,-0.3053,91,11.927,230,9.3876,5.3984,-5.443,0.7408,-0.4892,0.0177,92,12.012,231,4.8989,-1.1315,-9.9438,0.4758,0.6585,-1.1456,63
12.165,234,0.229,1.2339,-10.1754,-0.0046,0.0295,-1.1986,86,12.463,240,7.4475,0.4991,-10.5075,0.6868,1.1204,-0.7983,91,11.979,231,8.7771,5.5511,-11.8268,0.5622,-0.7429,0.2976,92,12.064,232,3.2465,-4.4748,-11.5239,-0.3298,0.36,-0.5482,63
12.216,235,5.2236,-1.5644,-9.3377,0.659,-0.6478,-1.5499,86,12.515,241,4.1844,0.1319,-10.6701,1.173,1.4968,-0.3968,91,12.03,232,11.6717,5.9831,-16.6366,0.1492,0.1362,0.0858,92,12.116,233,7.4868,0.7859,-16.3918,-0.5799,-0.3911,-0.0576,63
12.268,236,8.8689,-5.8875,-11.5828,-0.1964,-0.7751,-0.5221,86,12.567,242,1.967,0.9959,-9.0105,1.092,0.4198,-0.1321,91,12.082,233,11.9522,5.8238,-15.977,-0.2467,0.3449,-0.1525,92,12.167,234,10.5815,-4.4157,-17.1726,-1.0785,-0.9523,-0.5052,63
12.32,237,11.2051,-4.1014,-12.0229,0.531,-0.6717,-0.1986,86,12.618,243,2.3718,2.9742,-8.3895,0.117,-0.357,-0.4476,91,12.134,234,10.2146,6.2993,-12.087,-0.8553,-0.0344,-0.2482,92,12.219,235,11.9157,-2.7488,-17.5265,-0.1899,-0.648,-0.4188,63
12.372,238,7.9346,-1.9735,-11.2416,0.9389,-0.3492,0.248,86,12.67,244,1.7518,1.1843,-8.9546,-0.5946,0.0898,-0.2553,91,12.186,235,8.3223,5.8621,-9.0014,-0.7897,0.5778,-0.3748,92,12.271,236,12.8738,-3.1319,-15.5452,0.0437,0.212,0.0008,63
12.424,239,4.1456,0.4819,-12.2139,1.3577,0.3701,-0.0274,86,12.722,245,0.4086,-1.3973,-8.6939,-0.539,0.7446,-0.2521,91,12.238,236,7.5862,4.5838,-9.3773,-0.1191,1.1001,-0.8171,92,12.323,237,10.5573,-2.8381,-15.1326,-0.1303,0.7921,0.3736,63
12.475,240,2.4586,1.0872,-11.3407,0.3135,-0.3992,-0.3693,86,12.774,246,5.217,-2.7279,-12.2781,0.2783,-0.1292,-0.7637,91,12.29,237,7.0029,2.4479,-11.1823,0.5406,1.4812,-1.2627,92,12.375,238,7.7428,-3.2932,-14.9005,0.2508,0.3886,0.4778,63
12.527,241,1.9468,0.8771,-10.9817,-0.4486,-0.9607,-0.9446,86,12.826,247,8.7263,0.4903,-9.5841,-0.4056,-0.1233,0.1079,91,12.341,238,4.346,-1.0843,-14.5771,1.0207,1.1825,-1.5385,92,12.426,239,5.5445,-1.9376,-13.3501,0.5697,-0.148,0.7043,63
12.579,242,3.4086,-0.6082,-11.163,-0.297,-0.8898,-0.9108,86,12.878,248,10.6879,1.1675,-8.3372,-0.8385,0.0949,0.6036,91,12.393,239,-2.1522,4.5605,-18.6439,1.3974,0.9893,-1.1743,92,12.478,240,4.4512,-1.0162,-12.4775,0.7938,-0.6098,0.7025,63
12.631,243,2.9443,-0.091,-10.8335,0.2353,-0.8621,-0.8128,86,12.93,249,6.481,2.743,-6.2104,-0.9511,0.7483,1.1059,91,12.445,240,2.0599,3.4753,-19.2123,0.7881,0.5809,-1.0309,92,12.53,241,2.9002,2.0336,-10.2356,0.6854,-0.8312,0.3729,63
12.682,244,7.2054,2.8837,-11.7189,0.8461,-1.2466,-1.2684,86,12.981,250,4.3549,3.5166,-5.6164,-1.2272,0.0926,1.2079,91,12.497,241,6.7692,5.8208,-18.7591,0.7162,1.0358,-0.9912,92,12.582,242,7.234,-3.8126,-9.4218,-0.1708,-0.9915,0.5446,63
12.734,245,10.3153,0.8042,-16.4982,0.3651,-0.3388,-0.5918,86,13.033,251,3.3429,3.1462,-7.0562,-0.295,-0.0834,0.5637,91,12.549,242,9.0345,1.0283,-17.5919,0.6222,1.233,-0.4864,92,12.633,243,8.4043,-2.2301,-11.1536,-0.0138,-1.298,0.1726,63
12.786,246,12.5626,0.2837,-16.6557,-0.4109,0.4351,0.2447,86,13.085,252,4.555,3.4637,-7.6849,0.4564,-0.2312,-0.275,91,12.6,243,9.2145,-3.2389,-14.8388,0.0744,0.2265,0.2659,92,12.685,244,10.9633,-1.2171,-12.684,0.3583,-0.6687,0.237,63
12.838,247,8.7106,0.3361,-15.0518,-0.9773,1.0,0.8552,86,13.137,253,2.721,2.2588,-8.9807,0.4202,0.5104,-0.8082,91,12.652,244,7.3343,-3.7603,-9.2253,0.0749,0.1284,0.8718,92,12.737,245,13.1188,0.1458,-10.6184,0.67,0.1969,0.4966,63
12.89,248,0.8251,-0.3267,-18.5684,-0.5318,0.9198,1.3008,86,13.189,254,-1.5132,2.7448,-8.4415,0.3946,1.0302,-1.1009,91,12.704,245,7.6101,-2.7452,-10.0151,0.1415,0.7721,1.314,92,12.789,246,9.951,2.361,-15.7309,0.4398,0.3256,-0.1411,63
12.941,249,0.6135,0.2788,-16.9217,0.1616,0.002,1.5509,86,13.24,255,2.9345,4.7287,-6.1727,0.1041,0.0792,-1.4899,91,12.756,246,5.792,1.4763,-13.5268,0.6278,1.065,1.6263,92,12.841,247,9.3458,2.7958,-16.8286,0.1123,-0.4291,-0.6338,63
12.993,250,0.7323,0.5685,-15.8882,0.4592,-0.6664,1.3094,86,13.292,256,7.0605,8.7781,-4.3677,-0.2231,-0.5286,-1.7266,91,12.808,247,3.8132,6.4293,-15.3577,1.1347,0.6466,0.9377,92,12.892,248,5.4193,2.7407,-12.8564,0.3135,-0.8418,-0.9213,63
13.045,251,1.717,0.5751,-14.0522,0.6076,-0.8262,1.0401,86,13.344,257,9.8327,6.7167,-3.6798,-0.7574,-0.6836,-1.9387,91,12.859,248,8.0488,8.8798,-8.6246,0.4909,0.8153,1.111,92,12.944,249,4.3214,0.3583,-8.2436,0.6476,-0.3569,-1.0657,63
13.097,252,1.0108,0.3038,-11.4041,1.1179,-0.5278,0.6821,86,13.396,258,6.3251,1.5541,-5.7647,-1.2328,0.1801,-1.5239,91,12.911,249,10.0908,10.8246,-12.2507,1.0348,0.8824,0.6926,92,12.996,250,5.7212,-1.2449,-5.9395,0.1206,0.1627,-1.196,63
13.149,253,5.2045,0.7769,-11.0066,1.4902,-1.0546,-0.1773,86,13.448,259,0.8357,-0.5498,-8.3744,-0.2989,0.2387,-0.4552,91,12.963,250,12.6305,7.8523,-10.5857,0.1327,1.3076,0.8669,92,13.048,251,9.2929,-3.6345,-12.3161,-0.0008,0.0991,-1.0017,63
13.201,254,8.8549,-4.6307,-11.731,0.7215,-0.6317,0.2055,86,13.499,260,0.4477,-0.5092,-8.8525,0.4536,-0.3045,0.3332,91,13.015,251,11.2308,5.9263,-15.4164,-0.0967,0.9503,0.0641,92,13.1,252,11.8996,-5.3808,-11.7012,-0.1595,-0.5945,-0.5819,63
13.252,255,9.6856,-4.1044,-10.9531,0.466,0.1854,0.5928,86,13.551,261,1.4618,0.2773,-8.6509,0.7302,-0.6185,0.9029,91,13.067,252,9.004,4.4649,-13.538,-0.5328,0.3903,-0.5453,92,13.152,253,11.6353,-3.7385,-13.8604,-0.332,0.2511,-0.1697,63
13.304,256,6.5567,-2.8998,-10.4244,0.4225,0.8177,0.8864,86,13.603,262,0.8867,0.7576,-7.3037,0.731,0.0878,0.9545,91,13.118,253,7.4696,3.4593,-12.714,-0.2858,0.1015,-1.0692,92,13.203,254,12.86,-3.4894,-10.7612,-0.2812,0.8682,0.0974,63
13.356,257,0.1385,-0.2127,-11.2739,0.6929,1.2792,0.9524,86,13.655,263,-0.3251,0.0215,-7.691,0.3764,0.3861,1.1412,91,13.17,254,5.2587,2.4275,-11.9919,0.1502,-0.107,-1.4376,92,13.255,255,11.2073,-3.2112,-12.3664,-0.8033,0.3143,0.3779,63
13.408,258,-0.3274,0.5337,-11.3118,0.2965,0.2643,0.5929,86,13.707,264,4.6815,0.2169,-9.1923,0.7904,-0.3908,1.4981,91,13.222,255,2.9851,1.0345,-12.1343,0.0246,-0.1054,-1.602,92,13.307,256,7.9675,-3.7634,-9.7739,-0.2434,0.0611,0.5166,63
13.459,259,-0.4828,0.1831,-10.6985,0.0566,-0.1379,0.2772,86,13.758,265,8.3355,3.5796,-8.8913,1.2441,-0.5456,1.4773,91,13.274,256,2.5855,-1.8908,-13.5584,0.2482,-0.39,-1.6796,92,13.359,257,5.7752,-3.3218,-8.5515,0.4076,0.6558,0.5722,63
13.511,260,-0.4202,0.1072,-10.4613,-0.1638,-0.7662,-0.2721,86,13.81,266,11.0024,4.002,-7.9774,0.2911,-0.654,0.4238,91,13.326,257,0.4418,0.5492,-7.3114,-0.1509,0.0527,-1.562,92,13.411,258,4.6519,-3.0505,-10.6597,0.175,1.1201,0.7051,63
13.563,261,1.0317,-0.4456,-10.0206,-0.2281,-1.2285,-0.8737,86,13.862,267,8.2316,1.0459,-9.0054,0.0117,0.2009,-0.1015,91,13.377,258,1.9909,0.8938,-12.5122,-0.2766,-0.0036,-1.1518,92,13.462,259,8.5125,3.0657,-15.7611,0.6337,0.3047,0.07,63
13.615,262,2.3546,-1.1457,-8.5432,0.3604,-1.3341,-0.6524,86,13.914,268,0.3377,-0.6673,-12.2279,0.2605,0.7178,0.5495,91,13.429,259,3.8666,0.8292,-14.8559,-0.0567,0.6034,-0.9936,92,13.514,260,6.3215,7.5297,-19.4843,0.4252,-0.3946,0.0465,63
13.667,263,6.7749,-6.0339,-9.376,-0.4143,-0.4086,0.2005,86,13.966,269,0.0193,-1.5072,-11.8473,0.8012,-0.1354,1.0359,91,13.481,260,6.2045,-3.4783,-17.113,-0.7166,1.1187,-0.205,92,13.566,261,6.9363,4.987,-18.3953,0.4781,-0.5614,-0.0935,63
13.718,264,8.2076,-5.4913,-8.2672,0.3588,-0.0372,0.3354,86,14.018,270,0.2454,0.5032,-10.2089,0.8649,-0.6001,1.1428,91,13.533,261,5.5745,-5.2948,-17.3493,-1.1982,0.2003,0.5227,92,13.618,262,8.0251,3.2966,-17.6628,0.5768,-0.093,-0.1554,63
13.77,265,5.6834,-1.2878,-10.127,0.9363,0.6405,0.2417,86,14.069,271,0.6639,1.1519,-9.4111,-0.0488,-0.6723,1.2339,91,13.585,262,6.2139,-4.3044,-16.6982,-1.5497,-0.5272,0.9569,92,13.669,263,10.9068,2.9764,-15.8924,0.5924,0.459,0.0407,63
13.822,266,1.6095,2.2816,-10.4621,0.5651,0.733,-0.4235,86,14.121,272,0.3235,0.7795,-9.1987,-0.214,-0.3151,0.95,91,13.636,263,5.6574,-3.556,-14.401,-0.6964,-1.0582,0.8135,92,13.721,264,10.4021,5.2654,-15.9055,0.4569,1.02,0.3432,63
13.874,267,1.2821,1.495,-11.4118,-0.2649,-0.1344,-0.9842,86,14.173,273,2.0216,0.078,-5.7121,-0.6985,-0.4968,1.184,91,13.688,264,4.378,-2.0797,-10.5544,-0.2763,-1.0563,1.0626,92,13.773,265,9.3169,3.3668,-14.9524,-0.3436,0.3765,-0.3964,63
13.925,268,1.2469,-0.1668,-10.4184,-0.6457,0.376,-1.0002,86,14.225,274,6.3942,-1.9901,-9.6806,0.162,0.2959,0.9083,91,13.74,265,4.1363,0.3261,-8.2933,0.4085,-0.4431,0.8925,92,13.825,266,6.9325,2.1318,-11.6102,0.4237,0.0314,-0.9607,63
13.977,269,-0.1784,-0.6701,-9.8418,-0.841,0.7478,-0.9692,86,14.277,275,9.5855,-1.7704,-10.0509,-0.3518,0.6891,-0.0235,91,13.792,266,8.2846,5.5899,-13.8765,0.0705,-0.6397,0.0078,92,13.877,267,4.1758,-0.6354,-10.0175,-0.2717,0.3664,-1.1164,63
14.029,270,-1.22,-0.2907,-9.2603,-0.373,0.7856,-0.8118,86,14.328,276,8.5125,-1.1785,-11.1364,0.0931,1.182,-0.7035,91,13.844,267,10.1459,7.0837,-15.7513,0.3065,-0.9889,0.1805,92,13.928,268,2.992,-2.2325,-12.3534,-0.8754,0.5149,-0.4171,63
14.081,271,1.4132,-0.3785,-7.8539,-0.2519,-0.096,-1.2676,86,14.38,277,2.4874,0.0842,-10.9014,0.3362,1.5418,-0.2211,91,13.895,268,11.8327,7.3488,-18.3947,-0.1767,-0.0434,0.3277,92,13.98,269,7.301,-2.8337,-6.5298,-0.8337,-0.2859,-0.639,63
14.133,272,6.0879,-1.9708,-9.9027,-0.8612,-0.7204,-1.0581,86,14.432,278,1.9582,0.4215,-10.2527,-0.0345,0.4526,-0.549,91,13.947,269,13.9018,6.2713,-15.6629,-0.7392,0.6398,-0.0266,92,14.032,270,7.9259,1.6231,-12.7469,-0.9476,-0.8726,-0.7999,63
14.184,273,9.4997,-1.0967,-10.7305,0.0458,-0.9472,-1.1078,86,14.484,279,3.218,1.1652,-8.9668,-0.6756,-0.0321,-0.563,91,13.999,270,10.7349,5.5146,-15.0152,-1.0075,0.68,-0.1532,92,14.084,271,9.5761,2.9895,-13.3207,-0.4832,-1.0877,-0.5512,63
14.236,274,9.7424,0.3144,-9.7859,0.4899,-0.5553,-0.2014,86,14.536,280,2.5276,-0.269,-8.7364,-1.0359,0.5106,-0.8381,91,14.051,271,8.1379,5.63,-11.6522,-1.0484,0.7651,-0.3971,92,14.135,272,12.1064,1.1708,-12.6303,-0.0129,-0.1089,-0.1475,63
14.288,275,7.1359,1.1448,-9.0746,0.4391,0.0867,0.5297,86,14.587,281,1.4395,-1.1105,-8.4876,-0.4456,1.0411,-1.1514,91,14.103,272,6.5047,4.6933,-10.8042,-0.4553,1.2368,-0.7247,92,14.187,273,10.1021,-1.5096,-13.6465,0.6653,0.6055,-0.2336,63
14.34,276,4.6105,1.8019,-9.1656,0.6516,0.5877,1.0632,86,14.639,282,1.5626,-0.6695,-6.7337,-0.4622,0.6848,-0.9986,91,14.154,273,5.7942,3.4652,-11.2212,-0.1434,1.581,-0.9662,92,14.239,274,6.885,-3.9991,-13.8575,0.004,0.1745,0.1886,63
14.391,277,2.6717,2.1646,-9.7537,0.3524,0.8679,0.858,86,14.691,283,6.0592,3.1882,-7.5519,-0.1533,0.841,-0.6321,91,14.206,274,4.2323,1.94,-13.6119,0.1991,1.5851,-1.1111,92,14.291,275,5.4333,-2.9258,-12.4338,0.4631,-0.4813,0.5996,63
14.443,278,1.0144,2.626,-10.3044,-0.4202,1.2515,0.6443,86,14.743,284,9.341,4.7403,-6.1623,0.3612,1.2928,-0.7386,91,14.258,275,8.3547,-3.8211,-17.9395,-0.4018,0.4948,-0.4373,92,14.343,276,4.3441,-2.776,-11.4743,0.4817,-0.9416,0.8583,63
14.495,279,0.5284,1.8705,-9.9965,-0.3655,0.4421,-0.0226,86,14.795,285,4.9808,5.5698,-6.5858,0.4807,1.6226,-0.0627,91,14.31,276,10.1253,-3.3969,-17.5679,-0.5508,0.6677,-0.0697,92,14.394,277,2.9316,-0.3893,-8.5063,0.6969,-1.1,0.8263,63
14.547,280,5.4421,2.7351,-9.4105,0.1772,-0.3466,-0.6055,86,14.846,286,0.2945,4.7047,-8.388,0.2226,0.9899,0.5981,91,14.362,277,9.1461,-5.0238,-17.703,-0.8807,0.9667,-0.1075,92,14.446,278,7.2569,5.008,-14.1895,1.1833,-1.4684,0.1076,63
14.599,281,9.0284,-2.1136,-11.2649,-0.4555,-0.8234,-0.435,86,14.898,287,-3.5362,4.4024,-9.7319,0.3964,0.347,0.8301,91,14.414,278,11.941,-4.548,-14.6185,-0.7749,1.3839,-0.2159,92,14.498,279,5.0109,6.0563,-11.18,0.4741,-1.6624,-0.255,63
14.651,282,8.7392,0.0615,-9.3441,0.3146,0.0815,-0.2907,86,14.95,288,-3.6078,5.0196,-9.4194,0.0559,-0.4194,0.6856,91,14.466,279,10.4143,-4.6419,-15.9108,-1.2249,0.7642,0.466,92,14.55,280,8.7745,3.5505,-11.3147,0.7167,-1.258,-0.3612,63
14.702,283,4.6073,2.3151,-7.9167,-0.4478,0.7419,0.4645,86,15.002,289,-2.2448,4.6324,-9.0396,-0.6392,-0.9783,0.1637,91,14.517,280,8.8077,-5.1807,-12.9383,-0.7895,0.3272,0.9717,92,14.602,281,11.381,1.7042,-12.5267,1.1485,-0.3209,-0.2015,63
14.754,284,-2.1697,-1.134,-10.3078,-1.0042,1.2239,-0.3361,86,15.054,290,0.92,4.5326,-7.7307,-0.8338,-1.0724,-0.2906,91,14.569,281,6.5578,-4.5687,-13.2697,-0.478,0.3743,1.3869,92,14.654,282,13.4237,1.1928,-10.7534,0.8798,0.4508,-0.0317,63
14.806,285,-1.7616,-1.2736,-9.8322,-0.5068,0.2239,0.1113,86,15.106,291,5.1246,6.3991,-4.6672,-0.4942,-1.0522,-0.8964,91,14.621,282,5.2865,-2.5373,-14.3645,0.3276,0.4931,1.6526,92,14.705,283,8.7657,2.9216,-13.8296,0.7823,0.131,-0.4073,63
14.858,286,-1.7194,-1.311,-10.7893,0.3024,-0.4047,0.6638,86,15.157,292,8.6589,8.9426,-5.696,0.0027,-0.0888,-1.3359,91,14.672,283,3.8212,1.7222,-14.8226,0.5821,0.2079,1.6695,92,14.757,284,9.461,1.9363,-14.9808,-0.1061,-0.5712,-0.2543,63
14.91,287,-1.293,-0.0279,-10.7965,0.7092,-0.6301,-0.1173,86,15.209,293,10.0886,8.6092,-5.1898,-0.305,0.6142,-1.6614,91,14.724,284,8.0546,6.6088,-18.8231,0.7634,-0.0218,1.226,92,14.809,285,6.9406,0.1993,-10.5146,-0.3847,-1.0837,-0.3563,63
14.961,288,4.1128,-0.6142,-10.2891,1.1919,-1.0273,-0.4208,86,15.261,294,6.4507,1.5721,-8.2086,-0.645,1.1274,-1.2664,91,14.776,285,6.7378,5.0349,-21.4795,1.2311,0.6624,1.0453,92,14.861,286,2.8078,-1.021,-5.0662,-0.8484,-0.4804,-0.3867,63
15.013,289,8.0582,-0.1592,-12.8107,0.6758,-1.4191,-0.7163,86,15.313,295,4.436,0.081,-8.5683,0.201,0.6874,-0.2589,91,14.828,286,9.6745,3.3072,-15.2393,0.2233,0.8458,0.8398,92,14.913,287,7.1666,0.532,-1.0898,-1.2963,-0.0035,-0.5345,63
15.065,290,10.9377,-1.5592,-14.2917,1.1676,-0.6338,-0.6497,86,15.365,296,1.6627,2.4094,-9.6424,0.7054,1.1808,0.4764,91,14.88,287,10.6403,2.9394,-13.1816,0.8391,0.2968,-0.0611,92,14.964,288,-0.2422,4.5802,-8.7766,-0.84,0.6694,-0.4581,63
15.117,291,10.1294,-1.9527,-12.5666,0.1748,0.1509,0.1188,86,15.416,297,-0.7671,5.0947,-9.9031,1.0302,1.5061,0.8383,91,14.931,288,8.4295,2.3493,-12.8768,0.6349,0.2099,-0.6371,92,15.016,289,4.9406,3.2746,-10.3538,-0.5032,0.314,0.1729,63
15.169,292,6.5222,-1.641,-11.0583,-0.4762,0.7926,0.2884,86,15.468,298,-1.1407,7.4546,-9.7669,1.0423,1.2426,0.9359,91,14.983,289,6.4949,2.0392,-13.023,0.2931,0.0954,-0.8852,92,15.068,290,8.7231,-0.0512,-9.2429,0.0402,0.7675,0.192,63
15.22,293,-0.7722,0.5417,-13.9648,-0.4957,1.2609,0.3445,86,15.52,299,-0.7838,8.6864,-9.295,0.6863,0.9619,0.2459,91,15.035,290,4.841,1.6865,-13.9924,-0.1414,-0.3775,-1.0881,92,15.12,291,7.3137,1.823,-9.971,0.4295,0.5158,0.2325,63
15.272,294,-0.4169,0.5907,-12.2613,-0.44,0.2509,-0.3909,86,15.572,300,4.3467,11.6649,-9.8158,-0.1791,0.0294,0.1324,91,15.087,291,4.9743,0.5864,-14.485,0.5085,-0.9489,-1.4358,92,15.172,292,5.3591,0.6313,-8.0317,0.0324,0.3235,0.1518,63
15.324,295,0.3162,0.321,-10.9967,-0.1712,-0.4862,-0.9555,86,15.624,301,8.0912,12.1641,-9.5768,-0.7568,-0.2117,-0.5445,91,15.139,292,5.0056,-0.8084,-9.6563,0.4496,-1.3589,-1.5035,92,15.223,293,4.0863,0.0303,-8.0919,-0.2508,0.4615,0.3977,63
15.376,296,1.5832,1.057,-9.8261,0.494,-0.457,-1.0904,86,15.675,302,8.8736,10.2993,-7.5592,-1.1501,0.0075,-0.783,91,15.19,293,3.0331,4.7619,-15.0525,0.5419,-1.6652,-1.5778,92,15.275,294,2.5345,-1.2986,-7.5602,-0.7815,0.6733,0.7497,63
15.428,297,0.9727,2.1714,-8.7365,0.7473,0.1752,-0.8699,86,15.727,303,4.7696,5.0015,-8.5044,-1.5195,0.6835,-0.4742,91,15.242,294,4.649,4.199,-16.3458,0.1724,-1.034,-1.0531,92,15.327,295,6.9671,4.3444,-2.91,0.0742,0.6956,0.7056,63
15.479,298,5.7664,3.711,-6.1012,0.744,-0.5415,-1.2169,86,15.779,304,2.0738,2.367,-8.9626,-0.4411,-0.1734,0.3193,91,15.294,295,8.5573,3.9657,-16.5151,0.0833,-0.0763,-0.7566,92,15.379,296,10.2022,6.1097,-2.155,-0.0553,0.0959,0.4249,63
15.531,299,9.2651,-1.2153,-10.5553,0.6801,0.2344,-0.3734,86,15.831,305,2.2554,2.9332,-7.5523,0.0576,0.3903,0.6553,91,15.346,296,7.4033,-0.4837,-18.6231,-0.6145,0.6227,-0.0233,92,15.43,297,10.3883,3.2193,-5.9212,-0.0385,-0.0031,0.2891,63
15.583,300,9.9393,-1.1055,-10.9763,0.758,0.8535,0.4041,86,15.883,306,0.7261,2.0311,-8.4378,-0.4931,0.6591,0.8578,91,15.398,297,4.7396,-3.4955,-18.1287,-1.1237,-0.1641,0.5915,92,15.482,298,10.9328,1.4127,-8.3923,0.2027,0.399,0.119,63
15.635,301,6.9609,1.1059,-12.2919,1.2276,1.3053,0.9716,86,15.934,307,0.4753,1.466,-8.6176,0.3076,0.1596,1.0474,91,15.45,298,4.5635,-3.2405,-17.7092,-0.6891,-0.7932,0.7167,92,15.534,299,13.0965,0.515,-8.2092,0.5133,0.965,0.1506,63
15.686,302,0.0061,2.0182,-13.7098,0.2186,1.2304,0.034,86,15.986,308,0.9814,2.274,-7.6564,-0.4366,0.1475,1.0789,91,15.502,299,4.4782,-2.332,-16.0321,0.1736,-1.2523,0.6952,92,15.586,300,10.6452,2.9003,-9.7407,0.0656,1.3893,0.2591,63
15.738,303,0.0793,2.1766,-12.8259,-0.5179,0.5341,-0.6503,86,16.038,309,5.635,-0.6815,-12.0638,-0.9181,-0.565,1.1316,91,15.554,300,3.2185,-0.0686,-11.0997,0.5064,-1.2139,0.8641,92,15.638,301,7.5508,0.9638,-8.9719,-0.5571,0.9394,-0.1856,63
15.79,304,-0.4036,1.2785,-11.0959,-1.0422,0.4636,-0.9329,86,16.09,310,9.0315,4.8295,-9.534,-0.4947,-0.6453,1.1609,91,15.605,301,3.3074,4.0143,-7.5183,0.8797,-0.4622,0.7769,92,15.689,302,5.44,0.299,-8.5011,0.2634,0.7057,-0.459,63
15.842,305,-0.2619,0.9235,-9.8812,-0.3467,-0.0465,-0.8831,86,16.142,311,10.8867,2.6531,-10.058,-1.041,0.173,0.3283,91,15.657,302,3.2857,3.2885,-13.4921,0.198,-1.0108,0.5618,92,15.741,303,4.328,-0.9365,-8.971,-0.3471,0.5371,-0.3695,63
15.893,306,0.2002,1.9619,-8.6046,0.4214,-0.2362,-0.9987,86,16.193,312,7.2166,2.838,-10.9197,-0.0881,0.8054,-0.2963,91,15.709,303,4.1518,1.1451,-15.6233,0.2696,-0.3593,0.9494,92,15.793,304,2.0594,-2.3084,-9.859,-0.9304,0.3356,-0.1394,63
15.945,307,5.2026,5.6479,-14.2765,0.4243,-0.8417,-1.2435,86,16.245,313,3.9489,2.3312,-9.8589,-0.4757,-0.0798,-0.5126,91,15.761,304,8.2959,1.2494,-16.4523,0.0119,0.4161,0.7059,92,15.845,305,1.6148,-6.9816,-15.1767,-1.2937,0.7388,-0.3005,63
15.997,308,8.8535,1.647,-15.1119,0.673,-0.529,-0.6082,86,16.297,314,0.7925,2.2797,-9.8524,-1.0266,-0.1423,-0.9105,91,15.812,305,7.7825,1.6275,-14.7514,-0.5671,0.982,0.6349,92,15.897,306,6.2959,-9.8302,-13.1961,-1.5686,-0.1271,-0.0543,63
16.049,309,9.957,1.5879,-13.2149,0.9648,-0.3035,-0.2362,86,16.349,315,0.7567,2.2297,-8.6326,-1.429,-0.3965,-0.9476,91,15.864,306,6.6389,0.4361,-13.5921,-0.7522,0.4828,0.3574,92,15.948,307,8.3086,-7.5875,-13.6485,-1.0586,0.4061,0.0215,63
16.101,310,6.4077,2.6877,-12.6521,0.3507,0.4609,0.5041,86,16.401,316,0.491,1.3178,-7.9563,-1.5865,-0.03,-0.883,91,15.916,307,5.2462,0.9525,-9.5866,-0.7881,0.5255,0.0223,92,16.0,308,9.1482,-5.2394,-11.5688,-0.5639,0.9813,0.2039,63
16.153,311,-0.8557,1.8441,-13.6538,-0.0833,0.4021,-0.3072,86,16.453,317,0.6862,0.8914,-6.6196,-0.9874,0.108,-0.8547,91,15.968,308,4.9772,1.231,-9.2229,-0.1427,1.0619,-0.4793,92,16.052,309,8.0942,-4.6752,-13.3455,0.1482,1.1341,0.2143,63
16.205,312,-0.4939,2.1948,-13.1055,-0.7382,-0.3758,-0.8601,86,16.504,318,5.4195,2.5521,-6.8893,-1.1009,-0.5903,-0.9269,91,16.02,309,5.0997,0.8855,-10.1475,0.2933,1.4533,-0.9227,92,16.104,310,5.8024,-3.9829,-12.2361,0.0927,0.4988,0.3603,63
16.256,313,-0.0361,1.8589,-13.2323,-1.2161,-0.9436,-0.8511,86,16.556,319,8.8742,7.1895,-5.9199,-0.2903,0.0941,-1.3629,91,16.071,310,3.2556,5.6291,-15.411,0.8702,0.9057,-1.3351,92,16.156,311,4.2217,-3.299,-11.228,-0.2469,-0.0054,0.4702,63
16.308,314,0.8531,0.5785,-11.3038,-0.7682,-0.6629,-1.0588,86,16.608,320,8.1229,6.8192,-7.2554,-0.8919,0.7475,-1.0562,91,16.123,311,-2.9481,9.4603,-13.3137,0.9229,0.4555,-0.7964,92,16.208,312,2.957,-3.0279,-10.2686,-0.2601,-0.2876,0.5236,63
16.36,315,1.9461,0.6315,-9.4172,0.0809,-0.8277,-1.0922,86,16.66,321,0.2585,5.2086,-9.4927,-0.7846,1.2152,-1.0544,91,16.175,312,1.3944,9.2683,-16.1628,0.5549,0.4341,-0.6101,92,16.259,313,5.1372,3.0822,-15.3466,-0.7476,-0.654,0.4276,63
16.412,316,6.1198,2.4771,-9.1348,0.7334,-1.149,-1.274,86,16.712,322,-2.431,3.2256,-10.151,-0.3958,0.7489,-0.9402,91,16.227,313,6.2835,9.7125,-16.6921,0.1875,0.9929,-0.1293,92,16.311,314,5.6291,-1.1939,-19.1651,-0.5923,-0.7654,0.5734,63
16.464,317,9.523,0.9424,-10.5487,0.6677,-0.1562,-0.8247,86,16.763,323,-2.9763,1.967,-10.4378,0.0723,0.1843,-0.5132,91,16.279,314,5.4354,3.3575,-15.5778,0.0585,1.1068,0.1828,92,16.363,315,9.2257,-1.2077,-18.5512,-0.282,-0.2144,0.3995,63
16.515,318,10.9818,1.2043,-12.433,0.5021,0.5684,-0.1081,86,16.815,324,-1.9451,2.8113,-9.652,0.5415,-0.2438,-0.4347,91,16.33,315,6.5846,-0.5616,-12.538,-0.2209,0.2795,0.7817,92,16.415,316,9.6833,-1.2165,-18.4257,0.463,0.5285,0.0998,63
16.567,319,7.6245,1.2456,-12.4298,-0.3109,1.0973,0.5977,86,16.867,325,-1.2911,3.5518,-9.0699,-0.1423,-0.7573,-0.1693,91,16.382,316,5.2339,-0.0496,-11.0023,-0.8159,0.3773,1.2483,92,16.467,317,8.965,4.4043,-20.8294,0.8897,1.0707,0.3739,63
16.619,320,0.0324,1.8026,-15.5183,-0.1904,1.4833,0.0212,86,16.919,326,-0.7957,3.0357,-7.7261,-0.159,-0.1092,-0.3508,91,16.434,317,3.8473,1.1296,-11.8781,-1.1188,0.6168,1.5888,92,16.518,318,7.2403,3.9688,-18.8779,0.6619,0.1191,-0.2811,63
16.67,321,-0.1531,1.5012,-14.2631,-0.7933,0.4132,-0.2713,86,16.971,327,1.5536,7.5425,-4.005,0.5557,0.3387,-0.9424,91,16.486,318,3.5672,5.2183,-13.1505,-0.5582,0.4288,1.6832,92,16.57,319,5.862,2.5565,-13.6533,0.5496,-0.5799,-0.7501,63
16.722,322,0.11,0.4093,-12.2093,-1.0097,-0.3677,-0.6802,86,17.022,328,6.0527,10.8317,-3.2252,0.1036,0.3024,-1.2446,91,16.538,319,3.3327,7.843,-12.0205,0.2691,-0.254,0.7553,92,16.622,320,4.9908,0.7394,-9.536,1.0758,-0.4268,-1.1816,63
16.774,323,1.3865,-0.5839,-10.6499,-0.2322,-0.4902,-0.6694,86,17.074,329,6.3728,12.7303,-3.7744,-0.5919,-0.452,-1.5947,91,16.59,320,7.6981,0.4871,-6.464,-0.1407,0.155,0.847,92,16.674,321,4.4925,-0.3254,-6.6374,0.8586,0.3252,-1.1836,63
16.826,324,2.586,-0.311,-8.9364,0.5049,-0.3613,-0.8029,86,17.126,330,4.0457,6.1305,-7.9155,-1.112,-0.353,-1.0683,91,16.641,321,6.6891,-0.6378,-10.5034,0.3861,-0.2541,0.303,92,16.726,322,3.9385,-4.3996,-5.4473,1.2067,0.5122,-1.0226,63
16.878,325,6.9439,0.869,-11.2646,0.8925,-0.933,-0.1811,86,17.178,331,1.3489,-0.5764,-11.153,-0.3273,0.4215,-0.1458,91,16.693,322,5.4947,1.6198,-11.5875,-0.2726,-0.017,0.6369,92,16.777,323,7.9918,2.0811,-10.5254,0.4341,0.7209,-0.9458,63
16.929,326,10.1243,-1.5996,-11.7849,0.9797,-0.0021,0.5444,86,17.23,332,0.0745,-0.446,-12.2888,0.4329,0.5087,0.559,91,16.745,323,6.4529,2.602,-12.1664,-0.8742,0.521,0.6329,92,16.829,324,0.3601,6.7626,-15.6631,0.2583,0.7502,-0.7824,63
16.981,327,8.6363,-1.1962,-11.703,1.3687,0.6284,0.914,86,17.281,333,-1.295,-0.6066,-10.5838,0.8131,1.0033,1.0733,91,16.797,324,4.4446,3.9595,-12.6674,-0.5682,0.8788,-0.1215,92,16.881,325,5.3801,5.1873,-15.4577,0.5637,0.8436,-0.3501,63
17.033,328,4.7293,1.2131,-11.0817,1.6733,1.141,1.3437,86,17.333,334,-2.0003,1.4557,-9.4696,-0.0866,1.0284,1.3947,91,16.848,325,3.5186,2.8968,-13.4956,-0.3922,1.0549,-0.7452,92,16.933,326,9.044,3.3292,-12.1786,0.7955,1.1513,-0.0719,63
17.085,329,0.1732,1.8569,-12.2386,0.5526,0.328,0.8436,86,17.385,335,-1.5135,5.0567,-7.654,0.6085,0.7827,1.244,91,16.9,326,3.2252,2.6067,-13.555,0.1047,0.959,-1.2179,92,16.985,327,7.6314,2.5516,-11.1864,0.8489,0.927,0.0435,63
17.137,330,-0.4172,1.6046,-11.4982,0.2222,0.1246,0.5214,86,17.437,336,3.8141,9.0174,-11.2348,-0.2359,-0.1015,1.4961,91,16.952,327,3.0548,1.0056,-14.0826,0.6152,0.4984,-1.5629,92,17.036,328,6.0023,0.3303,-10.1636,-0.0575,0.2131,0.348,63
17.188,331,-1.1308,1.035,-11.0956,0.3178,-0.1131,0.331,86,17.489,337,7.7025,11.9082,-10.547,-0.0779,0.1247,0.5528,91,17.004,328,3.4714,-0.5771,-11.3173,1.0317,-0.217,-1.785,92,17.088,329,3.3911,-1.223,-8.1489,-0.5873,0.1306,0.7344,63
17.24,332,-0.9951,0.908,-10.4623,0.4056,-0.3074,0.1826,86,17.54,338,8.801,11.2721,-9.3184,-0.6076,0.0575,0.1358,91,17.056,329,-2.7906,4.9307,-16.2648,0.7548,-0.1585,-0.978,92,17.14,330,2.6128,-1.0535,-7.4497,-0.1928,0.587,1.0633,63
17.292,333,-0.695,0.7341,-9.6084,0.3209,-0.4912,-0.2292,86,17.592,339,4.5918,5.7006,-9.4517,-1.1234,0.7211,0.3109,91,17.107,330,2.8719,3.9699,-15.6885,0.25,-0.0127,-0.6737,92,17.192,331,5.0311,-1.641,-13.4183,0.2413,0.3751,0.9309,63
17.344,334,4.5492,0.2266,-4.4215,-0.161,-1.0278,-0.8424,86,17.644,340,2.3604,1.0781,-11.614,-0.8054,-0.1464,0.8922,91,17.159,331,7.3618,4.9544,-15.5506,0.0425,0.6691,-0.3628,92,17.244,332,1.1597,1.5949,-17.7745,0.5147,0.143,1.0218,63
17.395,335,8.3767,-5.0324,-3.7423,-0.7949,-0.3212,0.0397,86,17.696,341,3.3458,2.237,-10.745,-0.2827,-0.7795,1.3165,91,17.211,332,5.8312,0.7824,-19.1525,-0.6442,1.1633,0.413,92,17.295,333,1.7533,2.1333,-18.8076,0.5083,0.1968,0.9122,63
17.447,336,6.8798,-3.5407,-5.1146,0.0654,0.4385,0.6247,86,17.748,342,3.5863,4.276,-10.1498,-0.8863,-1.2281,1.2608,91,17.263,333,5.9238,-2.799,-17.764,-0.8181,0.1756,0.327,92,17.347,334,6.0475,0.1133,-17.7547,0.4565,0.7781,0.5453,63
17.499,337,3.4116,0.0728,-6.7184,0.2604,1.0024,1.1326,86,17.8,343,2.9466,1.2947,-8.8837,-1.3269,-1.3236,1.567,91,17.315,334,6.6875,-1.2872,-16.6001,0.0795,-0.5452,-0.0863,92,17.399,335,8.5767,1.5909,-14.1338,0.9452,1.2529,0.4646,63
17.551,338,-0.7196,-0.1365,-8.9356,-0.3921,0.8091,0.1568,86,17.852,344,1.8823,0.4369,-8.4972,-0.2967,-1.3011,1.7452,91,17.366,335,4.448,-1.1975,-11.3199,0.7345,-1.0631,-0.1306,92,17.451,336,7.7295,3.4725,-17.4348,0.6123,0.8345,-0.0439,63
17.603,339,-0.7588,0.7299,-8.3632,-0.1843,0.2887,-0.3341,86,17.903,345,6.2926,1.2369,-7.9289,0.0943,-1.6223,1.0085,91,17.418,336,3.4765,-1.0567,-8.8926,1.1424,-0.718,0.0519,92,17.503,337,6.0289,1.8976,-14.8689,-0.0236,0.3391,-0.4592,63
17.655,340,-1.3429,0.7524,-8.2194,-0.0406,0.2635,-0.6064,86,17.955,346,9.5114,0.4076,-9.089,0.007,-0.817,0.0984,91,17.47,337,-1.4638,0.1927,-14.4951,1.0835,0.0221,0.2704,92,17.555,338,4.2973,1.3592,-13.811,-0.1317,0.0846,-0.728,63
17.706,341,-1.5801,1.598,-7.8045,0.5796,-0.0474,-0.6889,86,18.007,347,10.487,-0.131,-10.0183,0.3963,0.0828,-0.4843,91,17.522,338,4.1974,5.4925,-18.584,0.4424,-0.3194,-0.1643,92,17.606,339,2.4531,0.0716,-13.239,-0.1016,-0.0663,-0.8614,63
17.758,342,-1.2647,2.6852,-7.5076,1.0974,-0.7029,-1.0868,86,18.059,348,6.4541,-0.2851,-9.9772,0.9609,0.7395,-0.6057,91,17.574,339,6.3873,3.6579,-18.8712,0.4708,0.0655,0.0777,92,17.658,340,1.2378,-1.3646,-11.8604,-0.0001,-0.0771,-0.6755,63
17.81,343,4.1335,7.3497,-13.4759,1.0995,-1.1824,-0.6819,86,18.111,349,3.2191,0.734,-8.7236,1.2791,-0.0941,-0.7237,91,17.626,340,9.9275,2.8826,-17.718,-0.2617,0.7262,0.2463,92,17.71,341,6.0207,-0.4088,-6.0485,-0.0329,-0.723,-0.4898,63
17.862,344,8.0733,3.5862,-14.2569,1.4769,-0.8102,0.0935,86,18.162,350,1.6007,0.6801,-10.06,0.2535,0.1384,-0.8748,91,17.677,341,7.567,3.6406,-17.5927,-0.6784,1.2042,-0.0405,92,17.762,342,1.9595,2.5496,-8.9852,-0.7011,-1.1945,-0.7644,63
17.913,345,9.0086,5.1325,-14.0692,1.7389,-0.3893,0.7449,86,18.214,351,0.1059,-0.2491,-10.0818,-0.1206,0.0801,-0.8766,91,17.729,342,6.2696,2.6033,-14.5835,-1.1348,1.1071,-0.0816,92,17.813,343,6.4189,3.724,-9.6637,0.163,-0.3392,-0.6731,63
17.965,346,5.6974,6.1501,-14.4001,1.4666,0.3628,1.164,86,18.266,352,0.1505,-0.508,-11.3303,-0.3537,-0.3606,-0.6532,91,17.781,343,5.1313,1.3818,-13.2778,-1.5034,0.8511,-0.1902,92,17.865,344,6.5465,1.9187,-10.3482,0.396,0.4374,-0.0998,63
18.017,347,-1.3741,5.006,-16.6277,0.393,0.9472,0.1744,86,18.318,353,3.0151,0.0375,-9.8891,0.4027,-0.7527,-0.7924,91,17.833,344,3.4875,1.4695,-12.6166,-1.7725,0.7184,-0.1089,92,17.917,345,4.0936,-0.917,-9.6654,-0.3028,0.168,-0.0183,63
18.069,348,-1.5573,2.5364,-15.8844,-0.0393,0.022,-0.5478,86,18.37,354,7.1193,3.625,-11.578,0.2208,-0.2879,-0.4936,91,17.884,345,2.6672,0.2485,-13.0192,-1.1839,0.5846,-0.2555,92,17.969,346,3.028,-2.8021,-10.5185,-0.5507,-0.5062,0.3919,63
18.121,349,-1.5286,1.2792,-14.4821,-0.0223,-0.6533,-0.7489,86,18.422,355,10.1148,6.7758,-7.5345,0.8178,0.3995,-0.6552,91,17.936,346,7.2124,0.6191,-6.918,-0.533,0.4568,-0.0573,92,18.021,347,3.0817,-2.7761,-10.503,-0.165,-1.0362,0.7164,63
18.172,350,3.9408,2.3673,-18.1463,-0.1382,-0.9536,-0.6917,86,18.473,356,8.5243,7.0636,-7.7521,-0.0831,0.963,0.1872,91,17.988,347,3.7759,4.0163,-13.0539,0.2876,-0.2187,-0.7159,92,18.072,348,2.6507,-1.3932,-6.5739,0.4111,-1.1689,0.9468,63
18.224,351,6.6678,3.0788,-15.8849,-0.3831,-1.1941,-0.3717,86,18.525,357,0.5514,10.4822,-8.8265,0.6111,1.3819,0.802,91,18.04,348,3.9131,2.751,-15.5796,-0.2628,0.3322,-0.6187,92,18.124,349,2.9026,1.6852,-12.7791,-0.256,-1.1583,1.2837,63
18.276,352,9.7278,1.6274,-15.5257,-0.199,-0.302,-0.4257,86,18.577,358,-2.5647,9.8748,-9.5369,-0.2314,0.9128,0.5365,91,18.092,349,8.1217,4.8586,-14.4638,0.2601,0.8907,-0.4638,92,18.176,350,7.2357,5.1315,-17.3079,-0.0464,-0.4983,1.2793,63
18.328,353,12.1563,3.2561,-15.6065,-0.7318,0.462,-0.1484,86,18.629,359,-4.2929,7.45,-10.7806,-0.3663,0.529,-0.0042,91,18.143,350,5.9781,0.8854,-16.2728,0.2905,0.9209,0.0065,92,18.228,351,10.3982,3.3723,-18.1177,0.2487,-0.0167,0.5624,63
18.38,354,10.6263,0.2215,-15.6066,-1.2115,1.0196,0.5683,86,18.681,360,-3.4015,6.5635,-9.8111,-0.1793,0.0435,-0.2797,91,18.195,351,6.8756,-2.9846,-15.1321,0.0339,0.0148,0.6457,92,18.279,352,10.2268,4.1862,-17.1861,0.7563,0.6728,0.3196,63
18.431,355,7.3064,0.2053,-14.207,-0.6083,1.4266,0.8264,86,18.732,361,-1.2354,6.4188,-8.6037,0.1506,-0.0508,-0.4031,91,18.247,352,4.9159,-3.3706,-14.026,0.4618,-0.3445,1.149,92,18.331,353,8.5713,6.6085,-17.8975,1.2014,1.176,0.2264,63
18.483,356,1.5684,2.9968,-13.4247,-0.92,1.7236,1.0244,86,18.784,362,1.965,8.5121,-5.1308,0.7813,0.2172,-0.9806,91,18.299,353,1.4595,0.2981,-13.6811,1.0136,0.197,1.5157,92,18.383,354,8.6794,9.5292,-17.7591,1.4931,0.1915,0.1486,63
18.535,357,0.6332,1.8014,-12.3334,-1.1723,0.5898,0.5106,86,18.836,363,6.3529,11.5394,-5.0946,0.7255,-0.0109,-1.402,91,18.351,354,2.6031,4.9241,-15.8955,0.8431,0.4681,1.7307,92,18.435,355,10.1797,6.5491,-13.237,0.5978,-0.527,-0.1543,63
18.587,358,0.4748,1.5637,-11.2676,-0.5481,-0.232,0.0769,86,18.888,364,9.5554,12.3216,-3.6035,-0.0731,-0.6806,-1.7096,91,18.403,355,5.5586,-1.6432,-9.0172,-0.0557,0.8618,1.9409,92,18.487,356,5.1079,5.7282,-7.0532,0.503,-0.5546,-0.3926,63
18.639,359,2.2928,2.4242,-10.4141,0.2562,-0.8273,-0.4822,86,18.94,365,8.8363,8.8439,-4.3972,-0.7334,-0.3689,-1.6706,91,18.454,356,7.4359,-2.819,-12.1512,0.5194,0.0787,0.9059,92,18.538,357,7.9566,2.0127,-6.9804,0.604,0.2802,-0.772,63
18.69,360,6.7299,3.8981,-15.5972,0.4308,-1.2731,-0.5804,86,18.991,366,3.4357,1.1939,-11.1321,-1.2153,0.4098,-1.4506,91,18.506,357,8.0335,-0.4549,-11.7016,0.1935,-0.1921,0.5137,92,18.59,358,10.9244,2.4311,-2.951,0.3741,-0.4623,-0.8999,63
18.742,361,9.9683,1.0951,-16.3667,0.4428,-0.3622,0.1768,86,19.043,367,2.0282,0.5854,-13.0269,-0.2152,-0.3736,-0.3933,91,18.558,358,7.1437,0.5716,-12.2923,-0.534,0.0008,0.6592,92,18.642,359,8.1555,1.5116,-7.8758,0.0105,-0.7345,-1.176,63
18.794,362,10.1153,1.2176,-12.4199,-0.3478,0.4181,0.5214,86,19.095,368,0.4851,0.5808,-14.4612,-0.0409,-0.3942,0.3783,91,18.61,359,5.3164,2.588,-12.5434,0.0312,0.2547,-0.0495,92,18.694,360,10.0984,1.8788,-9.8654,0.0425,-0.4282,-0.3962,63
18.846,363,5.5382,1.5816,-9.9776,-0.2819,0.9876,1.0534,86,19.147,369,1.6146,1.8397,-12.42,0.6419,-0.9604,0.9415,91,18.662,360,3.4203,3.4921,-12.8051,-0.1608,0.5453,-0.6718,92,18.746,361,12.4876,-0.0701,-10.5429,0.1153,0.2342,-0.0809,63
18.897,364,0.7498,-0.2044,-10.7106,-0.149,0.0609,0.9174,86,19.199,370,3.1425,4.279,-9.2932,1.0497,-0.5768,1.1026,91,18.713,361,2.8549,2.986,-12.5839,-0.2194,0.8642,-1.1642,92,18.797,362,11.3895,-0.8088,-8.6127,0.3804,0.7016,0.0249,63
18.949,365,0.6143,-0.8681,-11.5101,-0.7294,-0.6249,0.9543,86,19.251,371,7.2123,4.3571,-9.6956,0.0861,-1.0936,0.6118,91,18.765,362,2.7636,2.1168,-13.2186,0.5164,0.9054,-1.5237,92,18.849,363,10.7586,-2.1355,-7.9743,-0.3994,-0.1438,0.3043,63
19.001,366,2.2395,-2.1697,-12.3342,-0.0016,-0.4215,1.057,86,19.302,372,10.1826,5.3266,-8.8833,0.7345,-0.9151,-0.1043,91,18.817,363,3.1798,-0.7254,-13.7394,1.0534,0.2631,-1.7861,92,18.901,364,7.2039,-2.8287,-5.8093,-0.7921,-0.0083,0.674,63
19.053,367,2.4636,-1.5634,-11.2088,0.6289,-0.3266,0.9986,86,19.354,373,11.2258,5.5863,-7.4655,-0.0682,-0.4141,-0.4959,91,18.869,364,7.5865,4.8225,-7.4435,1.2283,-0.3443,-1.6066,92,18.953,365,5.4813,-2.4761,-6.4426,-0.6992,0.6786,1.0158,63
19.105,368,2.7977,-1.1836,-10.394,1.1333,-0.0831,0.9316,86,19.406,374,7.0746,1.6699,-7.9647,-0.722,0.3769,-0.3303,91,18.921,365,8.1748,4.6607,-12.4095,0.6287,0.1065,-1.0774,92,19.005,366,5.027,-4.2102,-12.6833,-0.921,0.9549,1.2474,63
19.157,369,7.0983,0.4435,-11.3944,1.5015,-0.5878,0.5448,86,19.458,375,2.2758,0.4854,-8.906,-0.6156,-0.1758,-0.1492,91,18.972,366,10.5276,3.5865,-14.2813,0.2819,0.7561,-0.5281,92,19.057,367,-1.8037,-8.3696,-12.4298,-1.3472,0.8557,0.4682,63
19.208,370,10.2372,-4.171,-12.0825,1.0311,-0.9738,0.3268,86,19.51,376,0.9242,-0.7087,-8.9923,0.2224,-0.5166,0.4765,91,19.024,367,6.1308,-1.3248,-18.2062,-0.4695,0.8846,0.273,92,19.108,368,1.3556,-7.6016,-14.6067,-0.9441,0.8902,0.5608,63
19.26,371,12.528,-0.8003,-10.1391,1.4269,-1.38,0.3097,86,19.561,377,1.2554,0.659,-7.2674,0.8341,-0.8656,0.724,91,19.076,368,5.5532,-4.2318,-17.6676,-1.0179,-0.0278,0.7624,92,19.16,369,5.6074,-7.4172,-14.8589,-0.691,1.2174,0.3064,63
19.312,372,9.582,0.8181,-9.1073,0.9584,-1.0306,-0.1379,86,19.613,378,1.1464,0.6759,-6.8872,0.505,-0.2005,0.931,91,19.128,369,5.2418,-3.195,-15.8694,-1.1275,-0.6937,0.8251,92,19.212,370,6.2532,-2.1731,-12.0418,-0.0862,1.5735,0.3355,63
19.364,373,4.4123,1.2209,-7.0543,0.071,-0.0701,0.0369,86,19.665,379,1.0389,1.1035,-6.835,1.0403,0.0924,0.6351,91,19.179,370,4.0135,-1.9869,-12.4924,-0.1477,-1.1797,0.6518,92,19.264,371,7.8485,0.0221,-13.6411,-0.5363,0.7127,-0.1634,63
19.416,374,3.0858,1.1732,-8.2158,-0.6255,-0.7205,-0.6481,86,19.717,380,5.677,3.0177,-6.1158,0.6496,-0.6053,-0.2194,91,19.231,371,3.6722,-0.6698,-8.1318,0.1211,-0.7118,0.8826,92,19.315,372,4.9317,-1.4791,-11.0731,-0.1834,0.7577,-0.7508,63
19.467,375,3.455,-0.4701,-6.6357,-0.6868,-1.1952,-1.1482,86,19.769,381,9.0621,5.8413,-5.4575,1.1276,-0.5554,-0.8465,91,19.283,372,1.0996,0.6313,-13.9398,0.6772,0.0905,0.8692,92,19.367,373,3.9552,-1.8038,-10.4424,0.5408,1.1608,-1.1764,63
19.519,376,2.8346,0.6601,-6.2108,0.1718,-0.8256,-1.1186,86,19.82,382,11.5327,5.9969,-6.447,0.1429,-0.3393,-1.3042,91,19.335,373,6.0683,1.5168,-18.1788,0.5547,-0.3483,0.2738,92,19.419,374,3.348,-3.2809,-11.5261,0.7281,1.2814,-1.3097,63
19.571,377,2.6684,2.1051,-5.6063,0.2306,-0.8756,-1.3612,86,19.872,383,6.9571,-0.3014,-8.4103,-0.5757,0.4314,-0.8006,91,19.387,374,4.3257,3.3143,-20.5014,0.3787,-0.6388,0.3096,92,19.471,375,3.1421,-0.5064,-16.3934,0.1745,0.6455,-0.9287,63
19.623,378,7.004,3.9215,-9.3484,0.1641,-1.3084,-0.9695,86,19.924,384,3.1666,-1.1615,-10.2895,0.1599,-0.3578,0.0811,91,19.438,375,8.4228,2.8502,-20.8913,0.3843,0.0625,0.3313,92,19.523,376,6.0306,-5.6664,-19.7849,0.0862,0.8112,-0.6656,63
19.674,379,10.1683,1.0102,-11.9554,0.4311,-0.6207,-0.4855,86,19.976,385,1.5909,0.5566,-11.5232,0.7884,-0.7905,0.7245,91,19.49,376,8.4497,4.4279,-16.4875,0.1561,0.614,-0.0621,92,19.574,377,9.5187,-4.7759,-17.9737,0.3917,0.9367,-0.5381,63
19.726,380,12.4777,2.4971,-13.6286,0.0468,0.2294,0.3223,86,20.028,386,3.3338,4.5383,-10.3278,-0.1046,-0.4293,0.4752,91,19.542,377,8.3828,4.0327,-18.0069,0.4944,0.607,-0.5964,92,19.626,378,9.0126,-2.4718,-17.8772,0.3177,1.117,-0.4209,63
19.778,381,10.4388,2.3105,-12.5529,-0.6432,0.7262,0.9119,86,20.079,387,1.7887,3.4337,-9.4105,-0.6471,0.0725,-0.1555,91,19.594,378,6.9699,3.3905,-15.6292,-0.3144,0.5988,-0.8353,92,19.678,379,11.6951,-1.6098,-15.317,-0.0052,1.5002,0.0202,63
19.83,382,7.0717,1.7053,-12.0927,0.185,1.0351,1.1843,86,20.131,388,0.8568,2.1449,-7.9259,-0.5929,0.3576,-0.5781,91,19.646,379,5.2156,2.9739,-13.8917,-0.3322,0.9262,-1.0752,92,19.73,380,8.2863,-2.6141,-16.1512,-0.0878,1.7715,0.2437,63
19.882,383,4.1159,3.1789,-10.4682,0.8094,1.2193,1.2581,86,20.183,389,5.2332,4.7549,-4.6759,-0.0438,-0.3674,-1.1083,91,19.698,380,3.8588,1.9909,-12.9532,-0.1476,1.353,-1.1718,92,19.782,381,6.713,-3.9129,-15.8623,-0.0298,0.6261,0.6615,63
19.933,384,2.2735,3.5659,-11.4621,0.7971,1.4746,1.3042,86,20.235,390,8.7382,7.382,-5.1701,-0.712,0.4109,-1.1416,91,19.749,381,3.6508,-0.8212,-14.1999,0.2014,1.6659,-1.4003,92,19.833,382,4.9733,-2.4374,-11.5899,0.2884,-0.2093,0.8108,63
19.985,385,0.6868,3.7588,-10.9945,0.8244,0.8348,0.7815,86,20.287,391,10.2595,7.9168,-4.6042,-0.2228,0.7631,-1.5196,91,19.801,382,7.9302,-4.168,-7.7796,0.7108,1.0763,-1.3581,92,19.885,383,3.7864,-0.2492,-8.3417,0.799,-0.2568,0.8208,63
20.037,386,0.7224,3.5602,-11.8248,0.4089,-0.06,-0.1047,86,20.339,392,5.9765,4.9619,-6.3923,-0.7941,1.236,-0.5527,91,19.853,383,11.0536,-3.2488,-10.7024,0.2016,0.5964,-0.9466,92,19.937,384,3.7992,-0.4766,-14.0693,0.7935,-0.5299,0.6008,63
20.089,387,5.5837,3.4146,-15.0913,0.4913,-0.7132,-0.6217,86,20.39,393,3.0468,3.2071,-8.3602,0.0922,0.2294,0.262,91,19.905,384,13.3331,-0.5533,-12.6867,-0.0398,1.1135,-0.5811,92,19.989,385,7.8901,1.7097,-16.5194,0.7032,-0.1049,0.6603,63
20.141,388,9.1317,-1.1785,-15.7634,-0.3188,-0.0961,0.2118,86,20.442,394,-0.8588,4.4486,-8.6171,0.2759,-0.0771,0.6865,91,19.957,385,12.2212,-2.4505,-12.6312,-0.4234,1.2755,0.0386,92,20.04,386,10.8758,-0.0926,-15.1814,0.4691,-0.7434,0.4479,63
20.192,389,9.1655,-2.384,-12.9008,-0.7813,0.6095,0.4818,86,20.494,395,-1.2978,3.1944,-9.4825,-0.2257,-0.6003,0.6472,91,20.008,386,10.7334,-4.4618,-12.3746,-0.9842,0.6198,0.7059,92,20.092,387,9.6503,-0.428,-16.1567,0.5135,0.1405,0.0495,63
20.244,390,5.687,-1.8271,-10.6948,-1.1151,1.1273,0.3557,86,20.546,396,-1.0511,3.4199,-8.1094,-0.1836,-1.1108,0.49,91,20.06,387,10.0861,-4.1041,-11.2693,-1.3328,0.4089,1.193,92,20.144,388,10.197,0.947,-16.0153,1.0038,0.7875,0.191,63
20.296,391,-0.1045,-2.1961,-11.0203,-1.2137,1.5051,0.2242,86,20.598,397,0.3184,3.1622,-6.9091,-0.814,-1.2232,0.3131,91,20.112,388,7.3207,-3.6256,-12.0416,-1.244,0.3342,1.5484,92,20.196,389,11.0966,1.3307,-13.919,1.1645,1.2597,0.0224,63
20.348,392,-0.3902,-1.1036,-9.7603,-0.5506,0.4292,0.0427,86,20.649,398,5.1512,5.0582,-6.48,-0.053,-1.5654,-0.3846,91,20.164,389,5.7315,1.1025,-12.4345,-0.3602,0.3658,1.8067,92,20.248,390,8.4347,4.2473,-13.9969,1.4634,0.2526,0.1365,63
20.4,393,-1.3643,-0.5469,-8.8422,-0.2182,0.2238,-0.1619,86,20.701,399,8.6783,8.6978,-5.3275,-0.6912,-1.5064,-0.967,91,20.216,390,4.1426,6.1565,-12.1617,0.3453,0.0804,1.5256,92,20.3,391,9.468,3.3206,-13.6442,1.0275,-0.4824,-0.0284,63
20.451,394,-1.3562,-0.9204,-8.579,-0.1739,0.0025,-0.3939,86,20.753,400,9.5175,8.4991,-5.3286,-0.7858,-0.7729,-1.3385,91,20.267,391,8.2892,9.8452,-6.2921,0.7714,-0.6143,0.5059,92,20.351,392,3.6731,2.3394,-8.9138,0.0728,-0.7379,-0.2946,63
20.503,395,-1.0155,-0.6254,-8.3714,0.5475,-0.3132,-0.3787,86,20.805,401,6.333,5.4238,-6.7717,-0.8051,0.0752,-0.902,91,20.319,392,8.2557,8.6534,-8.3812,0.2494,-0.8094,0.482,92,20.403,393,3.9401,6.9478,-14.4869,-0.094,0.1464,-0.2433,63
20.555,396,-0.2808,0.7341,-4.8203,1.0051,-0.8979,-0.9515,86,20.857,402,1.1303,1.2453,-11.2112,0.0841,0.734,-0.176,91,20.371,393,8.6792,8.2731,-13.3891,-0.4523,-0.552,0.5258,92,20.455,394,6.6122,-0.226,-18.5544,0.0528,0.3559,-0.4979,63
20.607,397,4.8515,-2.4046,-8.2736,0.7594,-0.0943,-0.0475,86,20.908,403,-0.0046,-0.4385,-12.0371,0.3779,-0.0989,0.5369,91,20.423,394,7.8292,7.6814,-12.7642,-1.0054,-0.0621,0.2,92,20.507,395,9.9432,0.7108,-13.9228,0.0328,0.5664,-0.7349,63
20.659,398,4.7914,-2.0729,-8.1034,0.4096,0.6136,0.6114,86,20.96,404,-1.6676,-0.0811,-10.8968,0.3074,-0.3303,1.0572,91,20.474,395,7.3286,6.6197,-12.19,-0.9193,0.1586,-0.3224,92,20.558,396,8.5595,0.7251,-15.1765,-0.2247,0.7222,-0.061,63
20.71,399,2.5316,-0.8153,-8.3327,-0.3273,1.1302,1.1229,86,21.012,405,-0.9476,0.7193,-10.1717,0.8961,-0.8687,1.437,91,20.526,396,4.9052,5.4147,-11.9041,-0.2082,0.3852,-0.9091,92,20.61,397,10.2121,-3.2192,-13.9386,-0.1522,1.2121,0.1676,63
20.762,400,-0.6768,-0.6106,-9.4074,-0.1675,0.4122,0.9339,86,21.064,406,2.8347,3.1239,-8.9304,1.3257,-0.1597,1.2169,91,20.578,397,3.0333,3.4063,-12.6328,0.36,0.623,-1.3375,92,20.662,398,7.8037,-2.1597,-11.9527,0.5106,1.3991,0.2586,63
20.814,401,0.1075,0.5241,-9.3154,-0.0142,-0.3685,1.0586,86,21.116,407,6.9877,4.7618,-11.6419,0.4212,-0.7892,1.2409,91,20.63,398,3.7603,-0.0204,-13.7129,0.9393,0.3448,-1.6502,92,20.714,399,7.3605,-1.9367,-10.1484,0.8344,0.5212,0.5651,63
20.866,402,0.1375,0.3839,-8.8284,-0.5994,-0.2615,0.8605,86,21.168,408,10.0187,6.881,-11.6721,-0.3726,-1.0539,0.6517,91,20.682,399,-2.5797,-0.0829,-18.0132,1.362,-0.4217,-1.8632,92,20.766,400,5.9728,0.1185,-8.2299,0.1119,0.3308,0.7677,63
20.917,403,-0.389,0.3485,-8.8566,-0.1359,-0.4391,0.4693,86,21.22,409,9.7268,4.3419,-11.1008,-0.952,-0.1155,0.2424,91,20.734,400,-6.6984,-3.6664,-21.1517,1.6642,-0.9713,-1.9046,92,20.817,401,4.3163,1.6629,-8.3552,-0.2453,0.3384,0.8919,63
20.969,404,-0.7467,0.9814,-8.088,0.5752,-0.7114,0.1335,86,21.271,410,4.2653,2.3278,-9.2299,-0.9831,0.5948,0.4635,91,20.785,401,-1.7795,-3.2135,-22.1493,0.7801,-0.3687,-1.554,92,20.869,402,1.9391,3.6253,-10.1589,0.1932,0.3051,0.6108,63
21.021,405,4.5115,-2.2333,-8.5,0.076,-1.1885,-0.5777,86,21.323,411,2.761,1.1909,-8.5742,-1.333,0.4153,0.4323,91,20.837,402,3.967,-1.6772,-22.1652,0.0553,0.4092,-1.0735,92,20.921,403,6.5325,-2.6509,-15.3956,-0.0773,0.3851,0.7585,63
21.073,406,8.3492,-1.8409,-10.7773,0.4085,-0.1855,-0.1516,86,21.375,412,1.7558,1.2957,-8.4004,-0.3011,0.778,0.6016,91,20.889,403,2.3276,0.3369,-24.182,0.2338,0.0575,-0.3746,92,20.973,404,7.1837,-5.4383,-18.0889,-0.2423,-0.3251,0.6724,63
21.125,407,8.028,-1.2646,-10.7326,0.0301,0.5421,0.4686,86,21.427,413,1.9578,6.2186,-8.9976,0.3555,1.1459,-0.2473,91,20.941,404,4.7914,-1.0878,-21.5866,-0.3909,-0.6314,0.2268,92,21.024,405,10.3603,-5.8194,-17.6983,-0.3746,0.0208,0.3003,63
21.176,408,5.2577,0.951,-10.8628,0.3234,0.9687,0.5598,86,21.479,414,0.7516,4.7002,-11.8443,0.4082,1.3965,-0.807,91,20.993,405,2.965,0.3532,-15.0225,0.0471,-1.1342,0.6031,92,21.076,406,10.1107,-2.5792,-14.802,-0.2693,0.7002,0.51,63
21.228,409,1.7785,2.4493,-10.8928,-0.263,1.3894,0.5076,86,21.53,415,2.1075,7.2455,-10.8509,0.9697,0.8463,-1.2754,91,21.044,406,2.0648,0.3017,-10.4263,0.3647,-0.8352,1.0301,92,21.128,407,8.2491,-0.8196,-16.0037,-0.8736,1.0704,0.5382,63
21.28,410,0.1922,0.9764,-10.8201,-0.5342,0.4115,-0.3046,86,21.582,416,6.4569,10.6149,-10.8735,0.0277,-0.055,-1.3199,91,21.096,407,1.0747,1.9289,-13.1359,0.8365,-0.1062,1.0444,92,21.18,408,5.632,-1.6652,-14.2228,-0.6123,0.9178,0.0365,63
21.332,411,0.2547,0.5919,-10.1021,-0.6679,-0.369,-0.7376,86,21.634,417,9.6313,12.2849,-6.9113,0.61,-0.1322,-1.6497,91,21.148,408,1.2345,1.9727,-15.2556,1.0188,-0.4031,0.5668,92,21.231,409,3.9005,-0.7992,-12.1697,0.2278,1.039,-0.6445,63
21.384,412,3.6,-0.1192,-6.7454,-0.9227,-0.9387,-1.0131,86,21.686,418,10.5728,10.8492,-5.5665,-0.2348,-0.2581,-1.2366,91,21.2,409,6.1667,6.7917,-19.1391,0.208,-0.6994,-0.2226,92,21.283,410,3.387,-2.3768,-10.5425,0.8409,1.1212,-1.0901,63
21.435,413,2.515,0.6582,-6.7668,0.0009,-0.2147,-0.4934,86,21.738,419,7.0092,7.748,-6.2122,0.5004,0.4907,-0.2372,91,21.252,410,5.8767,7.5378,-21.3774,0.2306,-0.7412,0.2976,92,21.335,411,3.875,3.5575,-15.6756,-0.0633,1.4299,-0.3139,63
21.487,414,6.892,-1.0623,-6.2409,0.6535,-0.1543,-0.7575,86,21.789,420,3.3146,7.6027,-6.9587,-0.1884,0.349,0.4894,91,21.304,411,9.5548,3.2407,-22.1545,-0.4748,-0.2666,0.6501,92,21.387,412,-0.4072,-2.7004,-15.948,-0.3785,1.6909,-0.1393,63
21.539,415,10.0866,-5.973,-7.884,-0.1961,-0.2068,0.1238,86,21.841,421,-1.4845,4.6754,-8.4297,-0.8175,0.0638,0.4852,91,21.355,412,10.3089,2.2449,-21.0406,-0.1705,0.0138,0.1609,92,21.439,413,4.8201,-1.8067,-14.8226,0.0095,1.5812,-0.2082,63
21.591,416,10.295,-4.1525,-8.4159,0.5312,-0.1268,0.3336,86,21.893,422,-2.445,4.1199,-8.5839,-0.578,-0.2164,0.8842,91,21.407,413,8.4987,3.5755,-17.1826,-0.6271,0.0809,0.0739,92,21.49,414,5.6484,-0.538,-15.7886,0.0033,1.4779,-0.082,63
21.643,417,6.8638,-1.3066,-8.6488,0.6598,0.1555,0.906,86,21.945,423,-1.9161,4.0136,-8.6121,-0.0778,-0.4084,1.1269,91,21.459,414,6.629,3.6727,-13.314,-0.8066,0.3102,-0.0861,92,21.542,415,9.0676,-0.2786,-13.8831,-0.1947,1.7636,0.3879,63
21.694,418,3.4694,1.1597,-10.418,0.7849,0.7959,0.8911,86,21.997,424,-1.6863,4.9372,-7.2382,0.0454,-0.0039,0.9251,91,21.511,415,5.5736,3.3351,-11.8233,-0.2676,0.9048,-0.5615,92,21.594,416,8.7797,-1.498,-13.6165,-0.1976,1.9613,0.3985,63
21.746,419,2.4799,1.9338,-12.203,-0.1045,-0.0884,-0.0079,86,22.049,425,3.6371,7.9106,-4.1102,-0.336,-0.6755,0.404,91,21.563,416,5.3155,2.3564,-12.4031,0.371,1.3387,-1.0527,92,21.646,417,7.284,-1.4761,-13.9736,-0.4329,0.981,0.4675,63
21.798,420,4.2545,1.0351,-12.5539,-0.5512,0.1994,-0.3293,86,22.1,426,7.5733,11.1004,-4.6232,0.4265,0.186,-0.3915,91,21.614,417,4.2102,-0.1957,-13.305,0.9473,1.4066,-1.4159,92,21.697,418,5.6164,-0.6089,-12.5476,0.2662,0.1263,0.6201,63
21.85,421,4.5225,1.9601,-11.6613,-0.9112,-0.5238,-0.9154,86,22.152,427,7.3836,9.6175,-5.6605,-0.3687,0.6369,-0.8332,91,21.666,418,8.3385,-5.3799,-13.0713,0.9354,1.0233,-1.3695,92,21.749,419,3.9593,-0.5997,-10.8833,0.489,-0.3872,0.6092,63
21.902,422,4.667,2.1115,-10.7669,-0.6274,-1.0516,-1.3432,86,22.204,428,-0.2812,4.5624,-5.4976,-0.9491,1.1439,-0.7904,91,21.718,419,7.0584,-2.7848,-14.6752,0.6158,0.9597,-1.1257,92,21.802,420,2.4271,-0.5987,-9.1341,1.0316,-0.1582,0.283,63
21.954,423,8.4626,-2.3416,-6.6027,0.1813,-1.4369,-1.6555,86,22.256,429,-2.5283,1.2645,-6.4213,-0.512,0.862,-0.0162,91,21.77,420,9.9711,-0.6301,-15.8324,0.2436,1.3787,-0.6835,92,21.853,421,6.8887,-2.9195,-8.8855,0.6095,-0.1579,-0.4084,63
22.005,424,11.2329,-0.8516,-6.4746,0.7737,-0.3663,-0.8307,86,22.308,430,-3.2002,1.6366,-7.2754,0.298,0.3529,0.5788,91,21.822,421,8.0201,-3.9061,-14.651,-0.4714,1.6176,0.1411,92,21.905,422,-0.445,-6.3941,-14.4662,-0.0698,0.4492,-0.5225,63
22.057,425,9.7756,-0.3328,-8.4096,-0.0775,0.4151,0.065,86,22.359,431,-2.6575,4.3736,-7.9569,0.2133,-0.0211,0.1893,91,21.873,422,7.1949,-7.6007,-11.6957,-1.0193,1.0571,0.7807,92,21.957,423,4.7925,-6.736,-14.6744,0.377,0.4661,-0.4593,63
22.109,426,6.2871,-0.0228,-9.5325,-0.0245,0.9854,0.5671,86,22.411,432,-2.5693,2.8816,-8.8903,-0.4591,0.2091,0.04,91,21.925,423,5.5265,-5.4312,-11.1614,-0.7984,1.2114,1.2475,92,22.009,424,8.6151,-2.3975,-12.9394,0.6231,1.0252,0.0943,63
22.161,427,4.2179,-0.0351,-8.24,-0.3297,0.8575,0.4316,86,22.463,433,-2.8775,5.6009,-7.5351,0.2454,0.1877,-0.4837,91,21.977,424,5.2762,-3.8637,-12.2404,-0.3652,1.1829,1.5882,92,22.061,425,6.1494,-3.5039,-17.4249,-0.2223,0.8301,-0.359,63
22.213,428,5.069,-0.5368,-8.8792,-0.9173,0.5726,0.6228,86,22.515,434,2.8186,9.4146,-6.5028,0.2575,-0.5357,-0.8244,91,22.029,425,3.1603,0.5332,-13.0603,-0.3368,0.7432,1.8227,92,22.112,426,6.7089,-4.5982,-17.1732,-0.8095,-0.061,-0.6871,63
22.264,429,3.3351,-0.7716,-9.4829,-0.1985,0.5192,0.7543,86,22.567,435,5.4053,12.1981,-5.8104,-0.0185,-0.9387,-1.2881,91,22.081,426,3.5094,4.7346,-12.4245,0.4085,0.0156,1.2068,92,22.164,427,2.1605,-3.4305,-11.8141,-0.2083,-0.5193,-0.9282,63
22.316,430,5.1246,0.9714,-9.6064,0.5295,0.3237,0.3837,86,22.618,436,6.2418,8.3177,-6.6494,-0.6935,-1.3578,-1.1133,91,22.132,427,7.8271,8.8074,-17.0729,0.9537,0.1667,0.2137,92,22.216,428,2.0141,-3.9746,-8.3658,0.2995,0.063,-1.3195,63
22.368,431,8.1159,2.5787,-10.4329,0.4157,0.5024,0.4129,86,22.67,437,5.7854,0.8098,-9.0547,-0.9823,-0.6103,-0.8173,91,22.184,428,9.1361,8.5128,-15.4221,1.3726,-0.0415,-0.3716,92,22.268,429,2.4262,2.3913,-14.0869,0.8084,-0.1277,-1.4678,63
22.42,432,10.9798,-1.8862,-11.6536,-0.0399,-0.0198,0.4323,86,22.722,438,-0.8931,-1.3923,-11.124,-0.0511,-0.755,0.0689,91,22.236,429,8.754,8.1514,-17.0095,0.3265,0.0825,0.2398,92,22.32,430,6.888,-3.5515,-7.6735,0.0155,-0.7553,-0.7906,63
22.471,433,13.07,-2.2998,-9.8931,-0.2702,0.3487,0.5173,86,22.774,439,-0.6463,-0.0456,-10.9844,0.6344,-1.2237,0.7157,91,22.288,430,7.9111,6.6283,-15.6314,-0.4369,0.4628,0.3845,92,22.371,431,10.1445,-5.8248,-10.8348,-0.4387,-1.0342,-0.7594,63
22.523,434,9.0265,-2.5617,-8.6165,-0.8746,0.738,0.7099,86,22.826,440,0.9911,2.2755,-10.5149,0.7278,-0.9279,1.1877,91,22.34,431,6.4989,5.1833,-15.4127,-0.4452,0.6319,-0.269,92,22.423,432,9.7447,-3.9553,-11.8836,-0.1584,-0.102,-0.2995,63
22.575,435,5.8748,-1.9426,-8.976,-0.7882,1.2211,0.846,86,22.877,441,0.8893,4.8318,-7.9635,1.2029,-0.3831,1.2269,91,22.391,432,5.0309,3.3275,-15.1314,0.3516,0.5797,-0.8704,92,22.475,433,12.0762,-3.6222,-9.6008,0.2168,0.5733,-0.0903,63
22.627,436,0.2351,0.1835,-9.8421,-0.7218,0.3903,0.4893,86,22.929,442,1.5588,6.7512,-6.0138,0.1979,-0.716,0.6815,91,22.443,433,3.6668,2.4357,-14.4806,0.9332,0.2875,-1.3092,92,22.527,434,8.8644,-2.3628,-10.6877,-0.3657,0.58,0.1474,63
22.679,437,0.0697,-0.067,-8.849,-0.5303,-0.3845,-0.0377,86,22.981,443,6.0564,8.3391,-8.6118,0.3328,0.1209,0.1345,91,22.495,434,3.2359,1.0602,-14.1371,1.263,-0.2454,-1.6192,92,22.579,435,7.1131,-3.1115,-10.229,-0.944,-0.0354,0.4607,63
22.73,438,0.1057,0.2677,-8.9666,-0.2476,-0.9498,-0.6115,86,23.033,444,9.2558,8.8616,-8.3506,-0.4371,-0.1643,-0.1863,91,22.547,435,7.6274,-3.4902,-7.7338,0.6549,-0.8454,-0.8437,92,22.63,436,4.8139,-2.0765,-8.6794,-0.6236,-0.2008,0.7608,63
22.782,439,1.7338,0.2706,-8.3773,-0.3743,-1.3313,-1.0229,86,23.085,445,6.4791,5.9778,-8.3266,-0.9991,0.4911,0.0594,91,22.598,436,2.8992,-7.2728,-12.1933,0.6937,-1.0772,-0.7867,92,22.682,437,2.4041,-1.066,-7.53,-0.1923,0.2551,1.0324,63
22.834,440,6.0393,-0.5841,-8.0191,0.4,-1.2835,-1.1224,86,23.137,446,-0.9413,0.8324,-11.943,-1.0712,0.9184,-0.425,91,22.65,437,7.3817,-3.2958,-15.4705,-0.1689,-0.4668,-0.433,92,22.734,438,6.8719,4.5141,-3.4919,-0.523,-0.2903,0.3499,63
22.885,441,9.4642,-2.7138,-11.546,0.1647,-0.8671,-0.5975,86,23.188,447,-1.0705,0.6702,-12.1219,-0.1331,0.8098,0.0301,91,22.702,438,10.2046,-3.6541,-16.3848,-0.7985,0.3377,0.3024,92,22.786,439,-0.4572,8.5868,-10.5297,-0.3314,0.4198,0.5353,63
22.937,442,10.6791,-2.5229,-11.3119,0.3045,-0.1659,0.0313,86,23.24,448,-1.943,0.7877,-11.7527,0.2399,0.9709,0.4439,91,22.754,439,7.6801,-2.3183,-18.2079,-1.0676,-0.2954,0.4814,92,22.838,440,3.0785,4.517,-12.6346,-0.1917,0.1924,0.3862,63
22.989,443,7.7931,-1.8302,-10.6082,-0.2085,0.2786,0.4138,86,23.292,449,-1.6148,1.1855,-11.0682,0.4245,0.414,0.5588,91,22.806,440,8.2023,-2.1454,-17.3069,-0.4438,-0.889,0.3327,92,22.889,441,7.3641,1.7412,-11.8442,0.4304,0.6964,0.1893,63
23.041,444,5.1152,-0.9597,-10.3031,-0.016,0.8857,0.9403,86,23.344,450,-0.8668,1.9671,-9.5776,0.1832,-0.0842,0.4447,91,22.858,441,6.561,-1.8191,-14.5681,0.3526,-1.3222,0.3263,92,22.941,442,7.2843,2.988,-12.854,0.306,1.1932,0.1374,63
23.093,445,0.6363,0.0216,-10.7217,-0.3077,1.0703,0.3042,86,23.396,451,4.2862,4.7088,-9.0295,-0.5463,-0.7341,0.6571,91,22.909,442,5.0238,-1.2732,-10.8122,0.7726,-0.8337,0.6982,92,22.993,443,5.652,2.9075,-11.4147,0.0154,0.976,-0.331,63
23.144,446,0.3589,0.0281,-10.4055,-0.8995,0.1118,-0.2437,86,23.447,452,7.6872,5.0871,-8.2913,0.2286,0.1433,0.4168,91,22.961,443,1.3479,-3.7539,-15.8961,1.2404,-0.3458,0.6649,92,23.045,444,4.3515,2.227,-10.4068,0.686,0.8098,-0.7918,63
