right_hand_timestamp,right_hand_index,right_hand_accel_x,right_hand_accel_y,right_hand_accel_z,right_hand_gyro_x,right_hand_gyro_y,right_hand_gyro_z,right_hand_battery_percentage,left_hand_timestamp,left_hand_index,left_hand_accel_x,left_hand_accel_y,left_hand_accel_z,left_hand_gyro_x,left_hand_gyro_y,left_hand_gyro_z,left_hand_battery_percentage,right_leg_timestamp,right_leg_index,right_leg_accel_x,right_leg_accel_y,right_leg_accel_z,right_leg_gyro_x,right_leg_gyro_y,right_leg_gyro_z,right_leg_battery_percentage
0.647,12,3.5914,-6.0093,-14.2264,0.6467,-0.0712,0.4133,76,0.086,1,2.9775,5.048,-14.313,-0.4619,-0.248,-0.1361,86,0.325,6,10.1407,0.6007,-11.1799,-0.0752,-0.3001,0.7286,75
0.699,13,7.3036,-9.5835,-17.9364,-0.1217,-0.3596,0.5717,76,0.137,2,7.093,7.4739,-18.3861,-1.0089,-0.7191,0.177,86,0.377,7,9.2186,0.3679,-10.9031,-0.2662,0.1334,0.9285,75
0.751,14,8.2054,-11.9716,-16.9672,0.0546,-0.1319,0.6004,76,0.189,3,10.0967,10.5806,-18.3752,-0.6574,-0.7861,0.2683,86,0.428,8,9.169,-1.0007,-11.9004,-0.0139,0.5422,1.2133,75
0.803,15,5.8829,-8.8939,-14.204,0.3806,0.2881,0.652,76,0.241,4,8.4839,9.7971,-16.1084,-1.1598,-0.1258,0.1312,86,0.48,9,8.571,-1.8915,-10.9828,-0.0045,0.3489,0.8361,75
0.854,16,1.3307,-4.1871,-12.2302,0.6065,0.6369,0.7761,76,0.293,5,3.309,4.5387,-15.1643,-1.5265,0.5873,-0.5262,86,0.532,10,8.231,-3.4097,-11.6059,-0.1779,-0.3702,-0.0435,75
0.906,17,1.0283,-3.2199,-12.7299,0.3621,0.5253,0.6273,76,0.345,6,0.6912,1.8951,-14.8422,-0.8364,0.5093,-0.537,86,0.584,11,11.2731,-7.7256,-8.5424,-0.4433,0.2445,-0.2249,75
0.958,18,1.5593,-2.5029,-12.723,0.1519,0.5045,0.4899,76,0.396,7,0.4698,1.7748,-13.9307,-0.7871,0.3045,-0.2454,86,0.635,12,8.9901,-8.8263,-9.0258,-0.4034,0.0011,0.5136,75
1.01,19,2.3631,-2.9862,-10.8939,0.0701,0.354,0.5538,76,0.448,8,1.0756,1.8457,-12.7166,-0.2125,0.4226,-0.4331,86,0.687,13,7.9791,-3.1259,-8.6045,-0.5722,0.0739,1.0526,75
1.061,20,2.8461,-6.6182,-12.118,0.1418,0.0437,0.8128,76,0.5,9,1.864,3.155,-13.7013,-0.0492,0.0914,-0.6733,86,0.739,14,4.7019,1.0268,-8.7499,-0.3252,0.6719,1.3725,75
1.113,21,6.0813,-10.028,-13.9192,0.4594,-0.0664,0.4627,76,0.552,10,6.2803,7.6295,-17.9396,0.0313,-0.6059,-0.4404,86,0.791,15,4.8221,-1.4103,-14.391,-0.5746,0.9417,0.891,75
1.165,22,7.418,-12.5166,-14.0095,0.235,-0.4756,0.5128,76,0.604,11,8.9945,10.8952,-17.5188,-0.4098,-0.5382,-0.5925,86,0.843,16,8.7851,-1.5335,-11.8457,0.203,0.1971,0.9936,75
1.217,23,6.0728,-10.4861,-13.0885,0.8459,-0.5585,0.0576,76,0.656,12,6.2528,10.5869,-17.8647,-0.1812,0.2863,-0.7776,86,0.894,17,8.6213,-3.8747,-16.0056,-0.5271,-0.1802,1.4029,75
1.269,24,3.5681,-5.7487,-12.2546,0.8224,-0.3341,-0.154,76,0.707,13,2.7111,7.9483,-15.8021,-0.0518,0.039,-0.5311,86,0.946,18,10.8338,-4.4979,-16.5289,-0.4299,-0.4788,0.4462,75
1.32,25,2.1635,-2.8744,-11.5885,0.274,-0.1491,-0.1094,76,0.759,14,0.9526,5.0413,-12.556,-0.344,-0.1053,-0.3033,86,0.998,19,10.3746,-2.8984,-18.0561,-0.5552,0.3045,0.289,75
1.372,26,1.0036,-2.4332,-11.3332,-0.1197,-0.0359,-0.1839,76,0.811,15,0.0088,3.3787,-11.7295,-0.2672,-0.1791,0.1152,86,1.05,20,10.0541,-6.1879,-18.2424,0.2713,-0.2348,-0.3906,75
1.424,27,0.8571,-2.6693,-10.1779,-0.2194,0.0487,-0.094,76,0.863,16,-0.5443,2.6525,-11.9279,-0.0229,-0.1685,0.3187,86,1.102,21,9.4072,-0.3738,-15.2851,-0.4772,-0.3616,-0.7297,75
1.476,28,0.8388,-3.6736,-9.8815,-0.0521,0.1411,0.1087,76,0.915,17,-0.661,3.169,-11.2948,-0.0416,-0.2826,0.3086,86,1.154,22,9.7934,0.8319,-15.5401,-1.0235,-0.1392,-1.2066,75
1.528,29,2.1735,-7.8788,-11.3208,0.3536,-0.3313,0.5786,76,0.966,18,0.7252,6.2992,-13.2179,-0.4427,-0.5781,-0.0982,86,1.205,23,8.7154,-2.4084,-15.345,-0.3727,0.0516,-1.5547,75
1.579,30,4.8877,-10.948,-14.1093,0.1199,-0.2399,0.6921,76,1.018,19,5.4491,9.9243,-17.5868,-0.458,-0.49,-0.2131,86,1.257,24,6.4973,-6.1684,-15.3896,0.4046,-0.6254,-1.8069,75
1.631,31,5.5054,-8.8169,-10.5768,0.6548,0.1553,0.378,76,1.07,20,4.5849,12.426,-15.7052,-0.833,0.2835,-0.3371,86,1.309,25,9.9915,0.4464,-8.6479,-0.0421,-0.8354,-1.3185,75
1.683,32,2.116,-2.9743,-10.2531,0.3932,-0.115,-0.0813,76,1.122,21,-0.3452,3.8905,-13.7268,-0.9302,0.3027,-0.4788,86,1.361,26,10.9031,-1.0269,-4.2694,0.6458,-0.2229,-0.5752,75
1.735,33,4.2284,-2.6907,-11.0629,0.0739,0.1486,-0.4379,76,1.174,22,-2.1828,2.8093,-13.8585,-0.1061,-0.1323,-0.0149,86,1.413,27,13.2233,0.9146,-4.6509,0.2257,-0.0447,-0.4343,75
1.787,34,3.9638,-2.4222,-10.7702,-0.4047,0.7909,-0.5434,76,1.225,23,-1.2128,4.1463,-13.5754,0.2,-0.7692,0.3021,86,1.464,28,12.6125,-2.9264,-4.8868,-0.4028,0.6457,0.1859,75
1.838,35,1.8414,-3.5884,-11.1326,-0.7324,1.2597,-0.4503,76,1.277,24,-0.8942,4.3393,-12.6257,-0.2027,-1.2341,0.4571,86,1.516,29,11.1152,-2.161,-4.2918,-0.8246,0.9677,0.7403,75
1.89,36,0.0369,-4.1066,-10.2157,-0.3768,1.4623,-0.2656,76,1.329,25,-0.6138,3.8179,-10.8742,-0.8279,-1.5733,0.3422,86,1.568,30,8.8279,-1.5251,-7.2121,-1.2769,1.3846,1.2072,75
1.942,37,-0.5288,-6.4571,-8.9552,-0.1385,1.4497,0.2634,76,1.381,26,-0.5163,7.3966,-12.1439,-0.9232,-1.6943,-0.0807,86,1.62,31,6.2084,-0.6241,-10.9526,-0.2574,1.616,1.2324,75
1.994,38,2.9428,-9.9104,-11.965,-0.7785,0.4093,0.6993,76,1.433,27,4.5431,10.7252,-15.3845,-1.0925,-1.5716,-0.0082,86,1.672,32,4.8526,1.9797,-15.4593,0.4887,1.202,1.2864,75
2.046,39,4.2531,-6.912,-9.6994,0.1062,0.0454,0.3088,76,1.484,28,6.1702,13.1546,-16.4744,-0.4308,-1.147,-0.2439,86,1.723,33,8.8074,-3.7922,-8.6988,0.7966,1.3729,0.4157,75
2.097,40,-0.34,-4.3167,-11.7815,-0.5999,-0.1797,0.1347,76,1.536,29,3.4104,6.321,-16.4119,-0.9945,-0.158,-0.147,86,1.775,34,9.853,-3.295,-12.2223,0.7067,1.3371,0.8222,75
2.149,41,-1.4657,-1.3814,-10.1497,-1.0817,-0.8005,-0.3561,76,1.588,30,3.8046,1.9981,-15.1183,-0.0541,0.5262,0.0962,86,1.827,35,10.7067,-2.0429,-16.9253,-0.1594,1.0852,0.3872,75
2.201,42,0.0692,-5.0899,-11.1287,-0.9019,-1.2536,-0.5738,76,1.64,31,1.4223,2.8487,-15.7066,0.6323,1.0631,0.0069,86,1.879,36,10.5511,-5.7951,-17.5447,0.5602,0.2255,0.3778,75
2.253,43,1.2793,-2.2369,-10.6937,-0.3604,-1.5464,-0.7662,76,1.692,32,-1.3217,4.0042,-14.8138,1.0948,1.455,-0.2252,86,1.93,37,9.256,-1.2447,-16.4882,0.503,-0.5088,-0.3475,75
2.305,44,1.1824,-2.132,-10.7369,-0.108,-1.3436,-0.7851,76,1.743,33,-2.9424,2.9507,-12.4065,0.582,1.741,-0.2769,86,1.982,38,6.7691,0.9988,-13.3122,-0.2795,-1.0033,-0.4423,75
2.356,45,2.7833,-5.2424,-13.7179,-0.0633,-1.0697,-0.4231,76,1.795,34,-4.0496,4.994,-12.8998,0.4224,1.3674,-0.4626,86,2.034,39,5.8002,-0.4278,-11.6061,-0.8792,-1.0079,-0.607,75
2.408,46,5.6825,-9.0238,-16.5052,-0.3389,-0.2015,0.2255,76,1.847,35,1.9643,8.9717,-17.3547,0.9133,0.3254,-0.043,86,2.086,40,4.5211,-5.5493,-13.2728,0.0349,-1.247,-0.6898,75
2.46,47,3.8473,-11.7837,-16.0093,0.427,0.5353,0.1729,76,1.899,36,1.9033,11.8748,-18.3723,-0.0135,0.3292,0.1957,86,2.138,41,8.5654,-2.7617,-7.103,-0.4798,-0.4499,-0.6281,75
2.512,48,2.6161,-6.1503,-14.8941,0.3784,0.667,0.3093,76,1.951,37,0.3401,6.7938,-16.5695,0.1148,-0.2288,0.3659,86,2.189,42,6.7179,-4.4258,-6.6197,-0.0242,-0.9353,-0.0697,75
2.564,49,1.0508,-1.9467,-12.6866,-0.3397,0.794,0.1989,76,2.003,38,-0.6609,4.0738,-14.9872,0.0584,-0.3328,0.3593,86,2.241,43,10.1688,-3.2748,-9.8074,-0.1666,-0.3511,-0.3025,75
2.615,50,1.0372,-3.4772,-12.2136,-0.7205,0.9433,-0.2755,76,2.054,39,-0.4542,0.8011,-14.7023,0.2864,-0.2363,0.3745,86,2.293,44,8.6098,-7.6272,-15.1627,-0.7968,0.0955,0.4569,75
2.667,51,0.8723,-2.8926,-11.5401,-0.4623,0.7434,-0.4448,76,2.106,40,-0.2806,2.0397,-13.7753,0.8807,-0.3255,0.3822,86,2.345,45,10.8622,-10.8037,-14.1797,-1.2568,-0.6007,1.0112,75
2.719,52,1.0682,-3.6689,-11.4732,-0.3885,0.5385,-0.347,76,2.158,41,0.0055,3.6826,-12.4257,0.8734,-0.2303,0.3189,86,2.396,46,10.6672,-9.3163,-12.5891,-0.6309,-1.1066,1.4158,75
2.771,53,2.3647,-5.5733,-11.0188,0.0995,0.2378,0.017,76,2.21,42,-0.2999,5.2418,-12.7739,0.1587,-0.3416,0.1029,86,2.448,47,8.4469,-4.3958,-10.269,0.2161,-0.7903,1.711,75
2.822,54,4.8582,-9.2654,-16.0385,-0.5359,0.0133,0.2761,76,2.262,43,1.6626,9.1526,-17.2628,-0.3494,-0.328,0.1245,86,2.5,48,5.5271,2.1437,-9.8876,0.8342,0.1015,1.3685,75
2.874,55,6.3515,-11.96,-15.0958,-0.105,0.1576,0.1673,76,2.314,44,4.6045,12.0068,-16.2576,-0.6614,-0.5788,0.0993,86,2.552,49,4.298,-3.6725,-15.2213,-0.0664,-0.2976,1.1986,75
2.926,56,1.2304,-7.9006,-13.8641,0.0586,0.5742,0.0294,76,2.365,45,1.3956,7.2793,-16.8778,-1.0049,0.2566,0.0607,86,2.604,50,8.4026,-4.2641,-9.0182,0.1061,-0.4833,1.3845,75
2.978,57,2.5951,-4.4992,-12.3502,-0.0474,0.2852,-0.1814,76,2.417,46,-0.2192,4.9855,-14.7646,-0.0617,0.0118,0.2502,86,2.656,51,11.1878,-2.2099,-12.8963,0.0379,-0.2871,1.3529,75
3.03,58,1.849,-4.2153,-11.6875,-0.3657,0.3789,-0.1381,76,2.469,47,-0.322,4.8059,-13.2709,0.0932,-0.2982,0.3101,86,2.707,52,10.863,-5.8653,-15.2757,0.5639,-0.5786,0.7252,75
3.081,59,0.6399,-4.0373,-10.9192,-0.1156,0.5326,-0.0933,76,2.521,48,-0.7657,3.5808,-11.8853,-0.0166,-0.4576,0.1905,86,2.759,53,8.2921,1.0712,-15.8392,-0.2637,-1.0957,-0.1447,75
3.133,60,-0.1632,-4.4007,-10.4272,0.1232,0.614,0.0976,76,2.572,49,-0.9595,4.3228,-11.3313,0.0097,-0.5102,0.0021,86,2.811,54,7.9911,-0.15,-17.7421,-0.8677,-1.1752,-0.7796,75
3.185,61,0.5974,-7.7236,-9.9195,0.7616,0.1772,0.5251,76,2.624,50,-0.01,7.0597,-12.5003,-0.6729,-0.584,-0.3679,86,2.863,55,5.7462,-2.2577,-16.9063,0.0433,-0.718,-1.243,75
3.237,62,3.6236,-10.8348,-11.6011,0.5381,-0.54,0.5714,76,2.676,51,1.8617,10.4793,-17.0631,-0.9824,-0.067,-0.5386,86,2.915,56,4.9287,-1.1878,-12.5102,0.7081,-0.8533,-1.5812,75
3.289,63,4.9447,-12.731,-11.0572,1.0671,-0.7273,0.2646,76,2.728,52,1.9122,12.9751,-17.0864,-0.7783,0.544,-0.7302,86,2.966,57,8.8629,-6.1039,-6.5464,0.5446,0.0374,-0.4989,75
3.34,64,0.6521,-5.24,-12.8316,0.6896,-0.6094,0.1589,76,2.78,53,-0.3637,6.8096,-14.5994,-0.6438,1.0761,-0.7106,86,3.018,58,11.7343,-5.6037,-8.1881,-0.2777,-0.3122,-0.8502,75
3.392,65,1.9741,-0.8033,-13.0271,0.0755,-0.5687,-0.0974,76,2.831,54,-2.1766,4.0511,-15.2493,0.1796,0.8736,-0.1235,86,3.07,59,13.83,-1.8405,-11.766,-0.4632,0.0055,-0.6121,75
3.444,66,2.4915,-4.4948,-12.1038,-0.5669,-0.3922,-0.1037,76,2.883,55,-2.3156,3.1235,-13.9363,0.241,0.3027,0.4703,86,3.122,60,14.7878,-5.7652,-9.3307,-0.4845,0.3016,0.216,75
3.496,67,1.8256,-5.1131,-11.8242,-0.8422,0.1331,-0.2658,76,2.935,56,-1.1598,3.6869,-12.517,0.8476,-0.2852,0.6769,86,3.174,61,16.0586,-5.85,-6.681,-0.1682,0.766,0.7652,75
3.547,68,1.1467,-5.3351,-10.7069,-0.6132,0.5307,-0.1329,76,2.987,57,-1.5426,5.4132,-11.1692,0.3587,-0.4051,0.621,86,3.225,62,12.7198,-4.1081,-4.7532,-0.5317,1.2374,1.2048,75
3.599,69,0.8562,-5.6898,-10.6213,-0.1884,0.9648,0.2318,76,3.039,58,-2.1934,6.1067,-11.8619,-0.4182,-0.7418,0.2624,86,3.277,63,10.1184,-3.7403,-7.4916,-0.4354,1.5815,1.445,75
3.651,70,2.1882,-9.3504,-12.8205,-0.8149,0.0809,0.6787,76,3.091,59,1.1607,9.7838,-16.1465,-0.6681,-1.038,0.1805,86,3.329,64,10.1043,1.6881,-13.4726,-0.993,1.8287,1.57,75
3.703,71,4.0094,-8.4888,-12.7069,0.0797,-0.0636,0.2296,76,3.142,60,1.6552,12.4675,-17.9252,-0.1234,-0.2092,-0.0101,86,3.38,65,12.6403,6.584,-17.8378,-0.6686,0.7406,0.5141,75
3.755,72,1.2787,-5.3901,-12.4642,-0.0414,0.0572,0.0692,76,3.194,61,0.1297,7.8933,-15.2808,-0.5509,0.0788,0.0503,86,3.432,66,14.4912,2.3713,-21.0237,-1.1632,-0.1328,0.9927,75
3.807,73,-0.3448,-3.3662,-11.3723,-0.0258,-0.3165,-0.0059,76,3.246,62,0.8494,3.8039,-13.603,-0.4297,0.4493,0.0709,86,3.484,67,15.7787,5.0048,-22.0033,-1.5242,0.3461,0.757,75
3.858,74,-0.6872,-2.9997,-11.0804,0.02,-0.8168,0.0642,76,3.298,63,0.7523,3.2716,-13.1152,0.2937,0.8088,0.0219,86,3.536,68,15.9648,3.8929,-17.8012,-0.5571,0.7532,0.1364,75
3.91,75,0.0415,-2.9434,-10.7386,0.0039,-1.2315,0.1153,76,3.35,64,-0.0763,3.1587,-12.194,0.5436,1.0087,0.0083,86,3.588,69,15.3729,8.0716,-18.6162,-1.0818,-0.1237,-0.5687,75
3.962,76,0.8289,-3.7634,-10.4005,0.1834,-1.3533,0.2219,76,3.401,65,-0.7684,4.2407,-12.0307,0.4779,0.9757,-0.133,86,3.64,70,10.8719,0.654,-21.5918,-1.046,0.1494,-0.3191,75
4.014,77,2.4805,-7.5941,-10.8985,0.6013,-1.1781,0.2956,76,3.453,66,-1.6056,6.8612,-13.6501,-0.3165,0.697,-0.3558,86,3.692,71,8.378,1.7487,-16.4741,-0.2285,-0.5644,-0.5577,75
4.065,78,6.868,-10.7402,-9.8453,0.3511,-0.1774,0.3536,76,3.505,67,0.8218,10.3345,-17.9023,0.4408,-0.164,-0.3196,86,3.743,72,8.6796,1.2308,-11.4848,0.5098,-1.0853,-1.0651,75
4.117,79,2.1335,-10.3532,-10.9822,0.9306,0.5529,-0.0082,76,3.557,68,1.9706,7.845,-12.1444,-0.3583,0.2519,-0.0655,86,3.795,73,11.6005,6.2502,-7.6309,0.0279,-1.463,-1.4514,75
4.169,80,0.769,-4.7326,-10.7055,0.348,0.0455,0.4386,76,3.609,69,-0.1431,4.2298,-11.4371,-0.1861,-0.4408,-0.1029,86,3.847,74,10.113,3.2375,-8.139,0.1054,-1.2532,-1.0867,75
4.221,81,0.4107,-2.9695,-10.3775,-0.3137,0.1883,0.2386,76,3.66,70,0.3623,1.6954,-11.3302,-0.4768,-0.5202,0.254,86,3.899,75,12.6467,2.6231,-6.6169,-0.5983,-0.5798,-1.4441,75
4.273,82,0.933,-4.3283,-9.3301,-0.7485,-0.08,0.2286,76,3.712,71,0.1185,1.1542,-11.7056,0.1215,-0.2194,0.3525,86,3.951,76,10.805,-3.3226,-12.8342,-1.1119,0.0336,-0.3762,75
4.324,83,1.0656,-3.5545,-9.294,-0.6221,-0.0426,0.1069,76,3.764,72,0.31,2.1961,-10.9934,0.5435,0.0435,0.3218,86,4.002,77,13.1517,-4.3569,-12.9299,-1.2706,-0.6489,0.4032,75
4.376,84,1.1044,-3.817,-9.0778,-0.3537,0.1005,0.2588,76,3.816,73,-0.8473,2.8503,-10.7566,0.4042,0.1658,0.1174,86,4.054,78,12.0614,-0.1185,-10.6163,-0.2508,-0.8127,0.972,75
4.428,85,2.1691,-7.4685,-8.5499,0.1039,0.1717,0.5573,76,3.868,74,-0.6786,4.461,-11.9568,0.0582,-0.0567,-0.149,86,4.106,79,8.9424,2.409,-9.0682,0.0393,0.0852,1.3255,75
4.48,86,4.7748,-10.6486,-11.488,-0.453,0.5153,0.3097,76,3.919,75,0.1979,8.5827,-16.6664,0.3546,-0.3434,-0.0064,86,4.158,80,6.9563,6.907,-9.316,-0.406,0.7098,1.2605,75
4.532,87,4.4056,-12.9507,-10.4095,-0.4344,0.3329,0.0478,76,3.971,76,2.6933,11.5909,-16.1944,-0.1087,-0.4797,0.0534,86,4.21,81,10.3428,10.3929,-11.1076,0.2002,0.8592,0.4295,75
4.583,88,1.3569,-8.6796,-10.4417,-0.3058,0.2723,-0.1085,76,4.023,77,0.1481,6.914,-15.1118,-0.1939,0.1924,0.0499,86,4.261,82,11.3402,6.1059,-13.7994,-0.5291,0.1582,0.8825,75
4.635,89,1.5142,-5.1526,-9.6216,-0.2182,0.1231,-0.2815,76,4.075,78,-1.4814,3.6082,-11.9769,0.1578,-0.0497,0.1354,86,4.313,83,13.5423,6.1032,-11.8746,0.1708,-0.5579,0.4028,75
4.687,90,0.9744,-3.8172,-9.415,-0.4293,0.2816,-0.2684,76,4.127,79,-1.893,3.9587,-11.6628,0.1944,-0.1682,0.2821,86,4.365,84,11.964,-0.3827,-12.0735,0.6891,-0.6163,0.7862,75
4.738,91,0.5123,-5.1038,-8.8914,-0.3193,0.4094,-0.0334,76,4.179,80,-1.2299,3.8009,-11.5548,0.0099,-0.3374,0.2307,86,4.417,85,9.7082,5.0726,-12.1308,-0.1723,-0.8808,-0.1002,75
4.79,92,-0.3313,-5.3366,-8.962,0.2661,0.4457,0.0924,76,4.23,81,-0.9985,3.5852,-10.2548,-0.1296,-0.3718,-0.0128,86,4.469,86,6.5129,7.0883,-12.0597,-0.1019,-0.4164,-0.7472,75
4.842,93,-0.91,-8.9793,-9.3338,0.8002,0.2657,0.6563,76,4.282,82,-0.4381,6.3449,-11.187,-0.5282,-0.372,-0.4569,86,4.52,87,5.3007,6.8711,-11.2797,0.2844,-0.3138,-1.2193,75
4.894,94,0.9808,-11.7512,-10.2479,0.7829,-0.2714,1.11,76,4.334,83,3.9913,9.9576,-13.6808,-0.3884,-0.3459,-0.7002,86,4.572,88,6.0136,1.4878,-10.5941,0.8505,-0.0615,-1.5639,75
4.946,95,0.8245,-13.7743,-9.6934,1.0248,-0.8647,1.4868,76,4.386,84,4.3306,12.5944,-12.541,-0.9635,0.0967,-0.8051,86,4.624,89,2.0454,6.4378,-5.148,1.2972,-0.2005,-1.7817,75
4.997,96,2.5261,-5.5943,-9.536,0.8075,-1.0311,0.8568,76,4.438,85,-2.2495,5.7683,-15.3633,-1.3001,0.7496,-0.637,86,4.676,90,0.8978,0.2726,-9.6007,0.438,-0.7516,-0.7154,75
5.049,97,2.7464,-2.9889,-10.2973,0.0194,-0.8266,0.2528,76,4.49,86,-2.2687,1.3798,-15.0423,-0.2851,0.3498,0.07,86,4.728,91,5.921,0.3647,-9.9363,0.1779,-0.6321,-1.1587,75
5.101,98,2.7777,-3.0529,-11.0134,-0.6518,-0.4385,-0.2423,76,4.541,87,-2.2763,1.3117,-13.9479,0.4065,0.1467,0.5119,86,4.779,92,9.5872,4.2864,-12.6467,-0.4283,-1.1011,-1.0024,75
5.153,99,2.0941,-3.2473,-10.3068,-0.9237,-0.0238,-0.5072,76,4.593,88,-1.8168,2.4933,-12.9363,0.9684,0.0739,0.4422,86,4.831,93,6.437,-2.1086,-7.3707,0.3639,-0.9206,-0.1917,75
5.205,100,1.3805,-4.6631,-9.6977,-0.8466,0.2991,-0.5366,76,4.645,89,-2.4333,3.2161,-12.3792,1.1542,-0.1113,0.3758,86,4.883,94,5.7311,-2.2846,-6.9851,-0.4096,0.0065,0.4835,75
5.256,101,1.6309,-6.2379,-9.7668,-0.4222,0.6174,-0.368,76,4.697,90,-2.1258,5.829,-11.9041,0.5996,-0.7374,0.2431,86,4.935,95,4.8946,-3.1354,-9.857,-0.1405,0.6831,1.0012,75
5.308,102,0.03,-8.4611,-11.1826,-0.9163,0.8339,-0.3547,76,4.749,91,-0.3727,9.5811,-14.6329,-0.1044,-1.0084,0.0821,86,4.986,96,4.7955,-2.9053,-15.199,-0.2441,1.1769,1.406,75
5.36,103,2.9823,-11.373,-11.9113,-0.731,0.4485,-0.4379,76,4.8,92,2.1451,12.3196,-17.2008,0.336,-0.5771,0.3222,86,5.038,97,8.6167,-7.3575,-16.3378,0.4984,0.3023,0.9797,75
5.412,104,1.1398,-7.9217,-11.7282,-0.1745,-0.0643,-0.4971,76,4.852,93,1.6133,11.5441,-15.0262,0.3413,-0.2584,0.5128,86,5.09,98,11.5546,-3.2371,-9.34,0.7497,0.4472,0.3928,75
5.464,105,-0.2765,-4.482,-10.2508,-0.1056,-0.6901,-0.4488,76,4.904,94,0.003,6.43,-12.7661,0.5021,0.1593,0.3037,86,5.142,99,12.978,-0.2275,-12.2676,0.3433,0.5951,0.1836,75
5.515,106,-0.3256,-1.8568,-10.0621,0.0251,-0.7795,-0.5535,76,4.956,95,-0.8414,4.8122,-12.1022,0.6013,0.4976,0.2848,86,5.193,100,12.7496,-2.5357,-11.2074,0.4233,1.1127,0.1492,75
5.567,107,0.3397,-2.6145,-10.6446,-0.4505,-0.6706,-0.3902,76,5.008,96,-1.2829,4.3526,-12.1777,0.6196,0.6176,0.246,86,5.245,101,11.1615,-0.2583,-12.581,0.2219,0.1387,-0.5651,75
5.619,108,0.9198,-4.2006,-10.3858,-0.1758,-0.4601,-0.1206,76,5.059,97,-1.2988,5.0788,-11.1612,0.6205,0.5027,0.0246,86,5.297,102,9.7287,1.8931,-12.6148,-0.5133,-0.5722,-0.6419,75
5.671,109,2.1703,-6.2622,-10.3181,0.5461,-0.2238,0.0938,76,5.111,98,-2.6201,7.2606,-11.8889,-0.0573,0.2599,-0.3641,86,5.349,103,7.8826,1.0535,-12.9538,0.0718,-1.091,-0.8741,75
5.722,110,5.9189,-9.7681,-12.2829,-0.2788,0.3867,0.6871,76,5.163,99,-4.6132,10.6259,-16.6169,-0.6561,0.271,-0.0539,86,5.401,104,6.1027,0.6986,-11.681,0.7289,-1.4697,-1.116,75
5.774,111,3.8732,-12.3269,-13.2936,0.4709,0.735,0.3319,76,5.215,100,-0.1555,13.0821,-15.601,-1.1539,-0.0387,-0.1558,86,5.452,105,9.7198,-0.3493,-5.9412,1.1829,-0.3943,-1.3272,75
5.826,112,0.3446,-5.146,-13.6063,1.0181,0.1769,0.4397,76,5.267,101,-0.9878,6.4275,-13.7123,-1.1265,0.4582,-0.2695,86,5.504,106,9.8146,-0.1965,-8.2238,1.4074,-0.8738,-0.4054,75
5.878,113,-1.1019,-1.1796,-12.6749,0.3568,0.2808,0.285,76,5.318,102,-0.8111,3.942,-13.0269,-0.8272,0.1285,0.2129,86,5.556,107,12.4289,0.7256,-9.8686,0.5073,0.0406,-0.4511,75
5.93,114,-1.1744,-1.8699,-12.8508,-0.2814,-0.1303,0.1943,76,5.37,103,-0.8368,1.2623,-12.5696,-0.6387,0.4816,0.5289,86,5.608,108,14.3369,-4.7075,-12.6571,-0.1731,0.088,0.1943,75
5.981,115,0.055,-2.1499,-11.8115,-0.2857,-0.2961,0.0652,76,5.422,104,-0.371,2.1577,-12.1406,0.2056,0.8798,0.5286,86,5.66,109,14.5198,-8.0939,-12.9868,-0.5132,-0.6082,0.8196,75
6.033,116,0.6042,-3.3093,-11.4117,-0.5752,-0.4269,0.2417,76,5.474,105,-0.6788,3.6615,-11.7214,0.414,1.1984,0.3243,86,5.711,110,13.9539,-7.3984,-10.8629,-0.0745,-0.581,1.2759,75
6.085,117,2.3476,-7.613,-11.662,-0.4941,-0.5807,0.7933,76,5.526,106,-0.237,6.1071,-13.4989,0.3166,0.8105,0.032,86,5.763,111,9.7663,-1.7797,-8.5388,0.6221,0.2543,1.6089,75
6.137,118,2.9424,-10.754,-14.3922,-0.3296,-0.1984,0.4859,76,5.578,107,3.6178,9.7841,-17.7909,0.6316,-0.0793,0.1746,86,5.815,112,7.7811,-0.7874,-7.913,0.9194,0.864,1.5727,75
6.189,119,2.5859,-12.7281,-12.6312,-0.1998,-0.0473,0.3618,76,5.629,108,3.4606,11.6021,-17.7275,-0.1234,-0.2088,0.2798,86,5.867,113,10.9447,-3.4866,-13.7801,1.2071,0.4,1.5568,75
6.24,120,1.1313,-8.817,-12.0896,-0.1947,0.0911,0.2528,76,5.681,109,1.8738,8.2988,-16.0751,-0.2944,-0.0938,0.4014,86,5.919,114,10.106,-3.285,-16.4916,0.2058,-0.3342,1.7596,75
6.292,121,1.2954,-4.5832,-11.3428,-0.2862,0.3568,-0.0331,76,5.733,110,-0.7034,4.4962,-13.0185,0.0471,-0.1486,0.3885,86,5.971,115,12.6416,-2.2113,-13.5732,0.8241,-0.8587,0.6791,75
6.344,122,0.8744,-2.4076,-10.9273,-0.8698,0.6318,-0.2422,76,5.785,111,-1.8193,3.8406,-12.7206,-0.0265,-0.4188,0.7566,86,6.023,116,13.0682,-4.0383,-15.3227,1.2767,-0.3793,0.432,75
6.396,123,0.4853,-4.5482,-10.2057,-1.1931,0.8108,-0.0677,76,5.837,112,-1.2898,3.5084,-12.4268,-0.0776,-0.8789,0.9056,86,6.074,117,9.6346,2.4046,-12.6921,0.3756,-0.6802,-0.3414,75
6.447,124,-0.2026,-5.125,-9.9467,-0.486,0.918,0.056,76,5.888,113,-0.6243,3.588,-11.5174,-0.1497,-1.0756,0.634,86,6.126,118,9.2017,2.9624,-12.6534,-0.4011,-0.2214,-0.9232,75
6.499,125,-1.0881,-8.3979,-10.8446,0.3197,0.6472,0.4691,76,5.94,114,1.1718,5.816,-11.6327,-0.5412,-1.0981,-0.0753,86,6.178,119,8.7356,1.2048,-14.9579,-0.0928,0.0072,-1.3478,75
6.551,126,-1.6808,-11.3269,-9.6287,0.9077,-0.0425,0.7015,76,5.992,115,3.5913,9.5716,-14.1307,-1.05,-0.4781,-0.6517,86,6.229,120,6.5418,-4.3577,-15.3516,0.6088,-0.1527,-1.4938,75
6.603,127,-1.253,-13.4646,-8.193,1.2508,-0.6895,1.1752,76,6.044,116,4.3549,12.3126,-13.6708,-0.5208,0.116,-1.162,86,6.281,121,10.0403,-8.4175,-8.6202,0.8183,0.229,-0.7421,75
6.655,128,0.195,-4.4701,-12.3849,1.5873,-1.1726,1.0584,76,6.096,117,0.6243,5.3975,-13.9557,-1.0601,0.7637,-1.2777,86,6.333,122,12.5936,-9.2675,-3.7073,0.9397,0.503,-0.2584,75
6.707,129,2.1442,-0.5307,-13.5962,0.5818,-0.9475,0.4319,76,6.147,118,-1.0303,0.465,-14.354,-0.5002,0.1882,-0.5134,86,6.385,123,12.4192,-5.4927,-5.5059,0.7095,0.9878,-0.6937,75
6.758,130,3.0988,-1.012,-13.984,-0.2528,-0.2637,-0.2174,76,6.199,119,-1.8221,-0.4848,-13.584,0.1076,-0.33,0.1974,86,6.437,124,12.2973,-2.732,-1.4344,-0.0124,0.0487,-0.427,75
6.81,131,2.4038,-1.3477,-13.5208,-0.8461,0.4899,-0.7836,76,6.251,120,-1.9713,-0.2102,-13.1748,0.7503,-0.8634,0.5213,86,6.488,125,9.8018,-6.4742,-6.4432,-0.6843,0.5815,0.3546,75
6.862,132,1.7412,-3.2473,-12.7917,-1.2706,1.04,-0.9863,76,6.303,121,-1.4616,1.5847,-13.4134,0.9909,-1.3028,0.7399,86,6.54,126,11.5856,-6.7384,-6.5193,-0.5779,0.4433,0.9365,75
6.914,133,1.6552,-6.4254,-12.4514,-1.2616,1.4414,-0.7332,76,6.355,122,-0.7143,4.1956,-13.5587,1.0579,-1.6235,0.6358,86,6.592,127,9.26,-3.6616,-6.9974,-0.8984,1.0019,1.3613,75
6.965,134,0.0162,-9.0005,-12.314,-0.7277,1.7345,-0.4393,76,6.407,123,0.7958,8.389,-14.9146,0.0921,-1.7434,0.1323,86,6.644,128,6.665,0.3412,-10.0437,-0.5274,1.4096,1.6458,75
7.017,135,5.0694,-11.7667,-11.6701,-1.2085,0.9145,0.351,76,6.458,124,2.6394,11.4495,-16.8371,0.7389,-1.1342,0.3644,86,6.696,129,7.2768,5.6009,-15.3352,0.2561,0.5067,1.8789,75
7.069,136,4.5468,-10.1695,-11.356,-0.2093,0.3621,0.0263,76,6.51,125,1.8614,13.254,-17.0538,0.1329,-0.613,0.3679,86,6.747,130,10.5767,9.4397,-8.6083,0.0394,0.0343,0.9397,75
7.121,137,0.8115,-5.6671,-11.3158,-0.0622,0.2416,0.0645,76,6.562,126,0.419,8.2627,-15.3505,-0.5683,-0.157,0.217,86,6.799,131,12.9851,8.479,-10.5051,-0.1249,-0.1225,0.7709,75
7.173,138,-0.5907,-3.6598,-10.0042,0.1659,-0.4434,0.0072,76,6.614,127,0.6253,3.4068,-13.2493,-0.3141,0.4114,0.0123,86,6.851,132,12.7424,6.9488,-13.5158,0.1288,0.2738,0.4469,75
7.224,139,-1.6763,-2.1847,-10.3468,0.4133,-0.9929,-0.0341,76,6.666,128,-0.0042,1.4727,-12.4379,0.4224,0.9793,-0.0142,86,6.903,133,9.2625,0.2938,-14.0167,0.7705,-0.3027,0.0957,75
7.276,140,-1.1532,-1.5207,-8.9431,0.2736,-1.394,0.0261,76,6.717,129,-0.7526,1.9937,-11.983,0.9616,1.3938,-0.1,86,6.955,134,10.3284,4.177,-11.5065,-0.0423,-0.8943,-0.427,75
7.328,141,-0.0523,-3.3123,-10.2463,0.6717,-1.5816,0.0035,76,6.769,130,-1.3033,2.7952,-11.6328,0.8733,1.5802,-0.3229,86,7.007,135,6.8633,5.0436,-11.3112,0.4391,-1.2545,-0.7301,75
7.38,142,3.0198,-7.6152,-9.8025,1.1631,-1.5692,0.5563,76,6.821,131,-2.151,7.094,-14.3769,-0.01,1.2035,-0.8853,86,7.059,136,6.1143,3.8103,-10.4186,0.1512,-1.4363,-1.0504,75
7.432,143,4.7607,-10.7556,-10.6849,0.2177,-0.4628,0.8966,76,6.873,132,-3.231,10.5043,-18.4327,0.0424,0.379,-0.9992,86,7.11,137,4.9769,-0.5443,-14.9495,0.7869,-1.7217,-1.3839,75
7.483,144,2.4631,-12.5946,-9.406,0.8043,0.0101,0.7481,76,6.925,133,-2.6568,12.9934,-17.0245,-0.5611,0.2239,-0.7019,86,7.162,138,8.8981,-2.252,-8.471,0.0478,-1.5921,-0.7563,75
7.535,145,-1.0999,-4.0457,-10.9931,1.2614,0.1173,0.5404,76,6.976,134,-2.9802,5.5075,-14.8646,-0.6391,-0.483,-0.5361,86,7.214,139,6.6893,-4.0208,-13.4708,-0.5164,-1.8016,-0.5486,75
7.587,146,-1.4758,0.2883,-10.8137,0.491,0.1423,-0.0531,76,7.028,135,-1.9732,2.2781,-12.9109,-0.5987,-0.4339,-0.2129,86,7.265,140,10.1479,-3.473,-11.6081,-0.4716,-0.6796,-0.9275,75
7.639,147,-1.301,0.8254,-11.0226,-0.319,0.0008,-0.3581,76,7.08,136,-1.0043,0.893,-13.4606,-0.3627,0.2752,0.1476,86,7.317,141,8.2832,-7.7718,-16.477,-1.0194,0.0433,0.0008,75
7.69,148,-0.7489,-2.1312,-11.2333,-0.7296,-0.1935,-0.3179,76,7.132,137,-1.0864,0.9052,-13.2832,0.407,0.7215,0.3055,86,7.369,142,11.3112,-9.8546,-16.1971,-0.278,-0.6418,0.6087,75
7.742,149,-0.1728,-2.338,-10.6973,-0.6715,-0.3144,-0.3514,76,7.184,138,-0.5933,3.369,-11.0557,0.8621,0.8055,0.4605,86,7.421,143,10.9132,-6.0288,-13.6328,0.0986,-0.5081,1.122,75
7.794,150,-0.1866,-5.4139,-10.0129,-0.5544,-0.4053,0.0895,76,7.235,139,-1.3123,5.1999,-11.8575,0.2701,0.6835,0.3317,86,7.473,144,7.853,-2.1129,-11.2361,0.5681,0.2488,1.4966,75
7.846,151,4.9214,-9.149,-12.242,-0.4352,-0.7101,0.0174,76,7.287,140,0.8392,9.122,-16.594,0.39,0.3008,0.5464,86,7.524,145,8.3059,-2.2321,-9.9443,0.8471,0.8417,1.4338,75
7.898,152,3.8876,-11.8751,-12.5971,-0.5728,-0.5229,0.0646,76,7.339,141,1.2943,11.9845,-18.1914,-0.394,-0.0071,0.2614,86,7.576,146,11.3278,2.1802,-15.2627,0.8649,1.2925,1.657,75
7.949,153,2.2298,-8.9442,-11.8467,0.2339,-0.351,0.1508,76,7.391,142,1.3337,8.3186,-16.387,-0.8285,0.4845,-0.0224,86,7.628,147,10.9066,0.5615,-17.502,-0.044,0.6454,1.8771,75
8.001,154,1.5638,-3.2143,-11.6135,0.7539,0.099,0.1024,76,7.443,143,-2.053,4.0758,-13.9544,-0.2358,-0.0485,-0.0845,86,7.68,148,10.4346,-0.93,-12.1648,0.6444,-0.1026,0.7514,75
8.053,155,0.5683,-0.4278,-11.063,0.0936,0.6419,-0.0205,76,7.494,144,-2.7832,2.5724,-11.8337,-0.4087,-0.4918,0.2456,86,7.732,149,9.5619,-1.8575,-15.26,1.1469,0.5307,0.3002,75
8.105,156,-0.0823,-1.6774,-10.834,-0.6091,0.9472,0.061,76,7.546,145,-2.6673,2.0413,-11.7122,-0.5251,-0.8936,0.5011,86,7.783,150,7.8096,0.8062,-13.5884,0.8097,-0.286,0.1653,75
8.157,157,-0.417,-2.859,-10.0144,-0.1956,1.1328,0.1277,76,7.598,146,-1.7426,1.9386,-11.4859,-0.4638,-1.1087,0.3497,86,7.835,151,5.8074,0.7583,-12.0656,-0.0842,0.4286,-0.4226,75
8.208,158,-1.1712,-4.2254,-10.0385,0.2974,1.0321,0.3797,76,7.65,147,-1.0675,3.4379,-12.3417,-0.4454,-1.1629,-0.1422,86,7.887,152,4.6402,1.6281,-12.2142,-0.7367,0.4533,-0.9825,75
8.26,159,-3.9036,-8.2816,-10.351,0.8382,0.2955,0.7838,76,7.702,148,3.0371,7.836,-13.7376,-0.9563,-1.1164,-0.7901,86,7.939,153,4.935,-4.0488,-13.1545,-0.4892,0.6824,-0.7314,75
8.312,160,-7.0919,-11.242,-11.4218,0.662,-0.4447,1.0522,76,7.754,149,0.4192,11.0459,-12.1098,-0.0262,-0.1357,-1.0967,86,7.99,154,2.7872,-5.1937,-13.8327,0.3195,-0.1753,-1.0686,75
8.364,161,-1.6871,-11.9523,-8.366,1.0147,-0.9939,1.4446,76,7.805,150,-2.1167,13.3886,-11.3847,-0.6991,0.5801,-1.2048,86,8.042,155,5.3762,-1.1893,-7.5117,0.0385,0.3344,-0.6655,75
8.416,162,1.4697,-3.3334,-9.0009,1.4067,-1.3392,1.2508,76,7.857,151,-3.675,4.5108,-13.4167,-1.1903,-0.0717,-1.2872,86,8.094,156,6.6157,-3.177,-7.7037,0.4231,-0.4247,-0.0476,75
8.467,163,2.6743,0.9444,-10.926,0.4217,-0.6846,0.3573,76,7.909,152,-3.5613,0.4381,-13.2476,-0.197,-0.3262,-0.517,86,8.146,157,9.6441,-3.9271,-13.6274,0.5541,-0.7406,0.4505,75
8.519,164,3.5733,0.8351,-11.9905,-0.3696,0.1788,-0.4143,76,7.961,153,-1.9479,-0.613,-13.0518,0.528,-0.3426,0.288,86,8.198,158,10.3273,-6.3133,-11.3482,0.4785,-0.2238,0.9469,75
8.571,165,2.9482,-1.5165,-12.6622,-0.9472,0.8129,-0.9775,76,8.013,154,-2.0808,-0.0559,-14.1369,1.0571,-0.4445,0.7321,86,8.25,159,11.5448,-1.47,-7.5916,1.0258,-0.0716,0.6297,75
8.622,166,1.9342,-4.0161,-12.1402,-1.2413,1.2745,-1.2667,76,8.064,155,-1.2101,2.5411,-14.2403,1.4432,-0.917,1.0138,86,8.301,160,10.6581,-2.8924,-6.6378,0.0734,0.6261,0.5886,75
8.674,167,1.4997,-8.1289,-12.122,-0.8921,1.4115,-0.8828,76,8.116,156,-0.789,7.1815,-13.4175,1.3699,-1.3417,0.8716,86,8.353,161,10.3653,-2.9185,-9.5917,-0.6216,1.1353,1.0318,75
8.726,168,-1.3433,-11.1305,-16.8436,-1.3284,1.3526,-0.5623,76,8.168,157,0.0398,10.5682,-17.7325,0.6399,-1.3935,0.8176,86,8.405,162,8.4874,1.7386,-15.0053,-0.9273,1.372,1.4256,75
8.778,169,3.7062,-13.3213,-16.7917,-0.3548,0.8135,-0.3702,76,8.22,158,1.0794,13.04,-18.4179,0.4241,-0.5858,0.5581,86,8.457,163,6.6289,-3.6493,-18.9564,-0.0003,0.3893,0.4264,75
8.83,170,1.1149,-7.9545,-16.2927,0.3895,0.8171,-0.2315,76,8.272,159,-0.534,10.1674,-16.0554,-0.299,-0.3893,0.3531,86,8.509,164,10.1038,-7.8338,-21.8401,-0.0192,0.0674,0.861,75
8.881,171,-0.0877,-4.2187,-14.1103,0.1847,0.0279,-0.0626,76,8.323,160,0.2367,5.5837,-14.6526,-0.6135,0.08,0.1805,86,8.56,165,11.8908,-4.3575,-21.5992,0.0232,0.1829,0.6795,75
8.933,172,-0.9294,-1.9648,-10.9604,-0.1069,-0.3957,-0.1141,76,8.375,161,0.8541,2.0236,-13.8408,-0.1978,0.7375,0.1077,86,8.612,166,10.7646,-2.1606,-22.0436,0.6092,-0.3641,0.2924,75
8.985,173,-1.368,-1.7189,-12.14,-0.1299,-0.8528,-0.3355,76,8.427,162,0.5812,1.5688,-12.7489,0.2411,1.2142,0.2376,86,8.664,167,10.147,-6.6976,-19.2049,1.1211,-0.0602,0.752,75
9.037,174,-0.6881,-1.8249,-12.2104,-0.1488,-1.2917,-0.4196,76,8.479,163,-0.0519,2.8406,-12.5917,0.5396,1.5588,0.2204,86,8.716,168,10.5429,-2.4647,-15.9275,0.2908,-0.7174,-0.1252,75
9.089,175,1.6458,-5.8913,-12.5328,0.2907,-1.4361,-0.0139,76,8.531,164,-1.5046,5.0747,-14.0505,0.1325,1.2965,0.0169,86,8.768,169,7.3135,0.6081,-12.9056,0.8528,-0.8997,-0.7209,75
9.14,176,2.1607,-9.4974,-13.0416,0.613,-0.37,0.1341,76,8.582,165,-4.6126,9.0306,-14.4647,-0.5695,0.773,-0.0078,86,8.819,170,6.2163,-2.8336,-12.0168,1.2232,-1.3291,-0.8813,75
9.192,177,0.513,-12.1294,-12.9033,0.4309,0.4124,0.5609,76,8.634,166,-0.9097,11.9178,-14.81,0.2203,-0.1085,-0.0915,86,8.871,171,6.5105,-2.3161,-13.5615,1.3282,-1.6434,-1.2257,75
9.244,178,-0.0885,-4.4182,-13.581,0.5736,0.5957,0.6422,76,8.686,167,-2.4645,6.9126,-14.5381,-0.5193,-0.1376,0.1248,86,8.923,172,8.666,-0.2507,-7.3138,1.4366,-0.5658,-0.5327,75
9.296,179,-1.4345,-1.5326,-12.8563,0.0002,0.3361,0.2443,76,8.738,168,-1.7257,2.0148,-13.8724,0.2927,-0.3622,0.2876,86,8.975,173,11.1821,0.1624,-10.3802,1.0047,-0.1251,-1.0628,75
9.347,180,0.4381,0.4112,-11.8489,-0.4021,-0.0657,-0.231,76,8.79,169,-1.284,1.91,-13.8293,0.3702,0.0151,0.2374,86,9.026,174,13.4269,-2.2607,-15.5808,0.0581,0.3145,-0.307,75
9.399,181,-0.022,-1.5635,-11.8043,-0.8073,-0.0044,-0.3318,76,8.841,170,-1.3952,1.7384,-13.2211,0.9419,0.6345,0.0804,86,9.078,175,12.5607,-6.887,-19.0771,-0.166,-0.1778,0.4537,75
9.451,182,-0.9789,-2.0471,-11.3909,-0.7886,-0.0759,-0.4415,76,8.893,171,-1.4708,3.2917,-12.1559,1.2935,0.7044,0.041,86,9.13,176,14.4061,-1.9327,-16.3548,0.464,-0.2125,0.9978,75
9.503,183,-0.6442,-6.2954,-10.5319,-0.7887,-0.2879,-0.0966,76,8.945,172,-0.8281,6.3005,-11.4859,0.8218,0.5525,-0.0675,86,9.182,177,9.6933,-0.2864,-13.2953,0.7296,-0.5986,1.406,75
9.555,184,1.6733,-9.7923,-14.7518,-0.2413,-0.428,-0.0539,76,8.997,173,-0.5179,9.9252,-16.3228,0.8217,0.6961,-0.082,86,9.234,178,6.4052,3.7566,-11.4053,1.209,-0.7556,1.7039,75
9.606,185,2.7403,-12.2399,-14.537,-0.3187,-0.7696,-0.2571,76,9.049,174,1.1505,11.6667,-16.3741,-0.0803,0.6649,-0.2086,86,9.286,179,9.9406,8.0936,-5.7401,1.5589,0.1114,1.4978,75
9.658,186,2.3095,-7.9088,-12.4827,0.215,-0.6416,-0.4626,76,9.101,175,-1.2777,8.439,-16.0842,0.2195,1.1519,-0.197,86,9.337,180,11.8472,4.2692,-12.1942,0.5081,-0.0855,1.7709,75
9.71,187,1.1848,-4.3806,-11.2273,-0.1941,-0.3384,-0.3233,76,9.153,176,-2.4797,4.7448,-13.1017,0.1731,0.3448,0.1267,86,9.389,181,13.9124,3.1345,-9.3507,0.2738,-0.6686,0.6185,75
9.762,188,0.4997,-3.4349,-10.9104,-0.5031,0.0597,-0.2565,76,9.204,177,-2.6993,3.3858,-10.9807,0.1292,0.2154,0.4545,86,9.441,182,11.1476,-0.6884,-14.8294,0.3705,-0.4701,0.2481,75
9.814,189,0.1555,-4.1826,-10.092,-0.5716,0.2809,-0.0181,76,9.256,178,-2.5961,3.7102,-11.3632,0.1428,-0.0153,0.4776,86,9.493,183,8.5171,2.3108,-13.0938,-0.0669,-0.8831,-0.3471,75
9.865,190,-0.5222,-4.2127,-10.0442,-0.0516,0.3846,0.2424,76,9.308,179,-2.1033,3.9664,-10.8484,-0.1153,-0.2882,0.3323,86,9.544,184,7.3115,2.6934,-12.1785,-0.7241,-0.7061,-0.8506,75
9.917,191,-1.0839,-6.7458,-11.048,0.5185,0.1326,0.5954,76,9.36,180,-0.4129,6.9658,-11.4088,-0.6337,-0.6504,-0.136,86,9.596,185,7.4963,3.6328,-12.4804,-1.2034,-0.9602,-1.2948,75
9.969,192,-2.197,-10.1211,-16.0598,-0.2768,-0.0424,0.2344,76,9.412,181,1.0808,10.4108,-14.4844,-0.3183,-0.2266,0.0459,86,9.648,186,6.0877,0.4109,-13.5526,-0.8002,-0.6544,-1.619,75
10.021,193,-1.2529,-12.5845,-14.2194,0.2107,-0.7002,-0.02,76,9.463,182,4.8583,12.9251,-10.5804,-0.3199,0.1572,-0.0388,86,9.7,187,-0.8811,5.6518,-7.3072,-0.2454,-0.1868,-0.6009,75
10.072,194,0.4008,-4.1025,-10.2644,0.7314,-0.794,-0.053,76,9.515,183,-2.1242,6.3531,-15.6619,-0.8866,0.7938,-0.4557,86,9.752,188,-0.1334,-0.5959,-8.9696,-0.6654,-0.8097,0.2392,75
10.124,195,2.0045,-1.2479,-11.9925,0.4676,-0.294,-0.2554,76,9.567,184,-3.2593,3.0004,-14.1847,0.0247,0.067,-0.1572,86,9.803,189,5.1684,0.0247,-10.2492,-0.4789,-0.4791,-0.3431,75
10.176,196,2.709,-1.3386,-13.1568,-0.3338,0.4678,-0.193,76,9.619,185,-1.148,3.8729,-11.6553,0.2277,-0.5593,0.2321,86,9.855,190,9.0378,-4.3465,-9.3059,-0.8648,-0.3745,-0.4643,75
10.228,197,1.3238,-2.1307,-12.9856,-0.4812,1.0239,-0.2707,76,9.671,186,-1.4875,2.7863,-12.7321,0.0573,-1.0809,0.6448,86,9.907,191,6.6968,-7.4985,-5.9909,-0.6873,0.405,0.3389,75
10.28,198,0.5525,-3.7034,-12.5958,-0.4642,1.3567,-0.1114,76,9.722,187,-1.0924,4.0736,-13.3601,0.0295,-1.4615,0.6333,86,9.959,192,7.4976,-6.1672,-6.1393,-1.1769,0.974,0.7543,75
10.331,199,0.9258,-7.2426,-14.1924,-0.0824,1.6724,0.4068,76,9.774,188,-0.7657,6.8055,-13.2621,-0.6048,-1.7133,0.0092,86,10.011,193,6.9693,-4.0552,-10.3246,-1.5341,1.3892,1.1323,75
10.383,200,-0.4586,-10.4837,-18.0214,-0.7362,0.8365,0.5451,76,9.826,189,1.3312,10.2938,-16.6872,0.2196,-1.4973,-0.0865,86,10.062,194,6.5523,-0.1172,-15.5402,-0.4431,0.608,1.5041,75
10.435,201,-0.2149,-10.7335,-17.2469,0.1371,0.9168,0.4147,76,9.878,190,2.2742,12.8397,-16.7414,-0.3506,-0.8193,-0.0019,86,10.114,195,10.0479,-5.3226,-8.7579,0.1279,0.7851,1.5497,75
10.487,202,-3.0168,-5.8139,-15.5576,-0.2512,0.6257,0.4143,76,9.93,191,0.834,7.1549,-14.274,-0.9359,-0.3685,0.0396,86,10.166,196,8.8702,-3.3246,-7.7231,0.0754,0.0982,1.7876,75
10.539,203,-3.1403,-3.6599,-12.3655,-0.1954,-0.1036,0.1726,76,9.982,192,1.2159,3.2438,-13.2645,-0.534,0.254,-0.0211,86,10.218,197,11.6889,-1.2652,-10.3814,-0.0179,0.4864,1.229,75
10.59,204,-3.1564,-2.6626,-12.7692,0.0544,-0.741,-0.2482,76,10.033,193,1.0301,1.9671,-12.7653,0.1878,0.849,-0.0227,86,10.27,198,13.1673,-0.867,-10.9678,0.6634,0.325,0.2305,75
10.642,205,-2.1446,-2.2381,-12.5251,0.1569,-1.2102,-0.4217,76,10.085,194,0.3475,2.9362,-12.0794,0.446,1.2951,-0.1771,86,10.321,199,9.9668,2.1257,-10.9435,0.5247,-0.4362,-0.5058,75
10.694,206,-1.2563,-2.6641,-12.1952,0.3891,-1.3931,-0.2929,76,10.137,195,-0.3744,3.8185,-11.7373,0.1651,1.5155,-0.3557,86,10.373,200,7.9624,2.7493,-11.0186,-0.2922,-0.6005,-0.0894,75
10.746,207,-0.6822,-7.1322,-12.8277,0.7767,-1.6856,0.1078,76,10.189,196,-1.3288,5.8229,-11.8244,-0.5595,1.2871,-0.5702,86,10.425,201,5.3361,3.6234,-10.8268,-0.143,-1.1117,0.0727,75
10.797,208,0.2595,-10.4031,-13.5767,-0.1105,-0.5478,0.4528,76,10.241,197,-3.5252,9.5767,-14.0479,0.1254,0.2686,0.0166,86,10.477,202,4.9285,3.5925,-11.0821,0.1553,-1.4848,-0.6068,75
10.849,209,-0.9755,-10.9755,-12.2376,0.5684,0.2161,0.5967,76,10.292,198,-1.5857,12.3154,-12.0775,-0.5885,-0.403,0.2322,86,10.529,203,7.6628,0.5342,-5.5041,0.5763,-1.4191,-1.0034,75
10.901,210,-1.9589,-4.4421,-11.4578,1.0892,-0.0874,0.5797,76,10.344,199,-3.1426,4.3379,-13.8661,-0.7991,-0.1903,-0.2438,86,10.58,204,4.0655,-0.7133,-8.6438,-0.1433,-1.552,-0.4529,75
10.953,211,-2.5555,-1.7406,-10.5691,0.6711,0.2316,0.2865,76,10.396,200,-1.6974,0.9344,-13.5145,-0.3475,-0.3295,-0.1921,86,10.632,205,8.2329,-1.456,-13.584,-0.0912,-1.4682,-0.3602,75
11.005,212,-2.0862,-1.5681,-10.9991,0.3647,0.242,-0.193,76,10.448,201,-1.2135,0.6208,-12.5908,0.3231,0.1251,-0.1102,86,10.684,206,4.0432,-6.2997,-16.0313,-0.7418,-0.3932,0.4148,75
11.056,213,-1.5398,-2.0009,-10.6724,0.0065,0.1683,-0.2791,76,10.5,202,-1.1681,2.2189,-12.2202,0.8854,0.3841,-0.1273,86,10.736,207,6.1849,-7.4608,-14.1443,-1.1575,-0.9604,0.9805,75
11.108,214,-1.2661,-4.0418,-10.3578,0.0152,-0.0353,-0.05,76,10.552,203,-1.2756,4.7912,-11.6976,0.5498,0.2611,-0.2025,86,10.788,208,5.7416,-4.6229,-11.6621,-0.1683,-0.9792,1.385,75
11.16,215,-1.2185,-8.1476,-14.5287,-0.464,-0.1338,-0.151,76,10.603,204,-0.6488,8.8237,-13.9671,0.653,0.4105,0.0456,86,10.839,209,4.0372,0.2996,-10.2135,0.5537,-0.0501,0.7727,75
11.212,216,-0.2082,-11.1442,-12.5497,-0.7632,-0.0575,-0.1602,76,10.655,205,0.1073,11.7668,-14.6615,1.0854,0.3226,0.0221,86,10.891,210,8.2122,-3.0973,-15.4592,-0.2711,-0.1376,-0.0317,75
11.264,217,-1.1203,-6.8266,-11.356,0.0923,-0.1069,-0.3398,76,10.707,206,-0.7098,8.0847,-12.9429,0.1121,0.6568,0.1828,86,10.943,211,8.54,0.5003,-8.6987,0.4787,0.578,0.6432,75
11.315,218,-0.1346,-2.3891,-10.5065,0.3078,0.1575,-0.483,76,10.759,207,-3.5186,2.7213,-11.7909,0.7536,-0.1402,0.4425,86,10.995,212,11.4986,1.512,-7.485,0.632,-0.1542,-0.0362,75
11.367,219,0.3988,-1.5147,-10.6924,-0.4527,0.7974,-0.2971,76,10.811,208,-3.5202,3.1464,-11.5726,-0.0144,-0.5664,0.9186,86,11.046,213,9.4144,0.8742,-10.7832,0.476,-0.2074,0.3579,75
11.419,220,-0.1818,-4.0567,-10.3991,-0.8213,1.2644,0.0961,76,10.862,209,-2.6307,2.8362,-12.201,0.1777,-1.0376,0.9886,86,11.098,214,7.6966,1.4006,-11.3221,-0.3278,-0.2853,0.611,75
11.47,221,-1.164,-4.5762,-10.1898,-0.1883,1.4686,0.3263,76,10.914,210,-1.2721,3.6365,-11.3849,-0.0077,-1.2765,0.739,86,11.15,215,5.3866,5.1481,-12.276,-0.9145,-0.1785,-0.2234,75
11.522,222,-2.4334,-7.4898,-10.5301,0.4441,1.127,0.5711,76,10.966,211,-0.2414,5.147,-11.7164,-0.2456,-1.2036,0.0557,86,11.202,216,4.4691,5.1476,-13.5277,-1.1885,-0.4002,-0.8371,75
11.574,223,-1.8324,-10.6641,-14.6681,0.2022,0.1532,0.4712,76,11.018,212,3.9848,9.0833,-16.4909,-0.4496,-0.2738,-0.2682,86,11.254,217,4.6245,2.3316,-15.4299,-1.2794,-0.8423,-1.2849,75
11.626,224,-1.3963,-11.2317,-12.8924,0.8219,-0.5575,0.0121,76,11.07,213,1.9201,11.9563,-16.6387,0.2899,0.4793,-0.8388,86,11.306,218,8.6409,-3.5353,-8.6774,-0.2856,-1.2881,-0.5749,75
11.678,225,-2.4151,-3.1339,-13.1663,0.8194,-1.0493,-0.5225,76,11.122,214,-2.5113,4.9472,-13.6264,-0.4241,0.8462,-0.9764,86,11.358,219,6.9665,2.7716,-14.338,-0.6992,-0.3833,-0.071,75
11.729,226,-1.5868,-0.8154,-12.0378,0.0107,-0.7911,-0.9621,76,11.173,215,-4.1489,-0.3073,-13.1398,-0.0102,0.7951,-0.0584,86,11.409,220,10.3502,4.1384,-14.3283,-0.5987,0.3986,-0.1888,75
11.781,227,1.6394,-1.4003,-12.901,-0.6696,-0.3266,-1.1945,76,11.225,216,-2.9399,1.5889,-15.3997,0.6643,0.0468,0.6227,86,11.461,221,12.8198,2.182,-9.1402,-1.0963,0.5851,0.1499,75
11.833,228,2.0726,-4.3263,-12.8902,-1.1661,0.1693,-0.7794,76,11.277,217,-0.0262,3.3589,-14.8864,0.1896,-0.1873,0.8277,86,11.513,222,9.1576,-3.6445,-11.6806,-1.4754,0.5747,0.7521,75
11.885,229,1.3799,-5.2427,-12.0967,-0.3009,0.5478,-0.515,76,11.329,218,-0.8452,2.3654,-13.5332,0.0917,-0.2691,0.3597,86,11.565,223,9.9588,-1.3909,-10.2216,-0.4003,0.7919,1.0166,75
11.937,230,1.305,-6.2387,-12.965,0.1116,0.2912,0.0411,76,11.381,219,-0.933,7.0532,-13.4199,-0.0289,-0.7848,-0.0761,86,11.616,224,10.3595,-0.8496,-10.9408,-0.2329,1.2563,0.7296,75
11.988,231,1.7257,-9.751,-17.1365,-0.5959,-0.0451,0.5255,76,11.432,220,4.1307,10.361,-15.3615,0.0271,-0.2889,-0.117,86,11.668,225,6.9181,0.4676,-15.99,0.5066,1.0379,1.0522,75
12.04,232,2.4693,-8.1732,-14.9467,0.2394,0.0644,0.3401,76,11.484,221,2.6395,12.8888,-16.7285,0.6733,-0.1456,-0.2099,86,11.72,226,6.9565,-1.8965,-19.6751,1.0462,0.7738,0.8054,75
12.092,233,-0.8438,-3.6304,-14.005,-0.3151,0.0716,0.546,76,11.536,222,0.487,6.6199,-13.8692,-0.1886,0.1782,-0.1389,86,11.772,227,10.3429,2.5107,-21.6513,0.6718,0.2695,0.8118,75
12.144,234,-1.7637,-2.0946,-11.1826,-0.4788,-0.2017,0.0409,76,11.588,223,1.0782,1.5386,-14.0263,0.2118,0.5831,0.126,86,11.824,228,12.5024,3.9374,-21.6925,-0.1375,0.5048,0.7012,75
12.195,235,-1.6467,-2.6951,-12.9683,0.1298,-0.8166,-0.4211,76,11.64,224,1.2479,0.8323,-13.5093,0.8263,1.1029,0.0065,86,11.875,229,10.8996,0.9854,-17.9087,0.5762,0.6238,0.4545,75
12.247,236,0.7871,-1.1297,-12.8256,0.1436,-1.2653,-0.5271,76,11.691,225,0.5788,2.8901,-13.266,1.238,1.4729,-0.3179,86,11.927,230,9.5245,2.1952,-16.0423,0.1869,-0.2181,-0.2235,75
12.299,237,1.0319,-3.5264,-11.8293,0.1451,-1.1389,-0.1605,76,11.743,226,-0.4885,4.0367,-13.2747,0.6613,1.3546,-0.5972,86,11.979,231,7.0914,2.1612,-13.1876,-0.0494,-0.3948,-0.2232,75
12.351,238,5.4448,-7.7714,-13.4501,0.7257,-1.3776,0.468,76,11.795,227,-2.6667,8.273,-16.3986,-0.0067,0.8437,-1.0037,86,12.031,232,5.4379,4.7466,-10.9269,-0.6096,-0.6422,-0.8369,75
12.403,239,5.5475,-10.8696,-14.4648,0.3768,-0.323,1.0182,76,11.847,228,-0.467,11.3649,-18.3256,-0.6469,-0.0569,-1.0051,86,12.083,233,3.9432,1.3789,-15.9798,-0.466,-1.1421,-1.2409,75
12.455,240,2.4103,-11.0408,-11.8883,0.9494,0.4467,1.0407,76,11.899,229,-0.6445,13.5657,-15.1065,-1.1394,-0.7142,-0.8805,86,12.134,234,8.1437,-0.3044,-9.0787,-0.6774,-1.4698,-0.5692,75
12.507,241,0.0279,-2.6681,-9.9625,1.0425,0.0963,1.0087,76,11.95,230,-2.5331,6.1929,-14.5043,-1.3123,-0.6899,-1.0072,86,12.186,235,6.5607,-2.388,-7.8944,-0.41,-1.1514,-0.5001,75
12.558,242,-1.0656,-1.8077,-10.1381,0.354,0.7501,0.3468,76,12.003,231,-0.7658,2.319,-13.6328,-0.987,-0.6442,-0.5051,86,12.238,236,10.054,2.6329,-3.1776,-0.9004,-1.2274,0.0787,75
12.61,243,-0.8586,-1.6231,-10.9085,0.1523,0.527,0.176,76,12.054,232,-0.3207,2.5415,-12.3198,-0.4136,-0.0609,-0.3173,86,12.29,237,5.6303,-3.3154,-7.0849,-1.3323,-0.2177,0.7343,75
12.662,244,0.3545,-1.8707,-9.3222,-0.2071,0.3645,0.2063,76,12.106,233,-2.2713,3.5181,-11.7237,-0.3354,0.3941,-0.2666,86,12.341,238,8.8836,-5.95,-8.3083,-1.0284,-0.8321,1.2136,75
12.714,245,-0.91,-2.9774,-8.038,-0.1997,0.7195,0.5866,76,12.158,234,-2.6779,3.895,-10.529,-0.7472,-0.0275,-0.3405,86,12.393,239,6.9291,-1.131,-7.6006,-0.0741,-0.7614,1.2581,75
12.765,246,-2.875,-7.3707,-10.7249,-0.0861,0.2681,0.8742,76,12.21,235,-1.7125,6.9517,-11.8657,-0.4331,0.0276,-0.6327,86,12.445,240,5.4934,2.0229,-7.1198,0.6225,0.1226,0.8013,75
12.817,247,-2.5632,-8.5434,-11.2616,-0.019,0.6011,0.4512,76,12.262,236,-0.812,10.4005,-11.9904,0.1676,0.1768,-0.6175,86,12.497,241,9.275,-2.3452,-2.6123,-0.2209,0.1636,0.9245,75
12.869,248,-0.9368,-10.006,-9.9725,-0.6564,-0.004,-0.1692,76,12.313,237,-0.4163,9.6276,-11.8829,-0.3139,0.4112,-0.0557,86,12.549,242,11.5192,0.8517,-0.8922,0.3437,0.7818,1.342,75
12.921,249,0.0339,-4.7041,-9.8248,-0.3675,-0.1114,-0.5497,76,12.365,238,-2.3937,4.7735,-11.8226,0.1887,0.4367,0.1722,86,12.601,243,11.4021,-0.694,-7.7161,0.0864,0.5655,1.4742,75
12.973,250,-0.0854,-2.6496,-10.5602,-0.8862,0.2357,-0.8108,76,12.417,239,-2.5596,1.7163,-10.7416,0.5843,-0.0286,0.7788,86,12.652,244,12.931,1.4666,-9.7877,-0.1981,-0.0401,0.4019,75
13.024,251,-0.6365,-1.8421,-10.484,-1.3013,0.4827,-1.0241,76,12.469,240,-1.435,2.2288,-11.2377,1.0982,-0.3673,1.2338,86,12.704,245,11.0342,-0.4601,-11.5886,0.2427,0.3552,0.1047,75
13.076,252,-1.035,-4.3195,-10.5284,-1.6271,0.3951,-0.8599,76,12.521,241,-0.7376,3.4984,-10.9937,1.2486,-0.3997,1.5326,86,12.756,246,8.4479,0.741,-10.533,-0.4981,0.1265,-0.2833,75
13.128,253,-1.633,-6.6174,-10.3213,-0.9534,0.0532,-0.5461,76,12.572,242,-0.3126,5.3896,-11.0904,0.8673,-0.2222,1.1722,86,12.808,247,6.7002,2.1985,-10.5298,-1.0388,0.3387,-0.8807,75
13.18,254,-2.0832,-10.0274,-12.9331,-0.024,-0.5921,0.0427,76,12.624,243,1.3266,9.2604,-13.7237,-0.0222,-0.0961,0.4553,86,12.86,248,6.5047,1.5844,-12.6975,-1.039,-0.0324,-1.3168,75
13.232,255,0.3619,-12.5161,-15.7602,0.0635,-0.6188,0.0781,76,12.676,244,4.8987,12.0855,-15.5682,0.3964,0.3167,0.0297,86,12.911,249,5.5155,-0.9894,-15.1,-0.2794,-0.6971,-1.6293,75
13.283,256,0.3797,-12.1222,-13.3377,0.7208,-0.6276,0.1032,76,12.728,245,3.622,14.1474,-15.4593,-0.3064,0.7183,-0.5702,86,12.963,250,6.5005,4.4852,-10.9832,-0.543,-0.4411,-0.8491,75
13.335,257,-0.3751,-3.683,-12.7118,1.0426,-0.9027,0.1719,76,12.78,246,0.0958,5.5518,-14.4208,-0.9037,0.8011,-0.9611,86,13.015,251,3.0785,0.3017,-8.7684,-0.3659,-0.8444,-0.3806,75
13.387,258,1.248,-0.1977,-12.1916,0.3723,-0.2055,-0.0699,76,12.831,247,-1.1168,0.0222,-12.9739,-0.0332,0.4358,-0.8219,86,13.067,252,7.5126,-3.1123,-9.7891,0.2676,-0.8557,0.1236,75
13.439,259,1.988,-0.7263,-13.2982,-0.3837,0.5324,-0.0879,76,12.883,248,-1.3891,2.0958,-13.2865,0.6472,-0.3546,-0.3009,86,13.119,253,10.7488,-5.5469,-11.3268,-0.2373,-0.7412,0.402,75
13.49,260,1.303,-2.9736,-11.9923,-0.5644,1.071,0.0045,76,12.935,249,-1.3517,1.774,-12.8222,0.2532,-0.9315,-0.0483,86,13.17,254,10.2163,-3.729,-9.573,0.5001,-0.168,0.5423,75
13.542,261,-0.07,-4.0545,-12.0682,-0.2019,1.4641,0.2052,76,12.987,250,-1.8566,4.0976,-12.2049,0.1198,-1.3525,-0.1781,86,13.222,255,8.2088,-3.0173,-9.2497,-0.0977,0.5557,0.98,75
13.594,262,-1.9621,-4.181,-10.5572,0.099,1.751,0.5403,76,13.039,251,-1.4655,7.1901,-12.1122,-0.5926,-1.6598,-0.505,86,13.274,256,6.7735,-1.9527,-12.7303,-0.2699,1.031,1.3652,75
13.646,263,-1.0431,-8.2492,-15.7016,-0.6051,0.6086,0.544,76,13.09,252,1.1561,9.6756,-14.4357,0.0357,-1.7952,0.0279,86,13.326,257,3.8497,3.9267,-16.0418,-0.2453,1.4308,1.6741,75
13.698,264,-1.6251,-8.6833,-16.5901,-1.0702,0.637,0.116,76,13.142,253,1.9951,12.3886,-15.5591,0.6978,-1.728,0.5538,86,13.377,258,-2.5145,6.7531,-12.7619,0.1596,0.7088,0.9037,75
13.749,265,-3.8739,-8.2243,-16.4452,-0.7237,0.0023,-0.4575,76,13.194,254,3.1343,7.3261,-14.067,-0.1707,-0.5955,0.5158,86,13.429,259,3.3328,6.8048,-12.7161,0.4164,0.3895,0.5224,75
13.801,266,-4.7632,-6.0106,-14.8635,0.1462,-0.6677,-0.9307,76,13.246,255,2.7995,3.8052,-13.7507,0.0361,0.2445,0.2265,86,13.481,260,5.9778,6.6986,-14.1834,0.0403,0.7431,0.4184,75
13.853,267,-4.3543,-2.3181,-14.5542,0.7811,-1.1566,-0.9136,76,13.298,256,0.7572,3.691,-14.0757,0.564,0.8575,-0.1616,86,13.533,261,4.1323,0.5659,-14.3535,0.7059,0.0552,-0.2593,75
13.905,268,-2.5058,-1.7166,-13.3308,0.8295,-1.5135,-0.7626,76,13.349,257,-0.5935,2.9011,-13.3842,0.3102,1.3049,-0.461,86,13.585,262,7.0119,0.1174,-13.5546,1.1917,-0.6331,-0.5108,75
13.957,269,-0.8761,-3.8697,-13.5446,1.2029,-1.7739,-0.4967,76,13.401,258,-2.311,2.9019,-13.0254,0.0171,1.6315,-0.6791,86,13.636,263,6.0613,2.725,-11.5237,0.8076,-1.1355,-0.4965,75
14.008,270,3.2976,-7.9549,-13.4564,1.5523,-1.6829,-0.1133,76,13.453,259,-5.6588,7.4448,-12.5751,-0.6657,1.2583,-1.0297,86,13.688,264,4.1283,3.3654,-10.2998,-0.0858,-1.5021,-0.0819,75
14.06,271,5.5882,-11.0036,-12.1833,0.4556,-0.5458,0.1187,76,13.505,260,-8.9649,10.7604,-13.0019,0.0494,1.4035,-0.9707,86,13.74,265,0.4224,6.1226,-7.2419,-0.6151,-1.7697,0.3891,75
14.112,272,3.0231,-13.2286,-12.2449,0.2905,0.284,-0.316,76,13.557,261,-7.3634,13.1803,-14.1744,0.7078,0.3517,-0.2516,86,13.792,266,5.5741,-0.7685,-2.7014,-0.7862,-0.9512,-0.3886,75
14.164,273,-0.8292,-8.6892,-12.092,0.5212,0.8893,-0.2438,76,13.609,262,-3.4366,11.3066,-11.7677,-0.1321,-0.2529,-0.1471,86,13.844,267,7.2133,2.5235,-9.9765,-1.2491,-0.6457,-0.2834,75
14.216,274,-2.3269,-2.6421,-10.5928,0.2875,1.0366,-0.1338,76,13.66,263,-2.4102,4.3842,-12.4534,-0.2175,0.0714,-0.3251,86,13.895,268,10.259,2.0409,-8.903,-1.2715,-0.7268,-0.1762,75
14.267,275,-2.8125,-1.4702,-10.6307,-0.3901,1.0215,-0.1673,76,13.712,264,-1.2912,2.0309,-11.5562,0.4991,0.5253,-0.1939,86,13.947,269,6.5234,-3.7475,-14.2556,-1.6032,0.1479,0.5492,75
14.319,276,-2.0546,-1.8498,-10.451,-0.4852,0.6404,-0.218,76,13.764,265,-1.4142,2.9421,-11.04,0.9121,0.8192,0.1335,86,13.999,270,10.0268,-7.3787,-14.6988,-0.7224,-0.5654,1.0785,75
14.371,277,-1.3673,-4.3415,-10.5719,-0.6993,0.3207,0.0479,76,13.816,266,-1.4024,5.8907,-11.4611,0.5599,0.5983,0.2363,86,14.051,271,9.1885,-1.0839,-11.8109,0.1493,-0.6591,0.9692,75
14.423,278,-0.6813,-8.3663,-11.7216,-0.1049,-0.1964,0.2015,76,13.868,267,-1.3705,8.6904,-12.5506,-0.2714,0.3558,0.0786,86,14.103,272,5.4337,1.3633,-9.4154,0.7855,0.1973,1.3851,75
14.475,279,0.3749,-11.3038,-14.7294,-0.7539,0.3644,0.0303,76,13.919,268,-3.2981,11.6695,-17.0998,0.4729,0.5264,0.6824,86,14.155,273,4.0938,2.205,-10.8916,1.2498,0.8224,0.3467,75
14.526,280,0.7237,-13.4477,-12.5031,-0.7142,0.3967,-0.1887,76,13.971,269,-0.0384,13.2497,-14.8768,-0.1596,-0.0796,0.7447,86,14.206,274,8.2536,6.9612,-6.9707,1.5542,0.2647,-0.0128,75
14.578,281,-1.8325,-8.329,-12.6932,0.0642,0.5325,-0.2734,76,14.023,270,-0.7759,7.7475,-13.072,-0.7916,0.3327,0.3899,86,14.258,275,11.2896,3.6215,-10.9546,0.4591,-0.4516,0.6641,75
14.63,282,-1.4933,-5.4005,-10.3948,0.4722,-0.1426,-0.326,76,14.075,271,-1.8635,5.0473,-10.5683,-0.2988,0.0069,0.541,86,14.31,276,8.4254,3.5395,-14.3604,-0.0947,-1.003,0.6812,75
14.682,283,-1.5178,-3.8826,-9.8372,0.45,0.1736,-0.122,76,14.127,272,-2.7849,5.0,-10.2294,0.0311,-0.0943,0.6578,86,14.362,277,4.6366,0.409,-9.7761,-0.6305,-0.9837,-0.0661,75
14.733,284,-0.7682,-4.581,-9.1823,0.46,0.3034,0.3601,76,14.179,273,-2.9238,5.7009,-10.2148,-0.3675,-0.5516,0.4903,86,14.413,278,6.5701,5.6504,-7.0116,-1.1089,-1.2615,-0.7223,75
14.785,285,-1.798,-7.2252,-10.1823,0.9717,0.1469,0.8045,76,14.23,274,-1.3949,7.4811,-11.2652,-0.9482,-1.0526,-0.1433,86,14.465,279,4.4528,7.4952,-8.7534,-1.3386,-1.0398,-0.7935,75
14.837,286,-3.4552,-10.471,-11.4569,0.7495,-0.018,0.7731,76,14.282,275,-0.0104,10.7869,-15.2881,-1.3721,-0.1458,-0.3891,86,14.517,280,3.7576,6.4119,-11.1737,-0.8582,-1.2582,-1.2531,75
14.889,287,-1.8854,-12.8399,-11.2946,0.4727,-0.3832,0.301,76,14.334,276,-1.8001,13.1996,-13.9934,-0.3297,0.5632,-0.4192,86,14.569,281,8.0082,-0.5574,-6.942,-0.2878,-1.588,-1.5841,75
14.941,288,-1.3618,-9.7432,-11.068,0.5037,-0.5409,-0.1921,76,14.386,277,-4.8882,9.5526,-11.5648,-0.3366,1.0765,-0.2426,86,14.621,282,9.0602,4.9451,-11.1581,-0.8852,-1.3164,-1.8056,75
14.992,289,-0.1599,-3.3551,-9.5924,0.3202,-0.0622,-0.2714,76,14.438,278,-5.4967,4.297,-10.4676,-0.294,0.4522,-0.0611,86,14.672,283,11.8783,7.4072,-12.1914,-0.7686,-0.7053,-1.9613,75
15.044,290,0.4147,-2.0252,-10.0067,-0.4437,0.6152,-0.3046,76,14.489,279,-5.2943,2.4935,-10.5792,-0.0263,-0.1803,0.5187,86,14.724,284,12.5912,6.5274,-9.1045,-1.1712,-0.9482,-0.7851,75
15.096,291,0.3971,-3.2353,-10.5448,-0.7225,1.1314,-0.148,76,14.541,280,-4.2294,2.3985,-11.1682,0.0909,-0.7652,0.7761,86,14.776,285,11.0401,-0.4731,-11.3964,-1.53,-0.9094,-0.2684,75
15.148,292,0.3038,-4.3428,-11.3383,-0.3781,1.4723,0.0386,76,14.593,281,-3.192,2.8054,-11.3616,0.4179,-1.2312,0.6569,86,14.828,286,10.1916,-3.9316,-9.6024,-0.4401,-0.2609,0.4819,75
15.2,293,1.1022,-6.7221,-12.6334,0.0299,1.5847,0.3521,76,14.645,282,-2.957,6.5826,-12.7164,-0.0797,-1.5712,0.1594,86,14.88,287,9.176,-0.7792,-9.3168,0.0266,0.4879,0.8034,75
15.252,294,-0.1288,-9.598,-14.0539,0.2327,1.8377,0.4672,76,14.697,283,-2.1411,10.1312,-13.4597,-0.7382,-1.8194,-0.1939,86,14.931,288,5.4477,1.6196,-12.1687,-0.5116,0.9491,1.2633,75
15.303,295,1.4221,-12.2027,-12.0148,-0.2958,1.046,0.5044,76,14.748,284,-1.6343,12.721,-13.7751,0.133,-1.5953,-0.0048,86,14.983,289,7.0694,-4.055,-16.8861,0.3032,0.6757,1.3856,75
15.355,296,-0.6418,-9.79,-11.4813,0.4529,0.8071,0.3668,76,14.8,285,-1.7706,11.9422,-12.9086,-0.5742,-1.4473,-0.0066,86,15.035,290,10.4253,-2.0406,-19.8837,-0.4539,0.1116,0.5566,75
15.407,297,-1.9487,-5.417,-10.068,0.2528,0.4346,0.4547,76,14.852,286,-1.3252,6.4941,-11.7897,-0.5285,-1.2384,-0.1002,86,15.087,291,10.4706,-0.8412,-14.6926,-0.2575,0.0912,0.4171,75
15.459,298,-2.4671,-3.371,-10.5042,0.1939,0.3054,0.2676,76,14.904,287,-0.1575,2.7505,-11.0935,-0.1911,-0.6272,-0.067,86,15.139,292,9.743,0.2756,-15.5304,-0.8632,-0.4002,0.2121,75
15.51,299,-1.7178,-1.7661,-10.7158,0.1148,-0.1117,-0.0127,76,14.956,288,0.1512,3.0406,-11.4819,0.1892,0.015,-0.0269,86,15.19,293,8.5897,3.4555,-14.2778,-0.2215,-0.3939,-0.516,75
15.562,300,-1.3969,-2.065,-10.896,-0.1695,-0.4512,-0.0616,76,15.008,289,0.1665,3.3492,-11.5249,0.0682,0.5424,-0.0787,86,15.242,294,7.3906,7.8739,-14.2317,-0.8278,-0.9609,-1.0506,75
15.614,301,-1.2323,-4.4501,-11.2922,-0.1431,-0.9057,-0.1116,76,15.059,290,-1.231,5.0372,-11.3362,-0.3102,0.8253,-0.1688,86,15.294,295,5.8231,7.1224,-15.2727,-0.1829,-1.0007,-0.7659,75
15.666,302,-1.5963,-8.4456,-14.4841,-0.7818,-0.9204,-0.2181,76,15.111,291,-6.1974,9.0032,-10.2266,-0.9058,0.953,0.1596,86,15.346,296,2.4833,9.6485,-12.1248,0.5431,-1.4038,-0.8157,75
15.718,303,-2.3105,-11.3617,-15.4293,0.1038,-0.52,-0.2407,76,15.163,292,-7.1659,11.8978,-9.382,-0.4574,0.1084,-0.1456,86,15.398,297,1.3386,7.3612,-16.8541,0.7593,-1.6979,-1.2694,75
15.769,304,-3.9999,-7.3052,-14.3511,0.6845,-0.4995,0.2518,76,15.215,293,-5.3714,9.3725,-8.2345,-1.0138,-0.2923,-0.3351,86,15.449,298,6.1605,7.5565,-20.2316,-0.0784,-1.5735,-1.4782,75
15.821,305,-2.8447,-3.144,-10.7944,0.8685,-0.1176,0.5958,76,15.267,294,-3.3572,4.7157,-11.7814,-0.9988,-0.0826,-0.2153,86,15.501,299,9.7619,7.314,-19.4903,-0.3072,-0.959,-1.674,75
15.873,306,-3.1101,-1.0556,-11.1296,0.7526,-0.3112,0.341,76,15.318,295,-0.6832,1.8178,-11.954,-0.3089,0.5979,0.0784,86,15.553,300,12.3904,10.69,-11.6408,-0.8339,-0.7771,-1.6708,75
15.925,307,-3.0119,-0.5318,-12.5305,0.2462,-0.8911,-0.202,76,15.37,296,-0.2445,1.9519,-11.2714,0.4462,1.1155,0.3275,86,15.605,301,6.9398,2.565,-14.8232,-1.2839,0.1112,-0.5417,75
15.976,308,-1.7143,-1.002,-12.3295,-0.2359,-1.3197,-0.4251,76,15.422,297,-1.0291,3.4635,-11.1097,0.6736,1.4932,0.5286,86,15.657,302,7.2021,-1.1618,-13.5567,-0.2605,-0.5923,0.2694,75
16.028,309,-0.5559,-3.5753,-12.6352,-0.0487,-1.6325,-0.3737,76,15.474,298,-1.0415,5.0976,-11.9122,0.1212,1.6617,0.6898,86,15.708,303,4.1168,3.7552,-9.4947,0.4864,-0.5112,-0.4774,75
16.08,310,0.5267,-7.8071,-15.308,0.1305,-1.5076,-0.4881,76,15.526,299,-2.6729,8.2124,-12.8945,0.6664,1.8545,0.8717,86,15.76,304,3.7862,3.5312,-10.0463,1.0315,0.3053,-0.5818,75
16.132,311,1.9965,-10.8957,-13.9943,-0.5821,-0.6706,-0.1652,76,15.578,300,-1.9511,11.3207,-13.3253,1.1581,1.0183,1.1109,86,15.812,305,8.0291,0.1899,-15.3371,0.4155,-0.0149,-0.2045,75
16.184,312,-0.2375,-9.9507,-12.6952,0.0892,-0.5652,-0.2416,76,15.63,301,-0.8092,10.1613,-12.0747,0.1652,0.583,0.9429,86,15.864,306,10.5965,5.4905,-8.6097,0.569,-0.3464,0.389,75
16.235,313,-3.3165,-6.9212,-11.2429,0.2258,-0.566,-0.2613,76,15.681,302,-3.1702,5.1963,-10.6829,0.2002,0.6994,0.5778,86,15.916,307,10.1204,7.3807,-11.2479,-0.2564,-0.9262,0.8367,75
16.287,314,-0.7202,-5.1254,-10.6225,0.5561,-0.3314,-0.3594,76,15.733,303,-3.7131,4.6237,-9.6447,0.7132,0.5455,0.3852,86,15.967,308,7.5963,1.297,-10.8523,-0.8154,0.0024,0.7285,75
16.339,315,-0.0826,-4.1886,-10.6247,0.5374,-0.0622,-0.1207,76,15.785,304,-3.2368,4.5454,-10.0214,0.1149,0.2241,-0.106,86,16.019,309,4.4165,5.4041,-12.0836,-1.2703,0.089,-0.1423,75
16.391,316,-0.0281,-4.2734,-10.8213,0.9993,0.151,0.0616,76,15.837,305,-2.7819,4.5245,-10.4178,-0.215,-0.3249,-0.4624,86,16.071,310,4.2805,4.5881,-14.7131,-0.9675,0.6086,-0.2341,75
16.443,317,-0.4961,-7.1881,-11.3566,1.1008,0.116,0.2496,76,15.889,306,-1.7973,8.6291,-10.6524,-0.6579,-0.887,-0.6037,86,16.123,311,4.8063,3.4917,-13.165,-0.0296,0.5342,-0.8202,75
16.494,318,-2.2709,-10.4439,-14.4102,0.1377,0.5464,0.0168,76,15.94,307,0.152,11.6247,-11.3212,0.1916,-0.9898,-0.3358,86,16.175,312,5.2313,4.6041,-14.459,0.0462,-0.2835,-1.2659,75
16.546,319,-2.1553,-12.1784,-13.3991,0.7383,-0.0682,-0.0526,76,15.992,308,1.6888,13.8111,-9.4711,0.142,-0.6896,-0.1361,86,16.226,313,9.0838,7.3231,-9.9989,-0.3102,-0.8785,-0.4626,75
16.598,320,-0.1316,-7.3411,-10.195,0.0489,-0.7163,0.0699,76,16.044,309,-2.2299,12.0721,-11.2855,-0.5764,0.1309,-0.1014,86,16.278,314,6.9591,5.4269,-12.7779,-0.2355,-1.2715,-0.824,75
16.65,321,1.009,-7.0616,-9.578,-0.306,-0.3214,0.1094,76,16.096,310,-4.1581,6.9871,-11.7187,-0.2115,-0.0912,0.2204,86,16.33,315,9.3231,4.6147,-15.8656,-0.4387,-1.3569,-1.1473,75
16.702,322,1.5677,-3.9685,-9.77,0.0534,0.1424,0.1368,76,16.148,311,-3.9515,4.6036,-10.9208,-0.1328,-0.2225,0.157,86,16.382,316,8.4988,-1.6088,-18.1439,-0.9954,-0.4913,-0.1596,75
16.753,323,1.8193,-2.233,-10.284,-0.1749,0.7804,0.329,76,16.199,312,-4.1592,3.1482,-10.8465,0.0544,-0.2858,-0.0093,86,16.433,317,8.0566,-1.9279,-13.7515,-0.6772,-0.2016,0.5612,75
16.805,324,1.5937,-2.3197,-10.2139,-0.23,1.252,0.5579,76,16.251,313,-3.8952,2.9167,-11.647,-0.0164,-0.6124,-0.0781,86,16.485,318,7.7768,-1.1439,-11.3006,-0.2866,0.5284,0.8792,75
16.857,325,1.9514,-4.9178,-12.323,-0.0844,1.4724,0.7963,76,16.303,314,-3.1499,5.1973,-12.1845,-0.0382,-1.1196,-0.1843,86,16.537,319,7.296,-0.9424,-12.0697,0.1639,1.064,0.8208,75
16.909,326,1.9437,-6.2861,-13.7153,-0.1058,1.7256,0.6616,76,16.355,315,-1.7787,9.1201,-13.6103,-0.5427,-1.4898,-0.0193,86,16.589,320,6.2263,-1.5042,-13.8244,0.3555,1.4185,1.2768,75
16.961,327,4.0679,-9.7856,-12.9342,-0.7546,1.5392,0.2588,76,16.407,316,-2.0884,11.5503,-14.4452,0.2757,-1.6331,0.6513,86,16.641,321,4.5334,2.9208,-16.114,-0.2756,1.0658,1.6096,75
17.012,328,-0.2894,-9.921,-13.228,-0.3094,1.8058,0.1453,76,16.459,317,2.2103,13.7568,-7.8949,0.1183,-1.3184,0.5712,86,16.692,322,8.5744,7.4836,-9.1767,0.4754,0.1061,0.8386,75
17.064,329,-5.1706,-5.8904,-12.262,-0.0051,0.7904,0.69,76,16.51,318,2.0421,6.264,-8.6503,-0.5937,-1.063,-0.0148,86,16.744,323,9.2746,6.2478,-9.05,0.2537,0.577,0.4341,75
17.116,330,-3.6728,-2.8928,-11.6128,0.3962,-0.0925,0.4955,76,16.562,319,2.0215,2.6222,-8.9214,-0.0286,-0.1434,-0.2267,86,16.796,324,9.7723,5.8884,-13.1655,0.2267,0.7611,0.1701,75
17.168,331,-4.0347,-1.8221,-12.0549,0.575,-0.7202,0.2074,76,16.614,320,1.7863,1.9059,-9.5724,0.0574,0.5744,-0.1887,86,16.848,325,7.6913,1.0188,-13.8218,0.842,0.1105,0.0613,75
17.219,332,-3.1455,-1.9366,-12.1325,0.6726,-1.195,0.132,76,16.666,321,1.1157,2.3759,-10.2049,-0.086,1.0983,-0.1923,86,16.9,326,9.5348,0.9174,-11.8962,0.9266,-0.5928,-0.6293,75
17.271,333,-2.4301,-5.1312,-12.7687,0.9184,-1.5415,0.4302,76,16.718,322,0.0908,5.3606,-10.8169,-0.7101,1.2657,-0.4944,86,16.951,327,7.4494,3.2437,-9.5151,0.7711,-1.106,-0.8313,75
17.323,334,-0.3735,-8.9427,-12.343,1.3447,-1.7944,0.8492,76,16.769,323,-4.0628,9.2393,-9.8002,-1.1983,1.2558,-0.9037,86,17.003,328,6.3098,2.8143,-8.7598,-0.1119,-1.4694,-1.1169,75
17.375,335,-0.6076,-11.7245,-12.348,0.304,-1.3789,0.5501,76,16.821,324,-6.8627,10.6567,-9.477,-1.1486,1.5956,-0.9121,86,17.055,329,6.2926,1.5169,-8.1909,-0.3993,-1.7404,-1.3239,75
17.426,336,-1.8416,-12.4113,-12.1075,0.8843,-0.8937,0.0479,76,16.873,325,-5.4098,13.1045,-7.7543,-0.189,0.5625,-0.6169,86,17.107,330,3.218,-2.3277,-3.394,0.0788,-1.0836,-0.6983,75
17.478,337,-4.3084,-4.2621,-12.5153,0.5932,-0.6227,0.0315,76,16.925,326,-3.642,7.4476,-7.0216,-0.818,0.1576,-0.3683,86,17.159,331,2.2751,-4.5963,-10.482,-0.2706,-1.443,-0.19,75
17.53,338,-3.7476,-0.5919,-10.9613,-0.2163,-0.1317,0.0112,76,16.977,327,-2.0081,2.177,-8.0241,0.068,0.4061,0.0113,86,17.21,332,6.9262,-2.1709,-11.622,-0.6678,-0.6635,-0.6691,75
17.582,339,-3.8282,-0.6816,-11.1988,-0.7587,0.0915,-0.2516,76,17.028,328,-0.2787,1.4116,-9.9858,0.6586,0.9755,0.4479,86,17.262,333,10.3208,-6.1023,-14.7768,-0.6636,-0.5627,-0.4185,75
17.634,340,-3.6034,-1.7244,-12.7588,-0.6934,-0.306,-0.4109,76,17.08,329,0.008,2.7455,-10.649,1.1183,1.391,0.5125,86,17.314,334,7.7397,-9.6908,-15.9163,0.0196,-0.6115,0.3723,75
17.685,341,-1.7562,-3.4108,-12.4715,-0.8824,-0.8927,-0.4027,76,17.132,330,-0.8135,5.5738,-11.1245,1.2648,1.6943,0.2808,86,17.366,335,10.068,-2.2073,-14.8,0.6909,-0.7461,-0.0553,75
17.737,342,-0.9495,-7.687,-13.9172,-0.9755,-1.2806,-0.4654,76,17.184,331,-2.044,8.7445,-13.4524,0.466,1.9157,0.3786,86,17.418,336,4.4587,2.5174,-13.1768,1.1807,-1.016,0.6374,75
17.789,343,0.0287,-10.8081,-16.0827,-1.2098,-0.753,-0.8566,76,17.236,332,-3.6281,11.709,-15.671,1.0118,1.9465,0.7387,86,17.469,337,-1.7851,5.7475,-10.0873,1.5383,-0.2469,1.1429,75
17.841,344,1.3834,-13.0859,-14.8892,-1.533,-0.4519,-0.8022,76,17.287,333,-2.921,13.8726,-14.5779,0.4301,1.2631,0.6441,86,17.521,338,3.9629,-0.5395,-7.177,1.4456,-0.0879,1.0904,75
17.893,345,0.4736,-10.6758,-13.4901,-0.4451,-0.1308,-0.6944,76,17.339,334,-4.9411,10.3353,-14.1833,-0.3661,0.8491,0.2586,86,17.573,339,5.879,-2.4731,-4.0218,0.9579,0.6142,1.4204,75
17.944,346,-0.1473,-7.8582,-11.6635,0.0483,0.1902,-0.144,76,17.391,335,-5.0502,7.0542,-11.9042,-0.6115,-0.053,-0.175,86,17.625,340,5.1425,-0.3094,-8.7959,0.0239,-0.2251,0.3628,75
17.996,347,-0.2124,-5.2482,-11.1986,0.7093,0.6384,0.1887,76,17.443,336,-5.3022,4.4373,-10.3775,-0.8445,-0.6968,-0.4732,86,17.676,341,4.1822,-2.5132,-10.5611,0.393,-0.6804,0.2411,75
18.048,348,-0.8269,-3.9005,-10.6154,1.1412,1.0751,0.4396,76,17.495,337,-4.5569,4.8705,-10.4392,-1.0319,-1.094,-0.6802,86,17.728,342,8.3181,-7.0713,-7.9136,0.257,-0.1811,0.5152,75
18.1,349,-1.477,-5.3925,-11.1174,1.4015,1.0636,0.8454,76,17.547,338,-3.0553,5.8331,-11.2497,-1.4172,-1.4055,-1.0315,86,17.78,343,6.9784,-2.7177,-5.4608,0.8536,-0.5769,-0.1952,75
18.152,350,-2.1529,-9.1334,-11.3012,1.6972,0.4654,1.1876,76,17.598,339,-1.8006,9.5841,-11.3396,-1.7144,-1.472,-1.4392,86,17.832,344,4.8983,-0.0567,-7.2023,-0.0522,-0.3416,-0.8126,75
18.203,351,-3.963,-11.8431,-10.4252,0.8832,0.341,0.7784,76,17.65,340,-3.1266,9.7554,-8.3344,-1.1979,-0.8373,-1.3093,86,17.883,345,3.129,2.9547,-9.7112,-0.7133,-0.5504,-1.2043,75
18.255,352,-3.6403,-10.9765,-8.4672,0.2661,-0.1741,0.2252,76,17.702,341,-3.5083,12.4468,-5.6657,-0.2026,-0.7142,-0.2923,86,17.935,346,7.5494,0.854,-5.8829,-0.8579,-0.0613,-0.5061,75
18.307,353,-2.7856,-7.1972,-8.4655,-0.4832,-0.256,-0.0442,76,17.754,342,-6.6318,8.6348,-8.7212,-0.8279,-0.3349,0.4272,86,17.987,347,7.0106,-2.5744,-8.4436,-0.2876,-0.0047,-0.6595,75
18.359,354,0.2973,-6.0258,-9.8747,-0.9288,-0.1718,-0.1458,76,17.806,343,-4.9334,2.1042,-8.3136,0.0525,-0.8738,0.7634,86,18.039,348,10.3824,-1.9833,-11.1722,0.0983,-0.5525,-1.1242,75
18.41,355,1.5222,-3.2116,-11.0872,-1.1046,0.5571,-0.2635,76,17.858,344,-5.6249,2.5798,-10.6454,0.71,-0.836,0.9094,86,18.091,349,12.8433,-3.9596,-10.1101,-0.4388,-0.1119,-0.6564,75
18.462,356,1.2434,-4.2534,-11.8709,-1.4836,1.089,0.0158,76,17.909,345,-4.1767,2.971,-11.7904,0.5228,-1.2828,0.8899,86,18.142,350,8.0916,-6.1088,-7.7674,0.1871,0.3115,0.1986,75
18.514,357,-0.9445,-5.9736,-12.6205,-1.2928,1.4772,0.0589,76,17.961,346,-2.4825,2.805,-10.7012,0.9569,-1.6089,0.687,86,18.194,351,7.3091,-4.8277,-6.9936,-0.2303,0.8953,0.821,75
18.566,358,-1.4004,-8.2519,-12.8808,-0.4477,1.7294,0.1028,76,18.013,347,-2.631,7.0397,-9.5082,0.5121,-1.8469,0.3751,86,18.246,352,5.294,-2.3848,-8.3834,-0.4373,1.3318,0.8377,75
18.618,359,-3.7133,-10.6341,-14.0926,0.1224,1.9446,0.3887,76,18.065,348,-1.0042,10.4647,-11.2036,-0.3063,-2.0163,0.2384,86,18.298,353,5.4729,1.114,-14.1234,-0.4779,1.5296,1.2559,75
18.669,360,-1.2123,-12.959,-13.4932,-0.5881,0.8331,0.6912,76,18.117,349,1.2001,12.9645,-11.0124,0.4481,-1.3298,0.2262,86,18.35,354,5.1532,6.0672,-15.0562,0.3277,0.4888,1.5943,75
18.721,361,-2.9103,-10.0665,-12.911,-0.1264,0.6753,0.4999,76,18.168,350,1.1638,11.4412,-11.3348,-0.353,-0.348,0.1135,86,18.401,355,9.0253,9.78,-16.5993,-0.1566,-0.239,0.7251,75
18.773,362,-3.0426,-7.8804,-11.5156,-0.6221,-0.1765,0.2275,76,18.22,351,0.6165,6.7171,-11.7884,-0.0767,0.3827,0.2266,86,18.454,356,9.111,8.9538,-16.455,-0.4959,-0.2569,0.1743,75
18.825,363,-2.9447,-5.2681,-11.3589,-0.1936,-0.7981,-0.0094,76,18.272,352,0.248,3.8244,-12.1112,0.0981,0.9584,0.0083,86,18.505,357,8.3515,6.5338,-16.4961,-0.1481,0.2146,-0.1436,75
18.877,364,-2.4554,-3.3651,-12.2491,0.1663,-1.2519,-0.301,76,18.324,353,-0.1393,2.8559,-11.6629,0.1765,1.3786,-0.0369,86,18.557,358,8.2278,3.8632,-16.8108,-0.6055,-0.5168,-0.7709,75
18.928,365,-1.3797,-2.4557,-12.1763,0.0459,-1.583,-0.4143,76,18.376,354,-0.808,3.708,-11.6596,0.293,1.6852,-0.069,86,18.609,359,8.8494,1.3612,-15.5489,-0.9034,-0.8123,-1.2367,75
18.98,366,-0.6928,-5.2214,-12.9113,0.0542,-1.8247,-0.2183,76,18.428,355,-1.1723,6.305,-11.7995,-0.4547,1.795,-0.1931,86,18.661,360,6.2189,4.4906,-14.523,0.0172,-1.2662,-0.4477,75
19.032,367,1.3201,-9.0085,-14.9448,0.4728,-1.7563,-0.149,76,18.479,356,-3.1598,9.9285,-12.0948,0.1383,1.3125,0.0431,86,18.712,361,3.9194,3.9782,-11.853,0.6053,-1.5976,-0.9319,75
19.084,368,-0.3183,-11.7725,-15.5087,-0.3306,-1.2164,0.125,76,18.531,357,-2.9295,12.5731,-10.8317,-0.2629,1.1507,0.1385,86,18.764,362,-2.4636,8.2554,-6.0668,1.0412,-1.3638,-0.3403,75
19.135,369,0.3109,-11.7447,-12.9572,-0.0741,-0.7471,0.1488,76,18.583,358,-5.7757,11.1538,-11.5279,0.118,1.0863,0.2273,86,18.816,363,-7.1193,3.773,-6.9614,0.8888,-1.3585,0.0431,75
19.187,370,-0.7858,-7.6502,-12.0067,0.4128,-0.2261,0.0738,76,18.635,359,-4.0985,8.6631,-10.1586,0.6195,0.3631,0.2055,86,18.868,364,-0.9569,2.7693,-8.5142,0.3013,-1.1775,-0.5375,75
19.239,371,-0.9402,-2.9442,-10.7264,0.4966,-0.1021,0.093,76,18.687,360,-3.2141,4.5554,-9.6633,0.4257,-0.1505,0.1056,86,18.919,365,4.5673,1.139,-9.2047,0.6605,-0.439,-0.9256,75
19.291,372,-1.2461,-0.9085,-10.7097,-0.0976,0.2527,-0.0459,76,18.739,361,-2.3839,2.5479,-9.6659,0.5337,-0.1486,0.2497,86,18.971,366,6.8756,-4.4058,-12.786,-0.0164,-0.7054,-0.3747,75
19.343,373,-1.1311,-1.4292,-11.0679,-0.4647,0.3088,-0.0871,76,18.79,362,-1.5365,1.4298,-9.8603,0.3859,0.2465,0.3393,86,19.023,367,6.932,-7.869,-12.9369,-0.622,-0.3968,0.4043,75
19.394,374,-1.0551,-2.4874,-11.1454,-0.5696,0.2482,-0.0963,76,18.842,363,-1.2137,3.2032,-11.0167,0.9193,0.4648,0.1942,86,19.075,368,8.5803,-7.028,-13.0764,-0.0824,-0.9074,0.9728,75
19.446,375,-0.9779,-7.0131,-13.7307,-0.5774,-0.2385,-0.1208,76,18.894,364,0.2174,7.6647,-12.2488,0.324,0.4811,0.0612,86,19.127,369,5.8175,-1.3336,-10.6447,0.6164,-0.0778,1.3877,75
19.498,376,-0.7046,-10.3162,-16.4539,-1.0777,-0.1694,-0.0822,76,18.946,365,-0.8633,10.9209,-16.3111,0.7399,0.8282,0.1513,86,19.178,370,3.7348,3.5394,-9.3058,0.9594,0.6216,1.389,75
19.55,377,-1.0893,-11.9399,-14.3144,-0.3488,-0.4683,-0.3813,76,18.998,366,0.1495,13.1621,-14.245,-0.1186,1.0995,-0.045,86,19.23,371,7.9916,7.9351,-11.0189,1.0625,0.0451,0.9482,75
19.602,378,-1.8757,-8.0655,-13.5095,0.2612,-0.7751,-0.3873,76,19.049,367,-2.5692,8.0525,-13.3675,-0.5211,0.8291,-0.2817,86,19.282,372,7.2052,2.9075,-10.7357,0.2153,-0.423,1.3567,75
19.654,379,0.3091,-2.7013,-11.9494,0.5173,-0.6895,-0.1007,76,19.101,368,-3.166,4.2169,-12.0421,-0.5145,0.2241,-0.4741,86,19.334,373,9.2773,1.863,-11.1045,0.1996,-0.9812,0.4311,75
19.705,380,0.7897,-0.8152,-11.5852,-0.0331,0.1301,0.1625,76,19.153,369,-3.409,1.6448,-11.1158,0.0299,-0.2084,-0.2767,86,19.386,374,10.0386,-1.5844,-14.7428,0.2831,-0.5073,-0.2985,75
19.757,381,1.0638,-1.5038,-11.6248,-0.2155,0.7774,0.2134,76,19.205,370,-3.0872,1.0684,-11.6307,0.6523,-0.6892,0.1179,86,19.437,375,7.8611,-2.7333,-13.7404,-0.2575,-0.6981,-0.5719,75
19.809,382,0.4549,-2.1597,-11.6151,-0.064,1.1184,0.3077,76,19.257,371,-2.2087,1.9819,-12.5749,0.4132,-1.0941,0.1953,86,19.489,376,6.2974,0.4755,-11.8617,-0.8632,-0.5019,-1.0521,75
19.861,383,-1.3687,-6.7739,-13.2491,0.4095,0.8293,0.4978,76,19.308,372,0.2211,5.6078,-13.6418,-0.1317,-1.4573,-0.2022,86,19.541,377,6.0988,2.769,-11.9501,-1.3052,-0.6515,-1.4419,75
19.912,384,-5.3384,-10.1416,-16.6865,0.3253,0.6684,-0.0637,76,19.36,373,0.6658,9.4197,-12.7517,0.2133,-0.3846,-0.1372,86,19.593,378,5.7683,-1.1887,-14.3915,-0.9781,-0.9426,-1.5245,75
19.964,385,-0.8288,-12.5995,-15.2647,-0.0382,-0.1815,-0.2584,76,19.412,374,-1.6689,12.2018,-13.7484,0.0873,0.3984,-0.2112,86,19.644,379,9.4757,-6.1046,-7.9195,-1.0512,-0.3475,-0.6257,75
20.016,386,-0.7915,-9.7404,-13.1038,0.5746,-0.5646,-0.0802,76,19.464,375,-4.1223,10.6571,-14.0388,-0.6163,0.2335,-0.6031,86,19.696,380,12.1815,-0.9785,-13.7849,-1.2922,-0.927,-0.6411,75
20.068,387,1.7673,-5.0449,-12.7054,0.7782,-0.9343,0.0031,76,19.516,376,-3.9607,3.6726,-12.6729,-0.467,-0.0655,-0.7213,86,19.748,381,12.784,0.6395,-14.3564,-0.9374,-0.2778,-0.6818,75
20.12,388,2.9904,-3.126,-12.9176,1.0529,-0.0009,-0.0252,76,19.567,377,-5.045,0.9115,-12.423,0.3301,-0.6932,-0.546,86,19.8,382,12.6304,0.2348,-10.7303,-0.7954,-0.5426,-0.5583,75
20.171,389,3.0633,-1.7307,-13.2335,1.0403,0.6818,-0.124,76,19.619,378,-4.9247,1.4364,-13.238,0.801,-1.1786,-0.2798,86,19.852,383,11.42,-1.3198,-9.3788,-0.955,-0.0173,-0.4466,75
20.223,390,2.1025,-1.8311,-13.3451,0.8096,1.18,-0.096,76,19.671,379,-4.0,2.023,-13.0082,0.345,-1.5329,-0.2343,86,19.904,384,8.6494,-3.7273,-7.2981,-1.3722,0.6657,0.3518,75
20.275,391,0.0694,-4.1016,-12.7532,0.7813,1.5436,0.0546,76,19.723,380,-4.0658,4.2532,-12.9196,0.0397,-1.7914,-0.3776,86,19.955,385,8.7281,-1.8841,-8.3136,-1.6767,1.1642,0.851,75
20.327,392,-3.0664,-8.1912,-13.8478,0.1238,1.809,0.4613,76,19.775,381,-1.2692,8.431,-11.9822,-0.6511,-1.9801,-0.5405,86,20.007,386,6.1617,-0.5667,-10.8073,-1.3083,0.8801,1.2988,75
20.379,393,-4.3049,-11.176,-15.7808,-0.2466,1.4808,0.4541,76,19.827,382,-1.4913,11.4802,-9.808,0.1966,-1.6936,-0.2619,86,20.059,387,6.2317,3.8912,-13.9444,-0.2783,0.3756,0.986,75
20.43,394,-4.4288,-11.0622,-14.2417,-0.0331,1.2448,0.3935,76,19.878,383,-0.6968,13.6993,-9.9714,-0.1156,-1.2173,-0.1224,86,20.111,388,9.0776,5.1629,-9.6352,-0.5405,0.1275,0.5683,75
20.482,395,-5.4309,-6.6857,-13.249,-0.0155,0.5967,0.275,76,19.93,384,-0.0678,8.3086,-10.8402,-0.5668,-0.7381,-0.1754,86,20.162,389,8.2026,2.4803,-10.0896,-0.2716,0.3019,0.8521,75
20.534,396,-4.8957,-3.6455,-12.0298,-0.0738,-0.1496,0.0595,76,19.982,385,0.8148,4.494,-11.0891,0.2339,0.1404,-0.3066,86,20.214,390,10.3941,2.0548,-12.8505,-0.6432,0.261,0.3309,75
20.586,397,-4.4342,-1.4174,-11.8111,-0.217,-0.7617,-0.3394,76,20.034,386,0.7979,2.9442,-11.1179,0.4666,0.7815,-0.2274,86,20.266,391,11.6131,1.2156,-13.1233,0.2071,-0.0021,-0.2858,75
20.637,398,-3.2493,-1.0174,-12.0592,-0.5561,-1.2253,-0.7873,76,20.085,387,0.0679,2.3534,-11.4283,0.6497,1.2495,-0.1114,86,20.318,392,9.2925,3.2062,-11.5802,0.2686,-0.6749,-0.8826,75
20.689,399,-1.641,-1.9628,-12.3551,-0.4256,-1.5636,-0.8819,76,20.137,388,-1.2615,3.6767,-12.2957,0.6152,1.591,-0.106,86,20.37,393,6.7689,5.6826,-10.6127,-0.4792,-0.8378,-0.7443,75
20.741,400,-0.7839,-6.6302,-13.3058,-0.4019,-1.6706,-0.7124,76,20.189,389,-3.5127,7.7705,-12.1651,-0.1394,1.7656,-0.0705,86,20.421,394,5.2706,2.4642,-10.0738,-0.0583,-0.6604,0.0624,75
20.793,401,-3.1525,-10.0367,-15.88,-0.9707,-0.6999,0.1115,76,20.241,390,-7.5301,10.9981,-10.2077,-0.0406,0.9735,-0.1312,86,20.473,395,9.1125,-3.4386,-15.3572,0.634,-1.1554,-0.5295,75
20.845,402,-3.1658,-12.523,-17.5785,-0.1254,-0.5906,0.758,76,20.293,391,-7.45,13.3537,-10.5046,-0.7097,0.0378,-0.5475,86,20.525,396,11.9164,-1.6601,-17.2086,-0.2125,-1.0643,-0.2682,75
20.896,403,-2.2456,-9.1198,-15.6712,0.5828,-0.8447,0.932,76,20.344,392,-5.3823,8.8383,-14.0484,-1.198,-0.6173,-1.0859,86,20.577,397,12.2794,-2.3081,-13.7173,-0.0109,-1.4502,-0.6324,75
20.948,404,-1.2271,-1.2661,-13.1025,1.0997,-0.2784,0.2308,76,20.396,393,-1.0135,1.6308,-14.8673,-0.6695,-0.269,-1.3478,86,20.629,398,13.9931,-1.663,-13.9532,0.0807,-1.2114,-1.1073,75
21.0,405,-1.1187,2.199,-12.5614,0.1682,-0.2858,-0.1679,76,20.448,394,2.1897,0.3456,-13.272,0.0932,0.4539,-0.4569,86,20.68,399,15.4786,-3.3842,-11.2807,-0.1013,-0.8786,-0.512,75
21.052,406,-2.0295,2.9692,-12.8798,-0.5546,-0.4601,-0.7187,76,20.5,395,2.5316,1.6489,-12.8692,0.5039,1.0104,0.3319,86,20.732,400,11.6666,-7.5181,-11.7402,-0.03,-0.1443,0.2063,75
21.104,407,-1.6531,-1.9675,-14.5545,-1.0822,-1.0051,-0.8629,76,20.552,396,0.8777,3.7474,-12.8507,0.6121,1.4165,0.7645,86,20.784,401,11.1628,-6.8059,-12.1117,-0.2354,-0.2792,0.8283,75
21.155,408,-1.9093,-6.6337,-15.8809,-0.5014,-1.3845,-0.911,76,20.604,397,-0.6985,8.0619,-12.7869,0.3784,1.4751,0.7072,86,20.836,402,9.6241,-5.9169,-11.4437,0.5047,-0.1477,1.2823,75
21.207,409,-1.065,-10.0392,-16.1285,-0.091,-1.6517,-0.9808,76,20.656,398,-3.4172,11.2108,-12.9234,-0.0592,1.7557,0.4114,86,20.888,403,5.8027,0.5407,-10.4295,1.0449,0.4709,1.3257,75
21.259,410,1.0997,-12.5248,-15.0011,-0.5023,-1.5167,-1.2933,76,20.707,399,-7.513,13.509,-14.7754,0.6286,1.6583,0.6422,86,20.939,404,1.1414,-4.8424,-15.6168,0.4253,0.0132,1.3074,75
21.311,411,0.6973,-12.6074,-13.9382,-0.5529,-1.1755,-1.3528,76,20.759,400,-6.4157,15.0961,-11.9325,0.5126,1.034,0.4627,86,20.991,405,2.2241,-7.3783,-8.8138,0.4655,0.688,1.6319,75
21.363,412,-0.2133,-7.5794,-13.8504,-0.135,-0.5701,-1.1253,76,20.811,401,-6.7008,9.3206,-11.4405,0.1348,0.6979,0.3961,86,21.043,406,5.7774,-9.2948,-14.4376,0.2773,0.3238,1.063,75
21.414,413,0.8163,-4.216,-13.1502,-0.2006,0.2477,-0.3179,76,20.863,402,-6.1246,5.9739,-10.6095,0.3561,-0.073,0.5122,86,21.095,407,9.4824,-4.2464,-16.1814,0.3043,-0.4371,0.1018,75
21.466,414,0.7166,-1.4765,-12.6776,-0.6064,0.8632,0.3921,76,20.915,403,-5.5354,4.2061,-10.6421,0.0388,-0.7259,0.7659,86,21.147,408,11.0834,-6.5274,-14.0402,0.2941,0.1228,-0.0949,75
21.518,415,-0.3962,-1.6239,-12.3528,-1.0791,1.3124,0.6998,76,20.966,404,-4.5851,2.6524,-11.7552,-0.3047,-1.2025,0.9331,86,21.198,409,9.4388,-4.462,-11.8588,-0.4606,-0.5838,0.0603,75
21.569,416,-1.1649,-3.1441,-12.7358,-0.8806,1.4841,0.7526,76,21.018,405,-2.6203,1.2916,-12.7076,0.1762,-1.5503,0.9081,86,21.25,410,6.9109,-0.4456,-9.7775,-0.9352,-0.401,-0.4255,75
21.621,417,-1.3878,-6.228,-13.978,0.0029,1.398,0.7319,76,21.07,406,-0.7934,4.6386,-14.0619,0.2166,-1.6816,0.4623,86,21.302,411,5.988,2.2709,-9.3338,-1.3578,-0.801,-0.9845,75
21.673,418,-3.4605,-9.7432,-15.8527,0.0284,1.2753,0.3697,76,21.122,407,-0.2747,8.7123,-14.4309,0.8298,-0.6387,0.1464,86,21.354,412,6.8488,-1.7037,-13.4622,-1.6662,-0.5814,-1.1877,75
21.725,419,-2.8535,-12.3087,-15.7899,0.0791,0.2615,0.0248,76,21.174,408,-1.4379,11.6855,-11.913,0.2979,0.213,-0.2802,86,21.406,413,10.2643,-6.4805,-7.2413,-1.5534,-0.0839,-0.9947,75
21.777,420,-3.3953,-11.0474,-14.7189,0.7321,-0.4784,0.0499,76,21.225,409,-3.1867,9.1361,-13.8684,-0.4626,0.2431,-0.7783,86,21.458,414,8.5213,-3.4675,-9.1852,-1.4646,-0.3967,-0.3238,75
21.828,421,-1.6376,-3.3123,-13.3904,1.1973,-0.8141,0.0155,76,21.277,410,-1.8891,3.5995,-11.9461,-0.2981,-0.379,-0.6605,86,21.509,415,8.8268,-0.4142,-7.8579,-0.506,-0.2065,-0.6579,75
21.88,422,1.6275,1.0676,-12.1265,0.3521,-0.2044,0.0417,76,21.329,411,-2.6949,-0.5853,-11.4568,-0.1233,-0.2164,-0.2162,86,21.561,416,11.7021,-0.4275,-11.2101,0.1497,-0.7183,-0.4428,75
21.932,423,2.4394,-0.1727,-13.0028,-0.4204,0.5333,0.2695,76,21.381,412,-4.7208,-0.7882,-13.5152,0.5741,-0.5555,0.1607,86,21.613,417,13.44,-3.091,-10.4791,-0.566,-0.3897,0.2388,75
21.984,424,1.4863,-1.9033,-13.0621,-0.662,1.0716,0.3304,76,21.433,413,-3.3095,0.9776,-13.3318,0.4797,-1.0781,0.1857,86,21.665,418,11.304,-7.2039,-7.9304,0.0586,0.3577,0.852,75
22.036,425,0.1127,-4.0286,-13.723,-0.3842,1.4645,0.3696,76,21.484,414,-3.0518,2.3844,-13.0536,0.613,-1.4595,-0.0763,86,21.716,419,11.6852,-4.2993,-7.4988,-0.1887,0.9023,1.2996,75
22.087,426,-0.0953,-5.8812,-15.8492,-0.2299,1.6746,0.508,76,21.536,415,-0.9624,7.0671,-13.736,0.6274,-1.7379,-0.2228,86,21.768,420,8.8363,-2.7182,-8.468,0.0592,1.3369,1.6262,75
22.139,427,-2.2527,-9.4901,-19.5639,-0.8247,1.814,0.3054,76,21.588,416,-0.2219,10.4847,-15.4691,1.1295,-1.022,0.1778,86,21.82,421,5.3303,2.7481,-9.9187,0.7197,1.6541,1.7779,75
22.191,428,-0.8967,-12.124,-18.8476,-0.3105,1.5343,0.1785,76,21.64,417,0.638,12.9791,-15.0474,0.9814,-0.5789,0.3068,86,21.872,422,9.1561,7.3576,-4.655,1.2001,1.8856,0.6236,75
22.243,429,-2.4038,-8.9468,-16.9182,-0.4046,1.1472,0.1685,76,21.692,418,-2.2781,12.1246,-14.5931,0.0362,-0.3559,0.3361,86,21.924,423,3.1609,0.1328,-11.4023,1.2056,1.9184,0.4614,75
22.294,430,-3.5783,-7.6342,-15.0733,-0.5532,0.4668,0.1636,76,21.744,419,0.5516,6.979,-13.0358,-0.6536,0.3017,0.1341,86,21.975,424,6.3927,-1.3476,-11.0745,1.1672,0.8333,-0.3372,75
22.346,431,-3.7827,-5.3606,-13.4671,-0.0317,-0.3286,-0.0095,76,21.795,420,0.8864,3.5304,-12.219,-0.4307,0.8743,0.062,86,22.027,425,9.9314,0.3244,-10.5308,1.1021,-0.0158,-0.8842,75
22.398,432,-3.3618,-2.8738,-12.7562,0.5679,-0.9092,-0.2108,76,21.847,421,0.2816,2.9195,-11.7263,-0.1522,1.3172,0.1472,86,22.079,426,10.1617,-0.5631,-12.7609,1.434,-0.6675,-0.8428,75
22.45,433,-2.6078,-2.2751,-12.1528,0.4205,-1.3329,-0.188,76,21.899,422,-0.421,3.6089,-11.4581,-0.3929,1.6404,0.2155,86,22.131,427,11.6324,-3.6362,-12.2809,1.7231,-0.9462,-0.3798,75
22.502,434,-2.9961,-4.287,-13.0879,0.3013,-1.6421,0.0135,76,21.951,423,-0.7009,4.4755,-11.1876,-0.9167,1.8701,0.0337,86,22.183,428,9.7561,0.7216,-11.055,1.4949,-1.364,-0.9329,75
22.553,435,-4.1282,-8.3265,-15.1998,0.7535,-1.8393,0.0023,76,22.003,424,-2.0859,8.166,-9.7168,-1.0414,2.044,-0.1322,86,22.234,429,6.0666,2.6425,-8.5627,1.4531,-1.3884,-0.8247,75
22.605,436,0.2579,-11.2748,-17.1137,0.0398,-1.6674,0.45,76,22.054,425,-4.0299,11.2868,-11.3446,-0.0883,1.7783,-0.3831,86,22.286,430,3.9435,-3.3084,-14.2543,1.6511,-1.6241,-1.2759,75
22.657,437,0.3864,-13.4266,-15.0878,0.0402,-1.1332,0.2068,76,22.106,426,-5.0329,13.5639,-10.1232,-0.5525,0.9127,-0.301,86,22.338,431,8.1439,-0.3221,-8.5129,1.5171,-0.9494,-1.3688,75
22.709,438,-1.5591,-10.4304,-15.4671,0.655,-0.4036,-0.0494,76,22.158,427,-5.0236,9.1019,-10.7046,-0.5605,-0.0066,-0.1571,86,22.39,432,9.8355,2.4716,-12.7911,0.9084,-1.1768,-1.4464,75
22.761,439,-1.9806,-4.9511,-13.0153,0.6027,-0.3476,-0.1128,76,22.21,428,-1.666,5.0795,-9.6822,-0.0039,-0.4139,-0.1976,86,22.441,433,12.2979,2.495,-13.5757,0.6566,-0.3421,-1.0334,75
22.812,440,-2.866,-1.5668,-12.0806,0.0076,-0.2022,-0.3359,76,22.262,429,-0.1627,2.3373,-10.4429,0.0158,0.065,0.0132,86,22.493,434,13.6482,3.6933,-11.3461,-0.0178,-0.923,-1.4066,75
22.864,441,-2.5856,-1.5951,-12.168,-0.5713,-0.4411,-0.6854,76,22.313,430,-0.0853,1.9577,-11.2627,0.3172,0.7265,0.1679,86,22.545,435,9.623,-2.5415,-16.2857,-0.6882,0.0047,-0.3489,75
22.916,442,-1.7046,-3.487,-12.2664,-0.587,-0.793,-0.8238,76,22.365,431,-0.52,3.631,-11.2292,0.8426,1.1629,0.0671,86,22.597,436,11.5637,-4.1948,-17.3668,0.1742,-0.67,0.4124,75
22.968,443,-1.9443,-6.9385,-12.9911,-0.2611,-1.1549,-0.8177,76,22.417,432,-1.3285,6.9672,-10.8503,0.5227,1.4021,-0.1499,86,22.649,437,11.6083,1.0004,-14.2634,0.8037,-0.8111,0.9787,75
23.019,444,-0.5319,-10.2618,-15.2913,0.1495,-1.4445,-1.1859,76,22.469,433,-3.3181,10.4118,-12.7902,0.9281,1.7024,0.051,86,22.701,438,5.8933,3.6724,-13.624,1.2631,0.0864,1.392,75
23.071,445,0.0956,-12.6872,-17.1374,-0.5683,-1.2736,-1.0265,76,22.521,434,-2.5782,12.9258,-12.3225,1.1023,1.1121,0.1231,86,22.752,439,9.5669,8.0322,-17.9483,1.4279,0.3481,1.3558,75
23.123,446,0.0832,-12.2178,-15.286,-0.1514,-0.9401,-0.9166,76,22.572,435,-3.3688,12.4166,-11.5183,0.1527,1.3688,0.075,86,22.804,440,12.2481,5.2505,-20.4822,0.367,0.7082,1.6672,75
23.175,447,-0.0767,-7.4654,-12.7879,0.1308,-0.6255,-0.5024,76,22.624,436,-4.7847,7.2402,-10.7858,-0.0716,0.5993,-0.0678,86,22.856,441,8.1524,1.8798,-18.4139,-0.0503,0.2621,1.0054,75
23.227,448,0.5174,-3.9761,-11.329,0.238,-0.024,-0.0306,76,22.676,437,-4.9238,4.5474,-9.85,0.042,-0.1457,-0.0025,86,22.908,442,9.9654,1.7677,-17.9177,-0.0099,-0.2325,0.0598,75
23.278,449,0.7673,-2.2838,-10.9042,-0.0361,0.6492,0.3249,76,22.728,438,-4.8035,3.2562,-10.2721,-0.2989,-0.7203,0.2202,86,22.96,443,11.3966,-3.8472,-12.4332,-0.6672,-0.8431,-0.6304,75
23.33,450,0.9202,-2.6372,-11.4144,-0.1838,1.1536,0.7489,76,22.78,439,-4.2477,3.0536,-11.1083,-0.4626,-1.1984,0.2455,86,23.011,444,8.8513,0.9307,-11.109,-1.1622,-0.7459,-0.1943,75
23.382,451,-0.6933,-4.8381,-12.6681,-0.0441,1.4941,1.1523,76,22.831,440,-2.9361,5.0405,-10.9027,-0.9603,-1.5473,-0.0345,86,23.063,445,6.3284,2.7347,-11.9612,-1.2771,-0.6702,0.1878,75
23.434,452,-6.0383,-8.7288,-14.4993,0.6386,1.154,0.3872,76,22.883,441,2.4315,9.0057,-9.0245,-0.8152,-0.9226,-0.3181,86,23.115,446,4.8203,2.3345,-12.6721,-1.2663,-0.9854,-0.4285,75
23.486,453,-8.1018,-11.5684,-15.0015,0.4479,0.1738,0.0972,76,22.935,442,1.9458,11.8996,-5.0672,-0.263,-0.0749,-0.2347,86,23.167,447,4.2001,-3.5332,-17.2536,-0.2477,-1.156,0.0423,75
23.537,454,-3.6988,-13.6408,-13.5034,0.8478,-0.5425,-0.3845,76,22.987,443,-1.4609,13.7214,-7.589,-0.8107,0.6244,-0.2303,86,23.218,448,8.3312,-2.8021,-10.0084,-0.4995,-1.0497,-0.6432,75
23.589,455,0.321,-6.3932,-13.0136,1.2558,-1.0653,-0.5552,76,23.039,444,-4.2617,7.6533,-9.5004,-0.8541,0.59,-0.2084,86,23.27,449,7.4155,-3.1503,-12.1351,-0.2615,-0.9641,-0.7475,75
23.641,456,2.0363,-1.475,-12.5145,0.6756,-0.3253,-0.5111,76,23.09,445,-5.6012,2.4005,-9.8416,-0.5667,0.2886,-0.2532,86,23.322,450,9.5232,-1.7825,-11.6617,-0.3508,-0.6572,-0.5664,75
23.693,457,2.5814,0.2042,-13.0026,-0.1843,0.445,-0.4664,76,23.142,446,-5.2003,0.8462,-10.1497,0.0311,-0.459,0.1223,86,23.374,451,10.9369,-4.1631,-10.9296,-0.8643,0.1323,0.0962,75
23.744,458,1.8896,-1.6508,-13.7944,-0.8119,1.0072,-0.1671,76,23.194,447,-4.4354,2.5605,-11.79,0.6944,-1.0077,0.3291,86,23.426,452,10.2413,-6.5028,-7.1594,-1.306,0.7749,0.7479,75
23.796,459,1.1023,-2.8034,-14.134,-0.8692,1.4175,0.1415,76,23.246,448,-2.73,4.5831,-12.103,0.1654,-1.4081,0.1855,86,23.477,453,9.835,-6.386,-7.3975,-0.7845,0.7739,1.1769,75
23.848,460,0.0453,-6.5068,-14.8099,-0.8239,1.5844,0.5684,76,23.298,449,-1.372,8.6718,-12.3425,-0.2059,-1.7004,-0.4091,86,23.529,454,9.1754,-3.5083,-9.0673,-0.238,1.0717,1.4274,75
23.9,461,-1.3932,-9.9467,-17.4705,-0.0374,1.7958,0.4068,76,23.35,450,-1.7607,11.2284,-9.1742,0.1569,-1.4255,-0.908,86,23.581,455,5.7596,0.7703,-12.0462,0.4709,1.011,1.7195,75
23.952,462,-2.7822,-12.4572,-18.5104,-0.5426,0.6414,0.4122,76,23.402,451,-0.3044,13.5219,-8.0752,0.7863,-1.4773,-0.7244,86,23.633,456,8.9815,1.7128,-16.7967,0.0257,0.1257,1.9327,75
24.004,463,-3.9065,-11.6854,-16.5334,0.274,0.4721,0.4305,76,23.454,452,-1.7514,13.3529,-10.4137,-0.1062,-1.0132,-0.9077,86,23.685,457,7.0587,-2.5,-18.0839,0.1611,-0.3096,2.0883,75
24.055,464,-5.6758,-5.648,-14.7918,0.8743,-0.2467,0.6899,76,23.505,453,2.2691,6.9282,-10.7913,-0.4972,-0.5078,-0.8581,86,23.736,458,9.5535,-2.951,-18.3346,0.1692,0.1714,0.8501,75
24.107,465,-4.7869,-1.4193,-13.3385,1.2625,-0.8476,0.5982,76,23.557,454,3.2639,3.0148,-11.8027,-0.6161,0.3085,-0.3712,86,23.788,459,11.0109,-0.7296,-17.2926,-0.0704,0.2663,0.3847,75
24.159,466,-4.3815,0.7266,-13.0816,0.7085,-1.2879,0.2115,76,23.609,455,2.3727,1.5811,-12.0556,-0.21,0.9042,0.3757,86,23.84,460,10.7906,-0.4809,-17.2553,0.6251,-0.2749,-0.373,75
24.211,467,-3.8917,1.1576,-13.855,-0.0511,-1.6093,-0.0705,76,23.661,456,1.5216,2.2544,-11.9438,0.251,1.339,0.9253,86,23.892,461,8.2606,-0.641,-15.4028,0.7847,-0.874,-0.5374,75
24.262,468,-1.7481,-0.8325,-14.0553,-0.7115,-1.8439,-0.1936,76,23.713,457,0.1613,3.7107,-12.2897,0.2456,1.6564,1.2676,86,23.944,462,8.3948,-0.7318,-13.6954,0.4859,-1.1771,-1.0663,75
24.314,469,-0.6667,-5.8053,-15.0854,-0.451,-2.0151,-0.0687,76,23.764,458,-1.5536,8.0351,-12.0721,-0.3859,1.5955,1.1895,86,23.995,463,6.4967,3.0315,-11.8673,0.1341,-1.2985,-1.122,75
24.366,470,-0.4662,-9.4347,-15.9125,-0.4029,-1.7051,-0.1471,76,23.816,459,-5.1095,11.1912,-9.9923,-0.1548,1.8364,0.8792,86,24.047,464,6.0422,2.02,-11.1566,-0.2803,-1.6211,-1.3665,75
24.418,471,1.0691,-12.0836,-15.0271,-0.8746,-0.6519,0.0245,76,23.868,460,-6.4254,13.4947,-10.5106,0.5587,1.3342,0.7918,86,24.099,465,0.3114,-1.7047,-5.5585,-0.0817,-0.5048,-1.4429,75
24.47,472,0.284,-9.0858,-14.2146,-0.3552,-0.1556,-0.0843,76,23.92,461,-6.0439,11.7422,-10.031,0.3728,1.0336,0.3991,86,24.151,466,1.6829,-2.4845,-3.3009,0.6169,-1.0327,-0.6896,75
24.521,473,1.14,-4.0366,-12.6067,-0.8713,0.0777,0.2198,76,23.972,462,-5.4459,6.9984,-9.6146,0.0613,0.8316,0.1878,86,24.203,467,6.494,-0.3952,-5.3266,0.0037,-0.0809,-0.6226,75
24.573,474,2.139,-1.8432,-12.4479,-0.8832,0.7342,0.746,76,24.023,463,-5.0774,2.9191,-10.3777,0.611,0.1882,0.3754,86,24.254,468,8.6768,1.2493,-7.0078,-0.6725,0.2291,0.1123,75
24.625,475,1.8658,-0.5377,-12.8784,-0.9298,1.2183,1.0206,76,24.075,464,-3.5924,1.9337,-11.0305,1.0481,-0.5353,0.9394,86,24.306,469,8.6982,-4.3252,-7.1686,-1.166,0.8452,0.7597,75
24.676,476,1.0315,-0.5966,-13.6753,-1.0204,1.5716,1.0277,76,24.127,465,-2.7413,3.4501,-11.5998,0.7833,-1.0633,1.1632,86,24.358,470,9.6242,-1.2442,-6.8785,-0.1745,0.5629,0.1444,75
24.728,477,-0.1103,-3.8504,-15.3931,-0.9871,1.8149,1.2434,76,24.179,466,-2.4505,6.2086,-12.4744,0.6631,-1.4487,0.81,86,24.41,471,7.5646,0.2774,-6.845,-0.6585,1.0892,0.7106,75
24.78,478,-1.1125,-7.3864,-16.9963,-0.3816,1.9934,1.4385,76,24.231,467,-1.3582,9.8581,-13.2747,-0.1607,-1.7002,0.3867,86,24.462,472,5.3832,2.6667,-9.6943,-1.1559,1.3039,1.178,75
24.832,479,-3.0098,-10.5886,-20.4012,-0.9559,1.1753,1.4469,76,24.282,468,1.9403,12.5218,-14.0246,0.4472,-1.9136,0.5038,86,24.513,473,8.4364,7.2982,-15.0802,-1.1513,0.8959,1.4414,75
24.884,480,0.4368,-12.4107,-18.8195,-0.0233,1.2424,1.0878,76,24.334,469,0.7494,14.1069,-13.183,-0.0182,-1.067,0.239,86,24.565,474,11.423,7.3966,-19.0111,-1.3052,-0.0195,0.7384,75
24.935,481,-2.1554,-6.3439,-17.6951,0.3881,1.5892,0.971,76,24.386,470,-0.0584,10.5111,-12.3858,-0.1665,-1.1953,0.0719,86,24.617,475,10.6215,4.9046,-17.7281,-1.1924,-0.1074,0.8603,75
24.987,482,-3.2465,-4.0512,-15.1458,-0.3697,0.6194,0.5164,76,24.438,471,1.4306,6.1907,-11.0188,-0.4669,-0.3785,-0.1506,86,24.669,476,12.0559,4.1682,-16.455,-1.4358,-0.459,0.4815,75
25.039,483,-3.4299,-3.056,-13.4961,-0.1773,-0.1289,-0.0546,76,24.49,472,1.72,2.5139,-11.2408,-0.1808,0.4029,-0.1015,86,24.72,477,10.7186,2.5215,-18.8576,-0.5694,-0.3737,0.1298,75
25.091,484,-3.3932,-1.623,-13.7195,0.2382,-0.7539,-0.5326,76,24.541,473,1.3163,2.6386,-11.1932,0.1482,0.9731,0.1295,86,24.772,478,9.1536,-1.573,-17.726,0.261,-0.6261,0.1614,75
25.143,485,-2.399,-0.7104,-14.0048,-0.0006,-1.2196,-0.7526,76,24.593,474,0.4591,4.197,-10.4693,-0.0676,1.3893,0.0564,86,24.824,479,8.9979,-0.7197,-15.9009,-0.1607,-1.1303,-0.5563,75
25.194,486,-1.0028,-4.1061,-15.8577,-0.0183,-1.5594,-0.3602,76,24.645,475,-1.2747,6.3275,-11.6293,-0.7294,1.4808,-0.2266,86,24.876,480,6.6936,2.0154,-14.4804,0.5592,-1.4984,-0.5085,75
25.246,487,0.3005,-8.1945,-19.4286,0.2549,-0.4826,-0.0713,76,24.697,476,-4.5461,9.945,-13.6988,0.0031,1.0622,0.0166,86,24.928,481,5.2044,1.9856,-12.3231,0.0368,-1.767,-0.8103,75
25.298,488,-1.3665,-11.1784,-19.2323,-0.317,0.3302,-0.2107,76,24.749,477,-3.6114,12.5851,-11.1628,0.4053,0.1026,0.4493,86,24.98,482,9.0641,-3.7879,-6.4099,0.3296,-1.0019,-0.3815,75
25.35,489,-3.8519,-9.1733,-16.5463,0.4011,0.7159,-0.4962,76,24.801,478,-3.4527,11.6617,-10.0454,-0.2099,-0.4874,0.5491,86,25.031,483,7.9961,-8.0016,-9.4441,-0.2586,-0.8374,0.3993,75
25.402,490,-4.1699,-5.3622,-13.8212,0.342,0.5798,-0.3602,76,24.852,479,-2.7108,7.0963,-9.9774,-0.5404,-0.4726,0.1482,86,25.083,484,10.5459,-6.033,-11.2238,0.3158,-0.4688,-0.3826,75
25.453,491,-3.8129,-3.2242,-12.6948,0.3509,0.4372,-0.293,76,24.904,480,-1.0954,4.1027,-10.9464,-0.3861,-0.0543,-0.0208,86,25.135,485,12.874,-7.2605,-9.7134,-0.4447,0.3102,-0.1642,75
25.505,492,-2.7794,-2.2667,-12.6756,0.2297,0.1429,-0.3686,76,24.956,481,-0.7033,2.7263,-11.1143,-0.0257,0.408,-0.2263,86,25.187,486,8.7121,-10.3447,-13.1878,-0.9998,0.9047,0.5579,75
25.557,493,-1.3957,-1.3811,-12.8308,0.326,-0.0763,-0.3962,76,25.008,482,-0.3117,2.6925,-11.0258,0.4046,0.6565,-0.3302,86,25.238,487,9.389,-11.8003,-12.8465,-1.4049,0.0102,1.0849,75
25.609,494,-0.7638,-2.4827,-13.6816,0.5411,-0.4211,-0.2989,76,25.06,483,0.6913,4.6531,-12.2913,0.4218,0.7977,-0.4026,86,25.29,488,9.7656,-9.6813,-12.1206,-0.4198,-0.666,1.4321,75
25.66,495,-0.1036,-6.2623,-15.2896,0.4622,-0.7121,-0.5998,76,25.111,484,0.1317,8.7229,-13.4374,0.5144,1.1981,-0.0822,86,25.342,489,7.1051,-1.9926,-9.1271,0.3701,-0.1814,1.5362,75
25.712,496,3.2,-9.7682,-17.1903,-0.3268,-1.1407,-0.5993,76,25.163,485,-2.151,11.6932,-11.2169,0.5724,1.363,0.3496,86,25.394,490,9.4772,-5.8337,-9.7153,0.8899,0.4944,1.7315,75
25.764,497,-0.0896,-12.327,-16.7726,-0.4728,-1.1319,-0.6034,76,25.215,486,-2.4576,12.5625,-13.259,-0.2623,1.4349,0.0478,86,25.446,491,9.4926,-8.9847,-6.7704,0.6042,0.0288,1.9127,75
25.816,498,-0.0838,-9.9737,-15.6823,0.3293,-1.0963,-0.5196,76,25.267,487,-3.4773,10.5631,-12.0688,-0.0588,1.3777,-0.2423,86,25.497,492,9.4921,-7.7654,-11.2148,-0.0964,-0.4264,1.3127,75
25.868,499,2.3789,-3.5599,-13.803,0.5263,-0.8207,0.0453,76,25.319,488,-4.7087,6.4318,-11.0956,-0.1927,0.7936,-0.4822,86,25.549,493,11.1579,-6.783,-12.5461,0.0409,-0.6854,0.3358,75
25.919,500,3.3734,-1.065,-12.7752,0.1937,-0.0608,0.5547,76,25.37,489,-4.399,3.9321,-10.7468,-0.2844,-0.0881,-0.3043,86,25.601,494,13.4093,-3.005,-13.5899,0.0043,-0.8158,-0.2465,75
25.971,501,2.5456,-0.0464,-12.7146,-0.2363,0.6314,0.7774,76,25.422,490,-3.8315,2.308,-12.3734,-0.4297,-0.737,0.0861,86,25.653,495,9.4488,-1.6927,-11.7239,0.6328,-0.3664,-0.7929,75
26.023,502,1.8326,-0.762,-11.892,-0.3614,1.0641,0.7979,76,25.474,491,-2.4702,-0.0276,-13.0844,0.0521,-1.2105,0.3872,86,25.705,496,10.1683,1.4821,-11.1712,-0.2134,-0.667,-1.2527,75
26.075,503,0.1302,-2.4397,-12.9722,-0.2001,1.2326,0.7296,76,25.526,492,-0.9638,1.7746,-14.0985,0.6767,-1.5126,0.2609,86,25.756,497,7.8237,3.1244,-10.9784,0.1777,-0.43,-1.5291,75
26.127,504,-5.4373,-6.9783,-17.4642,-0.0362,1.4823,0.2432,76,25.578,493,3.2118,6.6221,-14.7144,0.6517,-0.4611,-0.1619,86,25.808,498,6.6953,2.5331,-11.2326,-0.0237,-0.3782,-1.7899,75
26.178,505,-2.1182,-10.2908,-19.7373,-0.0762,0.4125,0.0444,76,25.63,494,-0.8121,10.1599,-15.2966,0.6926,0.3426,-0.5569,86,25.86,499,4.7432,1.7118,-13.1054,0.3823,-0.5787,-1.8392,75
26.23,506,-3.2026,-12.7084,-17.9621,0.3409,-0.317,-0.3404,76,25.681,495,-3.1219,11.3258,-15.4102,-0.1745,0.9291,-0.9199,86,25.912,500,8.7276,-2.4589,-7.033,0.5678,-0.0819,-1.725,75
26.282,507,-2.0522,-7.2428,-16.6531,0.9232,-0.9007,-0.5043,76,25.733,496,-3.0978,5.7806,-14.1364,-0.4433,0.7273,-1.0008,86,25.964,501,5.4601,-5.0671,-10.143,0.4986,-0.3201,-1.315,75
26.334,508,0.7169,-1.5502,-15.3258,0.5562,-0.493,-0.0804,76,25.785,497,-3.3989,2.2152,-12.6568,-0.5258,0.3536,-0.8818,86,26.015,502,9.0497,-3.438,-11.1774,0.5032,0.13,-0.7673,75
26.385,509,2.1439,0.3737,-14.7122,-0.2644,0.2938,0.0315,76,25.837,498,-3.3123,-0.6533,-12.1558,-0.1256,-0.1996,-0.2501,86,26.067,503,11.799,1.8768,-9.5801,-0.0948,0.0757,-0.2281,75
26.437,510,2.143,-0.0841,-14.3387,-0.8434,0.8969,-0.0223,76,25.889,499,-3.2424,-0.3363,-13.4242,0.5696,-0.8183,0.4017,86,26.119,504,8.0661,-3.3595,-14.9969,-0.7444,0.7215,0.5113,75
26.489,511,1.4992,-1.3305,-14.37,-1.0651,1.337,0.0768,76,25.94,500,-3.0278,1.6306,-12.8705,0.6493,-1.2699,0.6276,86,26.171,505,7.0115,-5.674,-13.4719,0.1208,-0.0206,0.6973,75
26.541,512,0.5111,-3.9953,-15.4466,-1.0652,1.6582,0.5434,76,25.992,501,-5.0515,6.5169,-11.2917,-0.1382,-1.5995,0.2696,86,26.223,506,7.4602,-3.6251,-13.0089,0.7647,-0.0516,0.7179,75
26.593,513,-3.7101,-8.1137,-19.2701,-1.1113,1.8927,1.0732,76,26.044,502,-2.7092,10.0832,-11.3274,-0.7809,-1.8401,-0.0807,86,26.274,507,5.2675,-2.4191,-14.0561,1.1823,0.2703,1.1715,75
26.644,514,-2.2305,-11.1194,-21.6439,-0.3367,0.712,1.4599,76,26.096,503,0.6625,12.686,-6.9794,-0.2655,-1.6242,-0.3092,86,26.326,508,5.3774,-2.1039,-18.2636,1.4999,-0.3345,1.4877,75
26.696,515,-2.6707,-9.1391,-20.3459,0.4286,0.9139,1.2554,76,26.148,504,0.0228,11.5285,-7.0887,-0.8738,-1.1373,-0.5335,86,26.378,509,8.5878,3.8164,-20.9151,0.4228,-0.9175,1.7635,75
26.748,516,-4.3051,-3.6327,-16.2553,-0.1808,0.0218,0.8546,76,26.199,505,2.339,4.9049,-10.8642,-0.5497,-0.6636,-0.354,86,26.43,510,9.6902,1.6398,-20.453,0.2544,-0.2518,0.6131,75
26.8,517,-3.5821,-2.1485,-13.1375,-0.058,-0.5987,0.2025,76,26.251,506,3.6028,1.0882,-12.4057,0.1285,0.1948,0.2124,86,26.481,511,12.338,3.1588,-17.6608,0.1933,0.3964,-0.0498,75
26.852,518,-4.1769,0.9577,-13.715,0.1632,-1.1043,-0.5274,76,26.303,507,2.4621,0.1971,-12.8086,0.7655,0.8212,0.8204,86,26.533,512,10.8729,1.197,-16.7517,0.652,0.4069,-0.3643,75
26.903,519,-2.1704,2.9125,-14.0619,-0.5583,-1.4753,-1.06,76,26.355,508,1.2622,2.82,-12.5835,1.2304,1.2784,1.2641,86,26.585,513,9.6121,2.8602,-15.5574,0.4204,-0.3764,-0.9345,75
26.955,520,0.8359,-0.9432,-14.64,-1.0848,-1.7461,-1.0668,76,26.407,509,-0.232,4.1158,-12.6687,0.9548,1.6121,1.2752,86,26.637,514,7.2901,2.4373,-13.695,-0.1363,-0.6373,-0.6595,75
27.007,521,2.7023,-5.8861,-17.2512,-0.1437,-1.9437,-0.6212,76,26.459,510,-4.4398,8.3308,-12.8588,0.3965,1.8331,0.6626,86,26.688,515,5.4989,2.9297,-12.4385,-0.2677,-1.1385,-1.1554,75
27.059,522,1.8185,-9.4936,-20.5872,-0.3512,-0.7362,0.1778,76,26.511,511,-7.7473,11.407,-11.6676,0.9276,0.738,0.3028,86,26.74,516,4.5395,4.5493,-10.6935,0.1507,-1.5043,-1.1237,75
27.11,523,0.3765,-12.1266,-21.8475,0.418,0.0832,0.4713,76,26.562,512,-5.1098,13.6522,-10.0713,-0.003,-0.1341,-0.383,86,26.792,517,-1.7725,2.825,-5.2205,0.4332,-1.0564,-0.5102,75
27.162,524,-2.7993,-5.3307,-19.3901,0.9795,0.5968,0.6865,76,26.614,513,-2.8866,5.9125,-12.203,-0.6822,-0.7705,-0.9659,86,26.844,518,-3.001,-1.968,-9.0858,0.0621,-1.391,0.2002,75
27.214,525,-1.8696,0.8356,-16.0268,0.5441,0.5596,0.7163,76,26.666,514,-1.2869,0.0847,-15.0289,-0.4181,-0.2045,-0.8436,86,26.896,519,3.0755,-1.4902,-8.0604,0.2294,-0.3456,-0.5178,75
27.266,526,-1.0863,3.1346,-15.293,-0.1107,0.4766,0.1534,76,26.718,515,1.4294,0.5604,-14.5747,0.3666,0.3581,-0.3633,86,26.947,520,7.5104,0.5195,-10.4545,-0.5078,-0.807,-0.1019,75
27.318,527,-0.7144,2.1575,-14.5898,-0.7582,0.2507,-0.3419,76,26.77,516,0.9799,1.3592,-13.4798,0.6051,0.7723,0.2513,86,26.999,521,5.4522,-4.5767,-10.6223,-1.0458,0.0894,0.6034,75
27.369,528,-0.7919,0.1468,-14.4124,-1.1585,0.1037,-0.5744,76,26.821,517,-0.0209,2.2789,-12.0309,0.8728,0.7495,0.7063,86,27.051,522,7.3351,-4.5601,-11.3127,-0.1201,-0.6081,0.9121,75
27.421,529,-0.9714,-2.9877,-15.3033,-1.1904,-0.2641,-0.5296,76,26.873,518,-0.1323,5.7601,-11.1731,0.8555,0.6837,0.9005,86,27.103,523,6.6766,-2.1102,-9.9318,0.3727,-0.9642,1.3341,75
27.473,530,1.0971,-7.3783,-19.1656,-1.5126,-0.6522,-0.9813,76,26.925,519,-0.3615,9.5308,-14.4564,1.2712,0.9484,1.3028,86,27.155,524,5.4521,-1.3279,-9.4715,0.3762,-0.746,1.6514,75
27.525,531,1.693,-10.5827,-20.1199,-0.5795,-0.6311,-0.9648,76,26.977,520,-1.7527,12.2829,-9.9503,0.3185,1.3061,0.8715,86,27.207,525,9.245,-6.2062,-14.9176,0.6132,-0.6444,0.5313,75
27.576,532,-1.3963,-8.8609,-18.3916,-0.0028,-0.4839,-0.5637,76,27.029,521,-4.199,9.093,-10.7642,-0.4476,1.2698,0.028,86,27.259,526,6.3261,-6.6813,-8.3035,0.431,-0.2701,1.0655,75
27.628,533,1.2383,-5.2781,-16.4352,0.6723,-0.1463,-0.0792,76,27.08,522,-4.9043,4.198,-11.138,-0.2538,0.805,-0.6323,86,27.31,527,7.3944,-7.3193,-10.9648,0.7391,-0.171,0.4779,75
27.68,534,1.84,-1.4228,-14.5288,0.4443,0.5164,0.4804,76,27.132,523,-4.5209,1.7573,-10.9969,0.3896,-0.0852,-0.4997,86,27.362,528,10.6625,-3.8253,-11.7166,0.3753,-0.7982,-0.3252,75
27.732,535,1.167,-0.2708,-13.4957,-0.1723,1.0478,0.7555,76,27.184,524,-3.6513,1.8525,-11.59,0.4387,-0.7348,-0.1129,86,27.414,529,9.3837,-5.5368,-12.8662,0.8508,-0.3393,-0.3571,75
27.783,536,0.2099,-0.7776,-13.0676,-0.3639,1.2797,0.942,76,27.236,525,-2.7614,1.2354,-11.9963,0.0103,-1.209,0.0821,86,27.466,530,8.6975,0.5654,-10.4565,1.1657,-0.3684,-0.9141,75
27.835,537,-0.7377,-1.4118,-12.5807,-0.1975,1.3097,1.1129,76,27.288,526,-1.5745,1.8725,-12.2599,-0.0116,-1.5436,-0.0426,86,27.518,531,7.2142,1.5141,-10.8357,0.1755,-0.2687,-1.3334,75
27.887,538,-2.8107,-4.7607,-14.8682,0.0691,1.1145,1.1774,76,27.339,527,2.1149,6.6935,-11.2868,-0.5027,-1.426,-0.6989,86,27.569,532,6.8287,1.9225,-11.662,-0.5471,0.0042,-1.6472,75
27.939,539,-6.0085,-8.6723,-17.026,0.7248,0.1441,1.0771,76,27.391,528,-1.1272,10.2121,-7.2067,-0.0773,-0.3617,-1.0866,86,27.621,533,6.0349,-0.9093,-13.3759,-0.4401,0.1365,-1.8727,75
27.991,540,-9.9176,-11.5271,-20.4229,0.1062,-0.166,1.0058,76,27.443,529,-4.038,12.7801,-5.8969,-0.7364,0.4151,-1.0095,86,27.673,534,9.6703,-5.9007,-16.9888,-0.567,-0.5397,-1.299,75
28.042,541,-5.9399,-13.6107,-18.5832,0.7518,-0.4269,0.5063,76,27.495,530,-5.9149,11.7403,-7.2535,-1.2175,0.6543,-1.1052,86,27.725,535,12.3235,-0.3047,-17.7475,-0.0752,-0.8536,-0.5719,75
28.094,542,-4.3975,-4.5438,-21.5593,1.2231,-0.9809,-0.1015,76,27.547,531,-4.5003,4.5703,-7.0863,-0.9058,-0.013,-0.6963,86,27.776,536,10.7174,1.2525,-20.4397,-0.1083,-0.5968,-0.5981,75
28.146,543,-2.3107,-1.101,-20.3129,0.2153,-0.4832,-0.2444,76,27.599,532,-3.4647,1.3595,-8.1421,-0.9599,0.1122,-0.1371,86,27.828,537,11.696,1.0241,-21.9071,0.1685,-0.0907,-0.6727,75
28.198,544,-0.8312,-0.6108,-18.2242,-0.5202,0.2966,-0.3136,76,27.65,533,-3.5714,-0.6178,-10.6133,-0.0288,-0.1424,0.2815,86,27.88,538,13.802,-1.8661,-17.4776,-0.2266,-0.072,-0.5736,75
28.25,545,-0.587,-1.9796,-16.6517,-1.0571,0.8989,-0.264,76,27.702,534,-2.8903,-0.0502,-11.2505,0.6507,-0.5311,0.5312,86,27.932,539,12.6819,-6.2137,-17.1955,-0.8406,0.3409,0.2549,75
28.301,546,-0.8726,-2.566,-15.121,-1.0951,1.3385,-0.3882,76,27.754,535,-2.4895,0.5342,-10.7071,1.1466,-0.6514,0.4489,86,27.983,540,13.677,-6.1035,-15.3503,-1.253,0.1206,0.8638,75
28.353,547,-1.0944,-4.5476,-15.1767,-0.9375,1.5815,-0.3813,76,27.806,536,-2.9631,4.3463,-11.0343,1.2809,-0.7411,0.0627,86,28.035,541,10.9626,-3.1452,-13.4074,-0.6573,0.3862,1.3082,75
28.405,548,-1.9862,-8.5167,-19.0731,-1.3616,1.8366,-0.3848,76,27.858,537,-4.4918,8.499,-13.1887,1.1638,-0.0992,0.4326,86,28.087,542,7.4787,1.3107,-12.441,0.1968,0.9602,1.5601,75
28.457,549,1.5491,-11.4136,-20.3711,-1.3041,1.018,-0.0333,76,27.909,538,-5.0505,11.5298,-12.7659,0.8238,0.5793,0.3099,86,28.139,543,10.724,6.3085,-17.0849,0.3747,1.0995,0.866,75
28.509,550,1.2571,-10.3115,-18.5121,-0.3331,1.134,0.1136,76,27.961,539,-6.5443,10.9035,-14.8142,-0.0788,-0.2487,0.4291,86,28.191,544,13.0926,3.0732,-20.4742,-0.4017,0.1291,1.3098,75
28.56,551,-1.3445,-7.9999,-16.9097,-0.6239,0.7288,0.3135,76,28.013,540,-2.001,7.2125,-13.1182,-0.6384,-0.8542,0.2707,86,28.242,545,13.5018,-0.3153,-20.5772,-0.1319,-0.0531,0.2819,75
28.612,552,-2.1026,-5.2142,-14.2529,-0.2618,0.0107,0.3087,76,28.065,541,-0.4009,3.7387,-13.1408,-0.5336,0.0557,-0.1901,86,28.294,546,15.1199,1.5976,-17.0692,-0.2064,-0.3545,-0.4683,75
28.664,553,-2.5344,-2.7852,-12.4985,0.031,-0.6242,0.0352,76,28.117,542,0.0414,1.2697,-12.888,-0.2706,0.7197,-0.201,86,28.346,547,14.0783,2.9173,-17.259,0.5259,-0.8126,-0.962,75
28.716,554,-2.3817,-0.6023,-12.0949,-0.1991,-1.1204,-0.4586,76,28.168,543,-0.3337,0.6527,-11.7271,0.1145,1.2044,0.2584,86,28.398,548,12.315,0.778,-14.9745,1.0604,-1.2409,-0.82,75
28.767,555,-1.9916,0.7555,-12.4857,-0.5797,-1.4868,-0.9381,76,28.22,544,-0.6778,2.019,-11.0713,-0.0589,1.5581,0.6113,86,28.45,549,9.7208,2.6568,-13.0577,0.2052,-1.5791,-1.2714,75
28.819,556,-1.6418,-2.8951,-17.0326,-1.0682,-1.7544,-0.9207,76,28.272,545,-1.2788,6.0845,-12.003,-0.723,1.6158,0.4593,86,28.502,550,6.9126,4.2566,-11.6264,-0.312,-1.2296,-1.494,75
28.871,557,-0.8113,-7.3107,-20.4277,-0.3315,-0.9596,-0.3995,76,28.324,546,-2.2426,9.7676,-13.2944,0.1232,1.4108,0.4689,86,28.554,551,5.731,2.56,-12.5808,-0.2148,-1.5708,-1.7482,75
28.923,558,0.6169,-10.5334,-19.7097,0.2279,-0.2067,0.0142,76,28.376,547,-3.2701,12.4556,-11.5355,-0.5184,0.6793,0.3592,86,28.605,552,4.4601,7.2203,-6.598,0.5198,-1.4711,-1.3401,75
28.975,559,-1.4518,-7.1508,-18.6424,0.8407,-0.1144,-0.1392,76,28.427,548,-5.4008,10.7164,-12.452,-0.2814,-0.1578,-0.1136,86,28.657,553,1.1409,1.8619,-8.8065,0.0781,-1.0827,-0.3131,75
29.026,560,-0.2953,-2.6563,-15.0705,0.6488,0.1357,-0.2135,76,28.479,549,-2.8114,7.1335,-11.9776,-0.1043,-0.5999,-0.4011,86,28.709,554,4.2333,2.5898,-10.2607,-0.2538,-0.4671,-0.3967,75
29.078,561,-1.3235,1.3454,-12.6474,0.5671,0.3298,-0.2925,76,28.531,550,-1.4736,2.4474,-12.165,-0.1319,-0.4309,-0.3247,86,28.76,555,4.8078,-0.2479,-15.4936,-0.6497,-0.6764,-0.3289,75
29.13,562,-2.1522,1.7887,-13.0197,-0.2635,0.3854,-0.3282,76,28.583,551,-0.0596,1.4904,-11.5969,0.2722,-0.0442,0.05,86,28.812,556,2.8077,-4.2967,-16.8387,-1.1494,0.1847,0.2704,75
29.182,563,-2.1393,1.1697,-13.3571,-0.7787,0.0701,-0.5761,76,28.635,552,0.9919,2.2092,-11.0191,0.5171,0.5232,0.1548,86,28.864,557,4.2985,-8.373,-16.5878,-1.2303,-0.1622,0.8751,75
29.233,564,-1.6018,-1.2884,-13.1889,-0.7772,-0.4416,-0.6931,76,28.687,553,0.5763,3.5383,-11.256,0.5841,1.0583,0.0534,86,28.916,558,5.6408,-3.9114,-15.6358,-0.2214,-0.7918,0.1223,75
29.285,565,-0.9622,-5.4638,-15.3037,-0.4257,-0.9916,-0.6186,76,28.738,554,-0.1903,7.6785,-13.0457,0.1227,1.2814,-0.0728,86,28.968,559,2.5198,-1.9404,-12.6799,0.2726,-0.9379,0.767,75
29.337,566,0.9622,-9.1854,-19.1658,-0.2868,-0.9109,-0.9943,76,28.79,555,-2.6216,10.931,-17.4612,0.7613,1.6143,0.0542,86,29.019,560,2.0492,-1.6056,-13.869,0.8755,-0.3393,0.8569,75
29.389,567,0.7839,-11.9016,-18.8764,-0.0877,-0.7274,-1.0875,76,28.842,556,-1.8077,13.3048,-14.1601,-0.1244,1.3361,-0.1691,86,29.071,561,6.7613,4.1801,-10.4051,1.1983,-0.5831,0.9652,75
29.441,568,-0.1109,-8.5862,-17.1498,0.2594,-0.8371,-1.0539,76,28.894,557,-4.3436,9.46,-14.1895,-0.3853,1.4051,-0.3775,86,29.123,562,7.6078,1.8393,-13.4106,0.2276,-1.099,1.3822,75
29.492,569,0.4041,-2.9931,-14.9078,0.3375,-0.0956,-0.1702,76,28.945,558,-4.5335,6.4405,-12.8455,-0.1721,0.4072,-0.2359,86,29.175,563,5.6193,-1.9626,-12.2819,0.5342,-0.4116,0.7296,75
29.544,570,0.9421,-1.3379,-12.9284,-0.4302,0.4986,0.4892,76,28.997,559,-4.3703,2.4638,-11.5569,-0.3986,-0.3755,0.2094,86,29.227,564,9.3669,2.5468,-15.4952,0.7215,0.2446,0.0695,75
29.596,571,-0.1393,-1.8511,-12.5342,-0.7517,1.0463,0.7288,76,29.049,560,-3.9868,1.2162,-11.9719,-0.4011,-0.9467,0.8086,86,29.278,565,7.193,2.0747,-14.0397,1.2031,-0.1591,-0.6233,75
29.648,572,-0.5774,-2.5222,-11.8945,-0.6329,1.1289,0.7346,76,29.101,561,-3.296,1.3146,-12.1535,-0.1358,-1.3578,0.7742,86,29.33,566,7.5448,4.4252,-12.5532,0.2029,-0.4834,-1.0558,75
29.7,573,-0.4109,-3.2855,-11.5627,-0.017,1.1961,0.9353,76,29.153,562,-2.6919,1.918,-12.311,-0.0912,-1.3993,0.3319,86,29.382,567,7.782,2.9028,-11.5277,-0.5272,0.1337,-1.4446,75
29.751,574,-0.4792,-3.6498,-11.9788,0.6406,1.0899,1.2522,76,29.205,563,-1.5285,4.8572,-13.151,-0.5602,-1.345,-0.4341,86,29.434,568,7.6297,1.8499,-13.9297,-1.06,0.7759,-1.6817,75
29.803,575,-3.1478,-7.8615,-16.7391,0.7598,0.889,1.0488,76,29.257,564,0.5817,8.7533,-12.8328,-0.9279,-0.6226,-0.7335,86,29.486,569,6.4522,-3.7038,-16.0483,-1.1506,1.2447,-1.0092,75
29.855,576,-2.1365,-10.9354,-20.2135,0.2621,-0.0122,0.6377,76,29.308,565,0.5238,11.7154,-13.3609,-0.0055,-0.2365,-0.6496,86,29.537,570,3.9829,-5.2761,-17.4886,-0.1632,0.235,-1.3152,75
