right_hand_timestamp,right_hand_index,right_hand_accel_x,right_hand_accel_y,right_hand_accel_z,right_hand_gyro_x,right_hand_gyro_y,right_hand_gyro_z,right_hand_battery_percentage,left_hand_timestamp,left_hand_index,left_hand_accel_x,left_hand_accel_y,left_hand_accel_z,left_hand_gyro_x,left_hand_gyro_y,left_hand_gyro_z,left_hand_battery_percentage,right_leg_timestamp,right_leg_index,right_leg_accel_x,right_leg_accel_y,right_leg_accel_z,right_leg_gyro_x,right_leg_gyro_y,right_leg_gyro_z,right_leg_battery_percentage,left_leg_timestamp,left_leg_index,left_leg_accel_x,left_leg_accel_y,left_leg_accel_z,left_leg_gyro_x,left_leg_gyro_y,left_leg_gyro_z,left_leg_battery_percentage
0.54,10,3.6002,0.1275,-7.6881,-0.5958,0.1378,-0.1488,87,0.02,0,1.6938,1.6903,-9.161,0.095,0.167,0.2205,88,0.166,3,11.5857,-5.816,-13.8574,-0.1602,0.3728,0.0251,92,0.091,1,7.0874,4.3038,-9.3278,0.7965,-1.2278,0.216,63
0.592,11,3.304,-0.619,-8.3104,-1.0929,0.0035,-0.5452,87,0.072,1,1.0721,2.2536,-9.6531,0.5079,0.0356,0.0969,88,0.218,4,8.9598,-6.3669,-10.7795,0.5596,0.5406,0.5863,92,0.143,2,10.29,-1.8055,-14.789,0.4227,-0.5642,0.1177,63
0.643,12,1.9061,-1.5912,-8.4609,-0.5511,-0.037,-0.6859,87,0.124,2,0.857,2.5639,-9.523,0.3916,0.0213,-0.2245,88,0.27,5,6.4254,-2.8271,-10.8866,-0.2668,1.0023,1.0978,92,0.194,3,12.6274,0.2699,-14.535,0.5082,-1.0785,-0.576,63
0.695,13,1.0292,-2.4349,-7.691,0.2722,-0.2166,-0.6913,87,0.176,3,1.8584,1.2792,-9.4921,-0.2237,-0.0934,-0.4581,88,0.321,6,5.0325,0.3916,-10.7104,-0.87,1.3936,1.3612,92,0.246,4,14.012,-1.7974,-16.4004,0.6239,-0.8687,-0.3211,63
0.747,14,3.5908,-1.6276,-7.5082,0.873,-0.4222,-0.381,87,0.227,4,6.2762,0.749,-10.0044,-0.8433,-0.7408,-0.5961,88,0.373,7,2.1639,3.121,-15.8218,-0.5894,0.4181,1.0817,92,0.298,5,12.0837,-0.5849,-14.7227,1.1284,0.0509,0.1021,63
0.799,15,7.6779,1.7128,-11.948,0.4278,0.0204,0.1783,87,0.279,5,9.5006,-0.7601,-12.2309,-0.8506,-0.2418,-0.32,88,0.425,8,6.5737,-1.325,-12.8892,-0.3334,-0.2636,0.8264,92,0.35,6,9.4928,3.9622,-15.5169,0.1465,-0.5704,0.1797,63
0.851,16,10.6608,1.2655,-10.4496,-0.3651,0.6203,0.7848,87,0.331,6,9.1606,-0.3574,-11.7803,0.051,0.4906,-0.1222,88,0.477,9,7.577,-1.5984,-17.2176,-0.8838,-0.4264,0.8083,92,0.402,7,10.4842,-0.1231,-15.4391,-0.5701,-1.0831,-0.0703,63
0.902,17,5.0286,2.2068,-9.9005,-0.5855,1.1326,1.0722,87,0.383,7,6.5595,0.5817,-10.509,0.1667,-0.1006,-0.0929,88,0.529,10,10.7958,-2.4513,-14.4035,-0.5983,-0.0903,0.5089,92,0.453,8,5.0777,-5.3867,-13.4586,-1.0932,-0.1055,-0.1495,63
0.954,18,3.0499,0.5939,-9.4516,-0.2931,0.3931,0.6249,87,0.435,8,4.2463,0.358,-10.0943,0.1477,0.0305,0.0304,88,0.58,11,10.0558,0.5642,-14.2656,0.1544,0.2037,0.3573,92,0.505,9,4.1264,-6.805,-11.8389,-0.2081,0.4702,-0.2294,63
1.006,19,2.6584,0.6152,-9.5844,0.2221,0.4721,0.2625,87,0.486,9,2.0969,0.253,-8.8463,0.3579,-0.0408,0.1386,88,0.632,12,5.851,-1.1847,-16.5736,0.7892,-0.5025,-0.4018,92,0.557,10,3.4647,-8.924,-12.7853,0.5228,0.8836,-0.5999,63
1.058,20,1.5101,1.3342,-9.7951,0.4025,0.5522,0.1493,87,0.538,10,0.3418,0.3133,-8.5575,0.4766,0.123,0.3207,88,0.684,13,4.1567,2.4167,-14.0882,0.6788,-0.5554,-0.6233,92,0.609,11,7.646,-11.8099,-6.7235,-0.1356,0.992,0.2425,63
1.11,21,0.9845,1.2491,-9.2942,0.0684,0.3898,-0.0081,87,0.59,11,0.1907,0.573,-8.1893,0.5629,0.1106,0.5061,88,0.736,14,3.6665,0.5269,-11.9135,-0.1798,-0.4826,-0.7962,92,0.661,12,10.6977,-13.1305,-12.8093,0.0971,1.1695,0.2258,63
1.161,22,2.758,0.2875,-8.7843,0.1401,0.1898,-0.1385,87,0.642,12,5.0519,2.1155,-9.5261,0.6233,-0.592,0.6207,88,0.788,15,2.5267,4.2768,-16.6999,-0.8065,-0.7329,-0.855,92,0.712,13,9.2735,-8.3078,-14.0348,0.2548,0.8779,0.3699,63
1.213,23,7.07,0.2728,-9.4308,-0.3282,-0.4781,-0.1845,87,0.694,13,8.607,3.5323,-12.9547,-0.2251,-0.748,0.7126,88,0.839,16,7.1098,8.4733,-16.9332,-1.0751,-1.0029,-0.6596,92,0.764,14,7.9284,-8.8729,-14.8634,0.1221,-0.0083,0.0744,63
1.265,24,10.217,-1.3817,-8.9796,-0.7639,-0.5997,-0.3731,87,0.746,14,10.143,0.3259,-12.6171,-0.8443,-0.0275,0.1832,88,0.891,17,5.3627,4.2592,-18.4601,-0.886,-0.7322,-0.6284,92,0.816,15,4.3746,-8.3916,-12.8183,0.7638,0.6516,0.4522,63
1.317,25,11.5538,-1.1762,-7.0852,-0.9532,-0.4299,-0.3562,87,0.797,15,6.9988,-3.7251,-12.0512,-0.0904,0.6586,0.0127,88,0.943,18,9.1797,2.6372,-18.1495,-0.6452,-0.1997,-0.4413,92,0.868,16,5.0271,-4.8681,-12.8331,1.2321,1.1125,0.5907,63
1.369,26,3.6843,-2.6978,-7.2443,-0.2789,-0.5197,0.1847,87,0.849,16,2.6261,-2.5824,-10.7114,-0.2039,0.1293,0.0891,88,0.995,19,11.4912,-0.8961,-14.3217,-0.9,0.5326,-0.1365,92,0.919,17,2.8794,-2.3384,-15.0278,1.0364,1.0738,0.6717,63
1.42,27,2.1281,-1.3596,-7.4863,0.2875,-0.1963,0.199,87,0.901,17,2.6707,-1.2392,-10.5719,-0.3356,0.0697,0.2736,88,1.046,20,7.2368,-4.3404,-18.4575,-0.4849,0.3738,-0.0061,92,0.971,18,1.5654,0.1088,-14.1584,0.9913,0.4554,0.5216,63
1.472,28,2.1492,-1.7527,-8.0817,0.3925,-0.0442,-0.0904,87,0.953,18,1.9791,-0.6424,-10.8546,-0.5882,-0.0145,0.3359,88,1.098,21,7.047,-3.9718,-16.5477,0.141,-0.4006,0.4591,92,1.023,19,6.2598,-1.3767,-18.3146,0.2731,-0.3205,0.7487,63
1.524,29,0.9594,-1.5089,-8.3679,0.6515,0.213,-0.1812,87,1.005,19,0.4656,-0.6614,-11.23,-0.3914,0.1125,0.1962,88,1.15,22,4.4474,-2.1639,-14.074,-0.4086,-0.4671,0.8266,92,1.075,20,3.1447,-0.7232,-20.737,0.0608,-0.6744,0.6323,63
1.576,30,0.671,-0.7797,-8.3636,0.7087,0.2899,-0.1589,87,1.057,20,0.2752,0.4359,-10.4216,-0.1036,0.1853,-0.1035,88,1.202,23,4.4313,-2.2283,-10.5119,-0.6022,-0.2236,1.0486,92,1.127,21,7.4124,-3.3787,-19.2262,-0.1847,-0.1241,0.748,63
1.627,31,1.6233,-1.0707,-8.577,0.6617,0.2988,-0.1039,87,1.108,21,5.1207,0.9351,-9.5739,0.5821,-0.5312,-0.4179,88,1.254,24,3.6197,1.5011,-9.3716,0.1812,-0.0011,0.8337,92,1.178,22,8.2112,-1.7311,-17.8383,0.4413,0.241,0.3313,63
1.679,32,6.2419,-1.151,-8.8863,1.1276,-0.4513,0.2931,87,1.16,22,8.6572,1.193,-12.5704,1.0966,-0.3376,-0.5788,88,1.306,25,7.9075,1.3042,-11.0163,0.0151,-0.0081,0.6523,92,1.23,23,4.8608,4.0287,-19.6126,0.3848,0.1037,-0.3732,63
1.731,33,9.6127,-1.2176,-8.759,0.9515,-0.3656,0.5281,87,1.212,23,11.2383,1.1076,-11.5853,0.7907,-0.0975,-0.6248,88,1.357,26,11.037,0.4489,-13.9526,0.0655,-0.2739,0.4523,92,1.282,24,3.3491,1.7135,-17.0267,-0.2269,0.5433,-0.9104,63
1.783,34,7.0055,0.874,-7.9687,1.1332,0.3937,0.8355,87,1.264,24,7.0231,0.3858,-9.2216,0.8595,0.5004,-0.4546,88,1.409,27,13.321,1.2197,-12.1286,-0.4462,0.3657,0.3924,92,1.333,25,1.844,0.6122,-15.9106,0.3577,0.6305,-1.3359,63
1.835,35,1.5198,2.1353,-9.1775,0.3458,0.0027,0.5703,87,1.315,25,4.2255,0.2849,-8.0894,0.5838,0.2394,-0.0916,88,1.461,28,11.6111,0.9297,-14.168,0.1478,0.4813,0.0707,92,1.385,26,0.5307,-1.7142,-15.3765,-0.2915,0.5052,-1.1773,63
1.886,36,1.4155,1.1708,-8.8901,-0.4049,0.1315,0.069,87,1.367,26,2.3894,0.346,-8.0691,0.1393,0.1381,0.1816,88,1.513,29,8.1089,0.8114,-15.3326,0.7844,0.5021,-0.5627,92,1.437,27,0.3313,-3.8018,-15.9787,-0.2763,0.1208,-0.9917,63
1.938,37,1.4265,0.1463,-8.5792,-0.9447,0.1694,-0.2596,87,1.419,27,1.2749,0.7788,-8.3564,0.0431,0.2137,0.3879,88,1.565,30,6.2337,1.5177,-13.2172,0.0855,0.4846,-0.699,92,1.489,28,5.3591,-3.0547,-16.1197,-0.8787,0.4377,-0.0544,63
1.99,38,0.627,0.8946,-8.6665,-0.8586,0.1175,-0.2854,87,1.471,28,0.7387,0.903,-9.0227,0.1034,0.2672,0.4168,88,1.616,31,4.5964,0.2462,-11.5917,-0.6128,0.8131,-0.6967,92,1.541,29,5.3551,-3.6223,-19.7461,-0.1765,0.5571,0.0715,63
2.042,39,0.9422,0.7298,-8.4546,-0.5825,0.0398,-0.3836,87,1.523,29,0.6006,0.8537,-9.1268,0.3631,0.2606,0.186,88,1.668,32,3.4683,-1.0853,-11.6192,-0.7744,1.0702,-0.4629,92,1.592,30,9.0257,-6.475,-19.2587,-0.1603,0.9368,0.3432,63
2.093,40,2.5609,0.5898,-7.8559,0.0049,0.0224,-0.5816,87,1.575,30,5.358,0.1026,-11.7345,0.608,-0.4825,-0.3018,88,1.72,33,3.7641,1.3733,-16.4851,-0.1266,0.1552,-0.7148,92,1.644,31,5.8162,-3.5082,-18.2814,0.1114,1.1641,0.7476,63
2.145,41,6.9262,0.4246,-7.4514,-0.0785,-0.4713,-0.3935,87,1.626,31,8.8303,0.9639,-13.2192,0.8228,-0.524,-0.1668,88,1.772,34,5.6984,0.611,-19.585,-0.4301,-0.2223,-0.342,92,1.696,32,4.221,-2.4434,-19.3856,-0.0405,0.2292,0.903,63
2.197,42,10.1121,-1.0433,-6.3055,-0.3145,-0.4244,-0.3979,87,1.678,32,11.3646,0.7797,-11.3332,0.5906,-0.2516,-0.0393,88,1.824,35,7.8002,-1.3018,-20.0369,-0.4022,-0.1937,-0.3351,92,1.748,33,3.0549,-1.3024,-16.3306,0.1516,-0.1233,0.8131,63
2.249,43,6.8745,-1.8268,-6.4986,-0.3246,0.3639,-0.0169,87,1.73,33,5.524,1.1055,-9.6606,1.0327,0.4925,-0.1773,88,1.875,36,10.9587,-0.6307,-18.54,-0.1086,-0.0641,-0.263,92,1.8,34,2.4847,-0.6191,-13.9041,-0.118,-0.4062,0.7549,63
2.301,44,3.4247,-0.3034,-6.5407,-0.8534,-0.3099,0.0573,87,1.782,34,2.4917,1.6373,-8.4499,0.313,-0.0586,-0.0857,88,1.927,37,8.9198,-3.9687,-16.521,0.1208,0.6316,-0.1225,92,1.851,35,0.7904,-1.7931,-13.4107,0.588,-0.6596,0.6172,63
2.353,45,1.9362,-0.404,-7.5544,-0.9416,-0.1975,-0.1038,87,1.834,35,1.8549,1.4979,-8.9621,-0.1567,-0.2684,0.1908,88,1.979,38,7.4717,-6.5168,-17.9491,0.7647,0.1561,0.039,92,1.903,36,-1.7481,3.8317,-17.7689,0.8769,-0.71,0.4224,63
2.404,46,1.6811,-0.8138,-8.0574,-0.3295,0.0037,-0.1151,87,1.885,36,1.1677,1.7177,-9.3216,0.1631,-0.0171,0.3739,88,2.031,39,5.1867,-2.9688,-14.7285,0.7994,0.6248,0.6326,92,1.955,37,1.9912,-2.5003,-16.862,0.9922,-0.8448,0.4282,63
2.456,47,0.8207,0.3412,-8.9149,0.1699,0.0449,-0.0318,87,1.937,37,0.1213,2.2783,-9.4023,0.441,0.0835,0.4231,88,2.083,40,4.6731,-1.3414,-13.9627,-0.0918,1.065,1.0367,92,2.007,38,3.5449,1.0081,-17.8394,0.9462,-0.5121,0.3123,63
2.508,48,-0.2046,1.411,-10.0867,-0.1564,-0.0873,-0.1654,87,1.989,38,0.9071,2.5186,-8.0136,-0.3096,-0.2857,0.1734,88,2.134,41,3.0299,1.18,-13.2284,-0.7422,1.1411,1.1988,92,2.059,39,7.7045,-2.0385,-18.0924,0.8993,-0.4533,0.5347,63
2.56,49,4.609,0.5713,-9.8879,-0.1908,-0.7316,-0.6745,87,2.041,39,5.5819,-1.9271,-12.8918,-0.906,-0.8812,-0.4594,88,2.186,42,7.4771,0.5027,-7.0706,-0.1477,0.1612,0.4282,92,2.11,40,5.3747,3.8044,-21.1858,1.331,-0.2848,-0.1963,63
2.612,50,8.4209,0.2517,-11.4446,0.0648,-0.4181,-0.444,87,2.093,40,8.9938,-3.7399,-15.3229,0.001,-0.791,-0.3256,88,2.238,43,10.7229,4.7347,-10.1917,-0.6521,-0.4435,0.2664,92,2.162,41,3.9734,5.1887,-20.8904,0.2944,-0.8746,-0.1623,63
2.663,51,10.982,0.5497,-8.6603,-0.4491,0.2575,0.0162,87,2.144,41,6.057,-0.6636,-14.1026,-0.0159,-0.1421,-0.0807,88,2.29,44,12.4705,0.4342,-13.6732,-0.8874,-0.2961,0.4612,92,2.214,42,5.2206,0.4799,-16.718,-0.4622,-0.6975,-0.2897,63
2.715,52,5.1187,0.362,-8.4061,-0.954,0.8704,0.084,87,2.196,42,4.2326,0.4458,-11.9967,-0.1929,-0.006,-0.1631,88,2.341,45,13.7546,0.7121,-11.7457,-0.7013,0.4622,0.3174,92,2.266,43,1.8873,-0.708,-13.0073,-0.342,-0.3,-0.7166,63
2.767,53,1.6033,-0.5411,-8.7992,-0.7715,0.2371,-0.0705,87,2.248,43,3.1229,0.4735,-10.7477,-0.5721,0.0494,-0.2035,88,2.393,46,12.5373,1.4633,-11.4737,0.1647,0.5076,0.0216,92,2.317,44,2.8745,-1.7824,-11.1803,0.1606,0.444,-0.9928,63
2.819,54,1.5864,-1.2631,-9.0181,-0.2306,0.1619,-0.3977,87,2.3,44,1.7406,-0.4015,-10.3006,-0.8622,0.3735,-0.088,88,2.445,47,9.6472,1.4069,-13.0652,0.7967,0.1873,-0.5477,92,2.369,45,2.8904,-6.2156,-12.2033,0.7919,0.5256,-1.0393,63
2.871,55,1.3466,-1.5291,-9.5699,0.2855,0.2294,-0.2528,87,2.352,45,0.3544,-0.6757,-9.8078,-0.8315,0.4793,0.0311,88,2.497,48,6.4814,2.445,-12.3622,1.0019,-0.1114,-0.7771,92,2.421,46,2.8476,-5.7839,-16.8877,0.7635,0.731,-0.0782,63
2.922,56,1.1692,0.5794,-9.9823,0.8828,0.4061,0.0744,87,2.404,46,0.0069,-0.8845,-8.3487,-0.6739,0.5079,0.1898,88,2.549,49,4.9585,2.1477,-11.7455,0.1441,-0.4669,-0.8048,92,2.473,47,7.1956,-9.5182,-16.1505,0.7008,1.0025,0.2913,63
2.974,57,2.4105,1.1492,-10.4053,1.3187,0.0081,-0.1159,87,2.455,47,4.9249,-0.9903,-12.0322,0.1753,-0.302,-0.4023,88,2.601,50,2.8752,5.4959,-16.5773,-0.57,-0.723,-0.7362,92,2.525,48,7.0864,-4.8564,-15.7113,0.8758,0.8804,0.2532,63
3.026,58,6.8164,3.1972,-12.9544,1.6104,0.3794,-0.3957,87,2.507,48,8.5143,-0.0981,-12.699,0.7997,-0.0158,-0.3665,88,2.652,51,7.3642,9.3631,-13.2533,-1.0204,-1.1101,-1.0275,92,2.576,49,5.0348,-6.1062,-14.4658,0.3135,0.7599,0.5371,63
3.078,59,10.032,1.9881,-10.7672,1.1146,0.248,-0.2675,87,2.559,49,10.4145,0.2418,-11.6502,-0.0964,0.4128,0.1891,88,2.704,52,2.839,9.9858,-17.3808,-0.8826,-0.7311,-0.5572,92,2.628,50,3.3937,-5.4547,-13.4921,0.9035,0.7501,0.6349,63
3.13,60,8.0924,2.6847,-9.2092,1.1793,0.6613,-0.2485,87,2.611,50,6.4463,-0.5895,-10.7953,-0.4549,0.9801,0.2439,88,2.756,53,7.3377,7.8897,-16.9035,-1.0515,0.0514,-0.2072,92,2.68,51,3.3773,-3.021,-12.6334,1.3341,0.8813,0.4542,63
3.181,61,2.8858,2.2965,-8.156,0.5229,0.4483,-0.1896,87,2.663,51,1.9685,-0.852,-10.6571,-0.1527,0.6765,0.0653,88,2.808,54,9.1232,2.4298,-15.1377,-0.8373,0.7159,0.1046,92,2.732,52,2.3732,-2.0138,-12.9495,0.8139,0.963,0.5004,63
3.233,62,1.2437,2.096,-7.7401,0.0998,0.45,-0.235,87,2.714,52,1.0658,-0.777,-10.9051,0.4889,0.3617,0.0079,88,2.86,55,6.3588,-0.7629,-16.4699,-1.2863,0.0579,0.072,92,2.783,53,0.1229,-0.1541,-17.4323,0.9807,0.6028,0.4312,63
3.285,63,1.1032,1.323,-7.7919,-0.4826,0.573,-0.3478,87,2.766,53,0.5533,-0.3668,-10.7152,0.8955,0.379,0.0649,88,2.911,56,6.5294,-0.4774,-16.7212,-0.2623,-0.6311,-0.0393,92,2.835,54,-1.391,-5.4093,-20.7041,0.0387,1.107,0.7617,63
3.336,64,0.8837,0.7763,-8.0384,-0.8172,0.7594,-0.3354,87,2.818,54,0.6348,-0.0644,-10.2948,1.1108,0.4962,0.145,88,2.963,57,4.7976,2.1839,-10.7795,0.0432,-0.9194,0.0827,92,2.887,55,2.9992,-8.2885,-21.406,0.1035,0.7443,0.7384,63
3.388,65,0.6746,0.6596,-7.6287,-1.1249,1.0624,-0.3273,87,2.87,55,0.1994,-1.055,-9.5382,1.2897,0.6827,0.2128,88,3.015,58,4.5769,1.0354,-7.6496,-0.0466,-0.4253,0.1404,92,2.939,56,7.3063,-7.93,-17.3639,-0.3418,0.988,1.0657,63
3.44,66,3.5562,-1.9111,-8.1218,-1.4983,0.3787,-0.5224,87,2.922,56,5.0654,0.9397,-12.2554,1.5269,-0.1744,0.3904,88,3.067,59,2.231,6.1076,-13.5879,-0.5771,-0.7917,0.3386,92,2.991,57,6.1214,-1.7097,-20.6541,0.2481,1.3905,0.1243,63
3.492,67,7.6526,-3.1252,-11.2657,-1.1836,0.9588,-0.2812,87,2.973,57,8.6167,1.9432,-12.3276,1.0229,-0.6104,0.8106,88,3.119,60,6.894,-0.2767,-12.7357,-1.0583,-1.251,0.5989,92,3.042,58,7.3512,-0.1148,-16.897,-0.496,0.35,-0.5807,63
3.544,68,10.6423,0.9781,-12.4453,-0.1895,0.6476,0.4714,87,3.025,58,8.949,2.8817,-9.7165,0.0666,-0.5854,0.354,88,3.17,61,10.2973,-2.5305,-15.6521,-0.9639,-0.8884,0.367,92,3.094,59,5.018,-3.5875,-15.955,-0.564,0.3014,-1.0079,63
3.595,69,4.7774,6.0991,-10.0416,0.0076,0.2922,1.0207,87,3.077,59,5.4423,-1.2432,-8.5253,-0.1187,-0.5905,0.2769,88,3.222,62,11.1641,-2.4664,-13.2346,-1.3787,-0.0319,0.4536,92,3.146,60,2.1055,-2.8684,-13.3817,-0.2914,0.8557,-1.0405,63
3.647,70,3.0121,5.2687,-10.2842,-0.2709,-0.4547,0.4898,87,3.129,60,4.2326,-0.586,-7.1419,-0.0553,-0.463,0.3606,88,3.274,63,9.195,-2.4581,-16.0176,-0.3625,0.0722,0.0678,92,3.198,61,0.7348,-3.1914,-14.328,-0.8898,0.4598,-0.7311,63
3.699,71,2.5647,5.2023,-8.576,0.0074,-0.1704,0.3096,87,3.181,61,3.2561,-0.5655,-6.5315,-0.5782,-0.1314,0.4554,88,3.326,64,8.7214,-2.0592,-13.0271,-0.3434,-0.0914,-0.1032,92,3.249,62,-1.1503,-1.7455,-18.4384,-1.1925,0.3259,-0.2688,63
3.751,72,2.2382,5.4346,-7.8107,-0.0976,-0.041,0.1176,87,3.232,62,2.333,-1.104,-6.9037,-0.5503,0.4075,0.4749,88,3.377,65,5.7431,0.6464,-11.1336,-0.9014,0.4482,-0.171,92,3.301,63,4.2777,-3.4132,-20.6721,-1.4261,-0.0911,0.4034,63
3.803,73,0.693,3.9644,-7.858,-0.6831,0.0316,-0.1593,87,3.284,63,1.5806,-0.8231,-7.9605,-0.014,0.9624,0.3675,88,3.429,66,4.8579,-1.572,-11.252,-0.8644,0.5945,-0.172,92,3.353,64,-1.3504,-2.4207,-23.0686,-0.7695,0.4466,0.4214,63
3.854,74,1.3671,2.1679,-7.9924,-0.7078,0.0711,-0.6326,87,3.336,64,4.932,0.2154,-10.3988,0.3209,0.0861,0.1105,88,3.481,67,2.5607,-0.3168,-12.759,0.0457,0.594,-0.2821,92,3.405,65,0.1205,-3.4411,-17.8679,0.113,1.0109,0.7129,63
3.906,75,6.0549,2.4848,-8.8625,-1.0558,-0.6175,-0.3261,87,3.388,65,8.5195,3.2537,-13.1016,0.8953,0.742,-0.297,88,3.533,68,7.1347,-5.4682,-8.3078,0.3719,-0.0245,-0.1833,92,3.457,66,-1.2134,-1.3442,-21.0219,0.2451,0.1725,1.1222,63
3.958,76,9.4762,1.2234,-8.939,-1.3689,-0.7028,0.1704,87,3.44,66,11.1378,1.3849,-12.3151,1.1507,0.8352,-0.9017,88,3.585,69,9.6906,-6.0567,-12.7964,0.2846,-0.0866,-0.1716,92,3.508,67,0.6878,-3.5352,-19.4953,0.6852,-0.4937,1.3315,63
4.01,77,8.9552,0.6417,-7.7015,-0.3262,-0.3892,0.0913,87,3.491,67,8.3231,1.5925,-9.274,0.1848,1.2234,-0.7162,88,3.636,70,12.3384,-4.1449,-14.696,0.2823,0.3653,-0.0698,92,3.56,68,1.1794,-1.6214,-15.4452,0.5598,-0.5276,1.3382,63
4.061,78,3.0085,3.1229,-7.305,-0.0991,-0.0552,0.2386,87,3.543,68,4.9517,-2.2643,-6.8864,-0.5451,0.2264,-0.726,88,3.688,71,12.6038,-5.0545,-13.0068,-0.1158,0.945,-0.0214,92,3.612,69,-0.0037,-1.2364,-13.4195,0.7236,-0.4033,1.1025,63
4.113,79,1.9387,2.7585,-7.5308,-0.7497,-0.0662,-0.0738,87,3.595,69,3.137,-1.726,-6.8067,-0.3386,0.1409,-0.5181,88,3.74,72,9.8188,-5.9777,-15.195,-0.169,1.1322,0.2183,92,3.664,70,1.4869,0.4707,-13.037,1.0153,-0.6947,1.0241,63
4.165,80,1.3657,1.5371,-7.7272,-1.1882,0.0653,-0.208,87,3.647,70,1.7035,-0.8773,-6.6196,-0.2031,0.0548,-0.0957,88,3.792,73,8.4194,-6.878,-13.2844,0.226,1.0709,0.7262,92,3.716,71,6.2025,5.6286,-17.4962,0.0639,0.0663,0.7398,63
4.217,81,1.2166,0.8875,-7.5438,-0.9021,0.1631,-0.3238,87,3.699,71,0.0112,0.131,-6.9448,-0.4127,0.2795,0.1683,88,3.844,74,6.0253,-1.1352,-10.7732,-0.2848,1.3861,1.1216,92,3.767,72,4.3057,3.8261,-18.9432,0.1273,0.3038,0.6703,63
4.269,82,0.3962,0.2816,-7.5858,-0.1862,0.1878,-0.3539,87,3.751,72,1.3646,0.6873,-7.3875,-0.796,0.1883,0.1453,88,3.895,75,4.2214,2.8457,-10.4785,-0.8831,1.339,1.2731,92,3.819,73,8.2598,2.641,-19.8777,0.1196,0.2092,0.3583,63
4.32,83,3.7294,-0.6662,-7.1788,0.5385,-0.1057,-0.4055,87,3.802,73,5.9158,0.6667,-10.5382,-0.9389,-0.5352,-0.3912,88,3.947,76,1.4255,2.1368,-15.6525,-0.3426,0.3307,1.0268,92,3.871,74,4.915,7.2196,-22.4888,0.4267,0.344,-0.4052,63
4.372,84,7.779,0.0861,-11.1577,0.515,0.1996,-0.4515,87,3.854,74,9.2374,0.9181,-11.8934,-0.1096,-0.1379,-0.7893,88,3.999,77,6.3061,-1.3823,-12.1971,0.0369,-0.3456,0.8347,92,3.923,75,2.3641,8.474,-23.0336,-0.3656,-0.3538,-0.5337,63
4.424,85,10.7346,0.2842,-10.0802,-0.1919,0.3832,0.2128,87,3.906,75,10.0975,1.3134,-10.0375,-0.1174,0.4823,-0.7923,88,4.051,78,4.7493,-2.9153,-16.6275,-0.6276,-0.3432,0.7778,92,3.974,76,5.2061,3.606,-17.7342,-0.9439,-0.7558,-0.4347,63
4.476,86,7.4771,0.6348,-10.202,0.0361,0.2852,0.8313,87,3.958,76,4.9623,-0.7229,-9.2231,-0.7504,0.3506,-0.7457,88,4.103,79,8.732,-0.9389,-13.7949,-0.4157,0.1754,0.4135,92,4.026,77,2.5073,0.394,-14.557,-0.6923,-0.3215,-0.7571,63
4.528,87,0.6167,2.9244,-10.7236,0.7007,0.2892,0.7028,87,4.01,77,2.5886,-2.053,-8.7471,-0.7472,0.0145,-0.3191,88,4.154,80,8.4962,-0.3104,-12.4006,0.1374,0.3181,0.3129,92,4.078,78,4.4666,-3.1756,-14.2653,-0.9345,0.0202,-0.6843,63
4.579,88,-0.184,3.251,-9.216,-0.1,-0.0948,0.2244,87,4.061,78,1.6517,-1.8315,-8.7634,0.0968,-0.1409,0.1905,88,4.206,81,6.0752,0.1113,-15.526,0.5663,-0.2907,-0.255,92,4.13,79,0.1602,-7.4815,-12.1121,-0.0074,0.5467,-0.437,63
4.631,89,0.0873,2.5666,-8.5284,-0.7503,-0.3846,-0.193,87,4.113,79,0.7506,-1.0558,-8.3893,0.7424,-0.0597,0.4958,88,4.258,82,6.3817,1.4293,-12.3008,0.5312,-0.5138,-0.6999,92,4.181,80,2.5274,-0.9654,-16.8211,-0.6825,0.7468,0.3614,63
4.683,90,0.2656,2.1882,-8.3637,-0.6009,-0.3802,-0.5774,87,4.165,80,0.42,0.2963,-8.0578,1.204,0.0667,0.7308,88,4.31,83,3.9693,0.196,-9.7291,-0.1643,-0.4898,-0.8931,92,4.233,81,6.9619,-3.2836,-17.1278,0.1338,1.0058,0.1058,63
4.735,91,1.1393,1.5223,-8.3725,0.113,-0.3008,-0.8502,87,4.217,81,3.4314,2.0905,-9.357,0.8935,-0.589,0.6833,88,4.362,84,2.6024,0.004,-8.866,-0.3242,-0.3183,-0.9648,92,4.285,82,7.3009,-0.2431,-15.0685,0.3828,1.3626,0.2901,63
4.786,92,5.8887,4.3606,-13.3608,0.4934,-0.8888,-0.6146,87,4.269,82,7.364,0.6878,-14.7488,0.6964,0.2366,0.6913,88,4.413,85,7.1651,-5.2341,-3.8868,-0.575,-0.9057,-0.1992,92,4.337,83,5.7147,-4.8545,-13.1151,0.6294,1.5499,0.6768,63
4.838,93,9.3549,4.9822,-13.055,0.6613,-0.92,0.0473,87,4.32,83,10.2943,1.2006,-12.5205,0.6575,0.025,0.0948,88,4.465,86,9.6203,-1.261,-8.7391,-0.4095,-0.8134,-0.2197,92,4.389,84,4.7143,-3.7118,-11.5739,0.9569,1.4865,0.7692,63
4.89,94,10.0539,5.3394,-11.6728,-0.0559,-0.0919,0.4761,87,4.372,84,7.2893,0.6554,-11.1513,-0.2002,0.6973,0.1191,88,4.517,87,11.4765,-0.3625,-12.0756,-0.2287,-0.4156,-0.0071,92,4.44,85,4.3191,-2.0921,-11.2317,1.2376,1.4703,0.4968,63
4.942,95,2.7497,3.9761,-9.9186,-0.1467,0.2801,0.6329,87,4.424,85,3.8114,-0.3785,-9.2147,0.2429,0.5748,0.001,88,4.569,88,11.4775,-1.6709,-10.7351,-0.6823,0.375,0.2931,92,4.492,86,2.0106,-2.889,-12.5771,1.0633,1.7564,0.4022,63
4.994,96,1.5171,2.0893,-8.3185,0.5512,0.1643,0.2018,87,4.476,86,2.7884,-0.2106,-8.6513,0.0469,0.2733,0.2759,88,4.621,89,7.0335,-2.8975,-15.8398,-0.5358,0.8089,0.3547,92,4.544,87,0.8299,-1.4059,-13.9356,0.469,1.258,0.7745,63
5.045,97,0.7922,1.9909,-7.6266,1.0767,0.171,-0.072,87,4.528,87,1.6117,-0.0258,-8.6645,-0.3011,0.4197,0.5095,88,4.672,90,6.7886,-3.1561,-17.1287,0.2855,-0.083,0.5634,92,4.596,88,5.723,4.2661,-7.5631,0.3802,1.3144,0.909,63
5.097,98,0.7978,2.0448,-7.0564,0.9695,0.3199,-0.3386,87,4.579,88,0.8919,0.0522,-8.903,-0.6551,0.3688,0.5333,88,4.724,91,4.848,0.8952,-13.146,0.5398,-0.4718,0.5444,92,4.647,89,4.5378,0.647,-10.6417,0.4483,1.0325,0.981,63
5.149,99,1.2571,0.2811,-6.3102,0.0388,0.5568,-0.5348,87,4.631,89,0.8328,-0.0528,-9.1519,-0.5014,0.5195,0.4648,88,4.776,92,2.6642,-0.6678,-8.9387,-0.2813,-0.1549,0.7977,92,4.699,90,6.576,1.1997,-15.748,-0.0075,0.5103,0.8127,63
5.201,100,2.6585,-2.5301,-6.3277,-0.3161,0.882,-0.1618,87,4.683,90,4.2804,0.3912,-10.6075,0.148,-0.2376,0.3004,88,4.828,93,2.2929,0.9357,-14.2682,-0.4105,0.1584,0.9113,92,4.751,91,5.8854,3.4322,-14.5421,0.6255,1.0574,0.4649,63
5.253,101,6.9974,-1.6994,-6.8844,-0.303,0.8652,0.5586,87,4.735,91,8.0437,2.3338,-14.0164,0.7797,-0.0788,0.2234,88,4.88,94,1.0869,6.0348,-18.4184,-0.2095,0.794,1.1872,92,4.803,92,4.1225,2.3299,-15.6684,0.283,0.2954,0.1475,63
5.305,102,10.1642,-0.3173,-8.7988,0.0247,0.815,1.0843,87,4.787,92,10.7906,2.8188,-11.7685,0.2042,-0.0089,0.0341,88,4.931,95,6.059,5.0435,-18.24,0.2718,1.0141,0.9669,92,4.855,93,3.9456,4.0762,-13.6576,0.1855,0.0564,-0.5621,63
5.356,103,7.3579,3.6367,-9.6814,0.6924,0.8853,1.468,87,4.838,93,5.9998,-0.0358,-10.0362,-0.531,0.605,-0.3538,88,4.983,96,9.6879,6.6525,-15.7725,-0.2312,1.2643,0.7681,92,4.907,94,4.0128,1.4115,-13.0677,-0.393,-0.218,-1.0638,63
5.408,104,4.5773,7.7807,-9.1548,0.1778,-0.0115,0.8701,87,4.89,94,2.8072,-2.7322,-9.002,-1.0111,0.0885,-0.051,88,5.035,97,8.7011,3.298,-17.7121,0.1489,0.9647,0.2291,92,4.958,95,2.4123,-1.9252,-11.779,-0.5252,-0.1813,-1.2232,63
5.46,105,4.1389,5.8495,-9.4335,-0.5476,-0.1615,-0.034,87,4.942,95,1.6353,-2.358,-8.4633,-0.4155,-0.0003,0.3042,88,5.087,98,7.4318,4.3992,-15.2567,-0.4226,1.0846,-0.0902,92,5.01,96,1.8596,-5.7899,-10.53,-0.8456,-0.2225,-0.6943,63
5.512,106,2.6912,4.209,-8.9618,-1.077,-0.3195,-0.648,87,4.994,96,1.0599,-1.0201,-8.174,-0.2368,-0.0383,0.6894,88,5.139,99,5.5411,2.9907,-14.5889,-0.9837,1.4227,-0.1774,92,5.062,97,6.4745,-4.3066,-5.0775,-0.828,-0.6835,-0.9187,63
5.564,107,1.6453,1.7031,-7.9885,-0.8657,-0.5512,-1.1481,87,5.046,97,0.722,-0.4253,-8.3676,-0.3258,0.0537,0.8403,88,5.19,100,4.2543,1.0746,-14.3239,-0.2589,1.4395,-0.2047,92,5.114,98,7.4504,-4.5256,-8.3496,-0.0261,-0.8342,-0.5193,63
5.615,108,1.7882,-0.3195,-7.4501,-0.0984,-0.4933,-1.4973,87,5.097,98,0.6126,0.2118,-8.345,-0.4837,-0.0026,0.6931,88,5.242,101,2.7894,2.0973,-15.6273,0.4754,1.238,-0.3963,92,5.165,99,10.093,-4.1066,-9.8366,0.1061,0.0585,-0.2332,63
5.667,109,6.3622,-0.6122,-8.4481,0.6026,-0.9654,-1.4425,87,5.149,99,5.367,1.7129,-13.1625,0.3167,0.3402,-0.1166,88,5.294,102,1.3463,1.9632,-19.4103,0.7202,0.3139,-0.8637,92,5.217,100,8.7881,-3.292,-11.6042,-0.2764,0.7277,0.3422,63
5.719,110,9.7005,0.1732,-11.7443,0.3613,-0.2858,-0.8148,87,5.201,100,8.837,2.9455,-10.4946,0.9029,0.2594,-0.7714,88,5.346,103,6.2483,6.7847,-16.3056,0.0573,0.5665,-1.089,92,5.269,101,8.6029,-3.5635,-10.217,0.473,-0.0386,0.686,63
5.771,111,11.3396,0.1889,-10.1864,-0.0189,0.4416,-0.1136,87,5.253,101,6.9603,0.4308,-9.552,-0.0211,0.8664,-0.679,88,5.398,104,9.555,3.1065,-16.9319,-0.1765,0.9425,-0.6864,92,5.321,102,7.2825,-1.0587,-9.6873,0.6056,-0.6297,1.001,63
5.822,112,4.5914,2.1122,-10.0577,-0.3382,0.8136,0.5629,87,5.305,102,1.3811,-0.6471,-7.9217,0.6272,1.2749,-0.8693,88,5.449,105,11.0665,0.163,-13.2162,-0.6017,1.3662,-0.344,92,5.373,103,4.6883,-0.142,-8.0904,-0.2351,0.1952,1.4109,63
5.874,113,2.9868,2.5369,-8.4598,-0.5803,0.3921,0.2625,87,5.357,103,-0.6907,0.1104,-7.766,0.6687,0.9929,-0.5851,88,5.501,106,7.7413,-2.7253,-17.6506,-0.5755,1.2618,-0.0758,92,5.424,104,4.012,1.3398,-9.5299,-0.0318,-0.4915,1.0073,63
5.926,114,2.7375,1.0691,-8.8568,-0.7041,0.337,0.0236,87,5.409,104,-1.2189,0.9329,-7.6254,0.1637,0.6882,-0.2474,88,5.553,107,7.3046,-6.0729,-15.4955,0.1675,0.4287,0.5878,92,5.476,105,8.0454,6.27,-4.3476,0.3973,-0.9683,0.0703,63
5.978,115,2.1038,1.4792,-8.9959,-0.3366,0.4676,-0.0672,87,5.461,105,-1.925,0.6031,-9.2345,0.0747,0.6036,-0.0412,88,5.605,108,5.5408,-1.0759,-13.4646,-0.4237,0.707,1.0901,92,5.528,106,7.5474,0.4775,-8.5506,0.4955,-1.0506,0.2155,63
6.03,116,0.344,0.9354,-10.028,-0.5736,0.4547,-0.1278,87,5.512,106,-1.1001,0.5501,-9.3285,0.7262,0.453,0.5131,88,5.657,109,3.4939,-0.8689,-13.1107,-0.9845,0.7426,1.4052,92,5.58,107,8.0673,-1.5511,-11.3904,0.3682,-0.9194,0.0264,63
6.081,117,1.5152,0.9975,-10.8022,0.2317,-0.2872,-0.283,87,5.564,107,4.117,1.6332,-10.3629,-0.126,-0.3408,1.0399,88,5.708,110,4.4743,3.2872,-12.1681,-0.904,0.2604,1.1393,92,5.632,108,5.0921,1.4336,-16.0197,0.9434,0.014,-0.3507,63
6.133,118,6.163,1.402,-13.2856,0.3269,-0.879,-0.5289,87,5.616,108,7.9245,-3.6797,-15.4624,-0.772,-0.7982,0.8049,88,5.76,111,8.5313,0.9759,-6.2968,0.0167,-0.4834,0.1575,92,5.683,109,1.5977,1.7786,-17.8499,0.9295,-0.2128,-0.0079,63
6.185,119,9.5551,4.4779,-12.9602,-0.0796,-0.9113,-0.026,87,5.668,109,10.7034,-3.5244,-12.2134,-1.045,-0.8361,0.6219,88,5.812,112,11.4923,6.0485,-11.8374,-0.524,-0.8366,0.0585,92,5.735,110,3.2882,0.1547,-16.796,0.0013,-0.8221,0.1741,63
6.237,120,5.3492,4.1725,-9.593,-0.6963,0.0173,0.1755,87,5.72,110,4.7824,-5.9728,-9.912,-0.1748,-0.6446,0.1716,88,5.864,113,13.6533,2.4605,-12.0235,-0.7907,-0.0616,0.3602,92,5.787,111,1.0265,-1.9044,-12.0409,-0.6761,0.0849,0.4438,63
6.289,121,4.4014,2.6766,-7.8257,0.1662,-0.3817,-0.2899,87,5.771,111,4.4244,-4.0531,-8.9901,0.5441,-0.5524,-0.1424,88,5.916,114,11.6323,2.6254,-12.0549,0.0304,0.4777,0.0453,92,5.839,112,3.1143,-0.5716,-9.2688,-0.5588,-0.2211,-0.3019,63
6.34,122,3.0404,2.3623,-7.8012,0.7288,-0.1951,-0.6448,87,5.823,112,2.7068,-2.6659,-8.9387,1.0506,-0.163,0.0771,88,5.967,115,9.3916,2.8162,-14.5969,0.2974,0.1895,-0.624,92,5.89,113,1.3446,-5.4993,-6.9748,0.2587,0.5236,-0.577,63
6.392,123,2.0016,1.7934,-7.471,1.175,-0.0552,-0.8363,87,5.875,113,0.9972,-1.0501,-8.1613,1.2113,0.0855,0.4281,88,6.019,116,6.8161,3.1521,-10.0571,-0.1095,0.4903,-0.8369,92,5.942,114,5.6775,1.2785,-9.8035,-0.0406,0.8955,-0.0787,63
6.444,124,0.8755,1.2497,-7.4095,1.0589,0.1336,-0.8669,87,5.927,114,0.249,0.7854,-7.6157,0.6637,0.0177,0.7125,88,6.071,117,4.1693,0.6018,-7.9643,-0.0636,0.9279,-0.7514,92,5.994,115,9.261,-0.5505,-12.3081,0.1687,0.5651,0.1823,63
6.496,125,1.716,0.5903,-6.8378,0.6879,0.265,-0.8034,87,5.979,115,3.5802,2.4219,-9.5419,-0.1956,-0.6597,0.6914,88,6.123,118,3.1863,2.9754,-12.0901,0.3467,0.4789,-1.1418,92,6.046,116,11.25,-0.7944,-9.0799,0.1818,0.9638,0.3351,63
6.547,126,6.3095,0.4749,-8.3521,0.1396,-0.0705,-0.2223,87,6.03,116,7.5329,0.1686,-14.9039,-0.7323,0.1976,0.6873,88,6.175,119,6.2228,-3.0655,-16.8288,0.9251,-0.3239,-0.7055,92,6.098,117,9.586,-3.9534,-10.8622,-0.4425,1.0479,0.9249,63
6.599,127,9.6621,1.6039,-11.1141,-0.5591,0.6309,0.5144,87,6.082,117,10.4176,-0.9901,-13.264,-1.0772,0.7346,0.2578,88,6.226,120,9.3129,0.6822,-18.2231,0.4496,-0.801,-0.6774,92,6.149,118,7.3388,-1.9126,-8.3356,0.3517,0.7982,0.8185,63
6.651,128,10.8188,3.3913,-9.8263,-1.073,1.1429,1.0521,87,6.134,118,6.0702,-2.4202,-12.6434,-0.9194,1.131,-0.1661,88,6.278,121,12.0627,4.3882,-19.2907,0.428,0.0938,-0.2396,92,6.201,119,5.7955,-1.7602,-8.8528,0.9314,1.2675,0.3217,63
6.703,129,3.4675,4.5933,-10.7828,-0.8559,1.2394,1.4428,87,6.186,119,2.2268,-3.8656,-11.1308,-0.4107,0.9455,0.0049,88,6.33,122,10.3176,-1.8229,-16.22,-0.1308,0.7468,0.3152,92,6.253,120,6.2027,1.4835,-9.6691,0.1316,1.574,0.3002,63
6.755,130,0.8011,6.2288,-10.132,-0.1608,1.0166,1.2743,87,6.238,120,1.2086,-2.9916,-10.6384,-0.3158,0.607,0.1508,88,6.382,123,6.1529,-2.8941,-19.8429,-0.2092,0.4602,0.099,92,6.305,121,2.7677,1.701,-13.5429,-0.581,1.2473,0.6699,63
6.807,131,0.5148,4.4571,-9.4877,-0.2065,0.4765,0.6525,87,6.289,121,0.999,-2.6252,-10.267,-0.1042,0.5349,0.3452,88,6.433,124,7.3665,-2.3813,-17.5655,0.4148,-0.3375,0.3108,92,6.357,122,2.5031,6.5336,-9.021,-0.7033,1.5953,0.8363,63
6.858,132,0.6073,3.2365,-8.6374,0.0137,0.146,0.1126,87,6.341,122,0.4747,-1.8514,-10.0706,0.0843,0.6346,0.4025,88,6.485,125,5.311,0.55,-13.2563,-0.2299,-0.5838,0.62,92,6.408,123,6.9442,4.1223,-12.1573,-0.3764,0.4975,0.524,63
6.91,133,0.2132,2.4859,-8.1868,0.4661,0.1962,-0.1965,87,6.393,123,0.5946,-1.7344,-9.9388,0.2751,0.5447,0.3407,88,6.537,126,4.9936,1.1698,-10.5913,-0.3309,-0.4518,0.6925,92,6.46,124,10.1855,1.5074,-11.2678,-0.6918,-0.2718,0.3497,63
6.962,134,2.8249,0.5537,-6.1064,0.9483,-0.0011,-0.375,87,6.445,124,5.3537,-1.6345,-13.365,0.7949,-0.2751,0.0486,88,6.589,127,4.7157,6.2056,-15.7349,-0.0374,-0.8878,0.5145,92,6.512,125,7.4085,3.1462,-15.712,0.1428,-0.2414,-0.3843,63
7.014,135,7.1189,0.4398,-7.0561,1.2876,-0.2865,-0.4604,87,6.497,125,8.8272,0.2344,-16.5093,1.2519,-0.2488,-0.1265,88,6.641,128,8.7075,0.7833,-17.005,0.1543,-1.1328,0.4654,92,6.564,126,6.4222,2.5407,-16.4974,0.0185,-0.5228,-0.7501,63
7.065,136,10.2528,-1.5394,-6.5536,0.2624,-0.1849,-0.0247,87,6.548,126,10.9472,-0.2694,-14.3041,0.4938,0.0839,-0.587,88,6.692,129,11.6209,0.2472,-17.4671,-0.0396,-0.6822,0.3659,92,6.615,127,5.924,3.7894,-14.5697,-0.5111,-0.6894,-1.2189,63
7.117,137,3.4604,4.2314,-7.0287,-0.4859,-0.0776,0.6586,87,6.6,127,5.6738,-2.3338,-11.4188,0.1122,0.5284,-0.6241,88,6.744,130,13.7472,3.924,-14.4385,-0.6566,0.0675,0.5415,92,6.667,128,4.7381,0.4533,-12.9328,-1.0477,-0.1777,-1.3331,63
7.169,138,3.8708,3.2037,-6.1302,-1.032,-0.5893,-0.1944,87,6.652,128,3.2958,-2.4581,-9.1764,0.4662,0.1309,-0.2457,88,6.796,131,12.7059,2.4161,-14.9534,0.1973,0.1541,-0.2555,92,6.719,129,2.9872,-2.7028,-11.8986,-0.3422,-0.4375,-1.3021,63
7.221,139,3.2471,0.6629,-6.7907,-1.4105,-0.3198,-0.7605,87,6.704,129,2.7716,-2.0359,-7.9423,-0.0084,-0.3942,0.0759,88,6.848,132,9.7858,1.1684,-13.2192,-0.0782,-0.2015,-0.6007,92,6.771,130,2.2563,-2.8391,-9.8502,-0.3487,-0.2913,-0.7078,63
7.273,140,2.0083,-0.3357,-6.7659,-1.2332,-0.0968,-1.2232,87,6.756,130,1.9495,-0.5597,-7.4703,-0.5046,-0.1961,0.589,88,6.9,133,7.6234,1.6701,-10.0933,-0.385,0.2838,-0.7245,92,6.823,131,6.764,3.2201,-7.3583,0.1047,-0.0282,-0.9275,63
7.324,141,-0.4173,-3.0178,-7.7327,-0.323,-0.0337,-1.5679,87,6.808,131,1.1315,-0.2224,-8.0671,-0.9643,-0.189,0.9759,88,6.952,134,6.0693,-0.8619,-9.4597,-0.4188,0.8855,-0.391,92,6.874,132,6.602,-1.9083,-8.7845,0.291,0.2303,-0.6233,63
7.376,142,0.3502,-2.498,-6.4665,0.4386,-0.3547,-1.6528,87,6.859,132,3.1566,-0.1537,-11.3383,-0.8384,-0.2987,1.1666,88,7.003,135,4.4877,1.3877,-14.1419,-0.5681,0.9487,-0.2165,92,6.926,133,9.9357,-4.4545,-3.8036,0.5611,-0.3864,-0.6949,63
7.428,143,5.3127,-2.5131,-10.7819,0.9945,-0.9282,-0.85,87,6.911,133,7.2237,-0.5105,-15.4375,0.0598,0.4611,0.1651,88,7.055,136,5.7336,-4.2242,-7.7373,0.2509,0.019,-0.832,92,6.978,134,6.3332,-5.1926,-10.7572,-0.2673,-0.3231,0.1732,63
7.48,144,8.9346,-0.3427,-13.7566,0.4806,-0.3673,-0.4267,87,6.963,134,10.1919,0.4354,-12.7534,0.4092,0.6325,-0.5659,88,7.107,137,3.977,2.2689,-7.7007,-0.0638,-0.0848,-0.7333,92,7.029,135,8.4333,-4.0692,-8.9453,0.3964,-0.9026,0.6192,63
7.532,145,4.9371,1.3342,-11.6945,-0.3266,0.4143,0.3049,87,7.015,135,6.7607,-4.8945,-10.1543,-0.0507,0.8661,-0.8081,88,7.159,138,6.6754,0.3536,-9.9427,-0.001,0.3845,-0.5205,92,7.081,136,5.4955,-2.6333,-8.0355,0.964,-0.1473,0.9552,63
7.583,146,0.5756,1.6006,-11.1304,-0.824,0.0269,0.5103,87,7.067,136,3.9545,-2.7315,-8.9808,0.6347,1.0524,-0.6521,88,7.21,139,5.1576,-3.6265,-9.6459,-0.6261,0.959,-0.0352,92,7.133,137,5.5232,0.2746,-8.5936,0.8748,-0.1926,0.4648,63
7.635,147,0.2372,0.5668,-10.7513,-0.5051,0.2533,0.2603,87,7.118,137,1.7098,-0.2177,-8.303,-0.1495,0.4888,-0.3395,88,7.262,140,3.5511,-4.1702,-13.6591,-1.0022,0.7349,0.2077,92,7.185,138,2.1967,-0.3709,-11.9158,-0.0386,0.1825,1.0196,63
7.687,148,0.7107,0.35,-10.3059,-0.1636,0.3317,0.1306,87,7.17,138,0.9717,-0.0585,-8.7846,-0.3743,0.3845,0.0615,88,7.314,141,4.3853,-6.8903,-11.48,-0.3763,0.2897,0.8113,92,7.237,139,6.7206,5.0214,-6.0889,0.3866,0.2499,0.5039,63
7.739,149,1.6011,0.1235,-9.3994,0.0267,0.5037,0.1592,87,7.222,139,0.3605,0.4535,-8.6905,0.1952,0.5171,0.2886,88,7.366,142,2.5468,-3.1498,-10.5093,-0.8069,0.4451,1.2551,92,7.288,140,8.4792,-1.5536,-11.0056,0.3798,-0.2719,0.7575,63
7.79,150,1.3473,0.3108,-9.295,0.1457,0.693,0.3443,87,7.274,140,2.5895,2.3534,-9.0207,0.4199,0.0401,0.2866,88,7.418,143,2.432,0.7446,-8.6543,-1.2641,0.515,1.4791,92,7.34,141,11.3058,-1.5224,-10.6031,0.5878,-0.052,0.2865,63
7.842,151,6.0405,-0.4673,-12.4959,0.0422,-0.1173,0.8772,87,7.326,141,6.8097,1.9753,-14.5236,0.1411,0.3704,-0.107,88,7.469,144,7.0408,1.7221,-3.7322,-0.2461,0.7163,0.4055,92,7.392,142,5.6849,2.4912,-15.7198,1.1036,0.0314,-0.4623,63
7.894,152,9.4657,0.433,-13.3706,-0.5403,-0.0619,0.8444,87,7.377,142,9.1339,1.4168,-12.6958,0.7676,0.6035,-0.3762,88,7.521,145,10.4044,3.5993,-5.5418,-0.6736,0.1282,-0.0443,92,7.444,143,6.2551,3.4716,-16.7812,0.1284,-0.6438,-0.4382,63
7.946,153,5.8686,1.0965,-7.1673,-1.0717,0.2326,0.526,87,7.429,143,2.6335,-2.1544,-10.5142,0.6041,0.8818,-0.498,88,7.573,146,12.8593,0.785,-8.0404,-0.6876,0.1418,0.5522,92,7.495,144,5.1987,2.4743,-11.9903,-0.5834,-0.3824,-0.0694,63
7.997,154,2.8463,-1.2383,-8.4166,-1.4596,-0.1622,0.2402,87,7.481,144,-0.0082,-0.8473,-9.7347,1.1127,1.0473,-0.333,88,7.625,147,11.2295,0.6583,-7.138,0.1747,0.7607,0.3075,92,7.547,145,2.294,-0.2684,-9.3393,-0.9049,0.207,-0.3774,63
8.05,155,1.619,-2.5092,-8.8617,-0.3909,0.0996,0.1325,87,7.533,145,-0.2466,0.3201,-9.3457,1.0379,1.0656,0.2677,88,7.677,148,8.2701,1.7483,-13.2145,0.8041,0.6975,-0.4496,92,7.599,146,3.8406,-3.4278,-8.536,-0.2488,0.5478,-0.6635,63
8.101,156,0.6083,-1.2989,-9.0997,0.3891,0.4099,-0.2863,87,7.585,146,0.0484,0.7129,-9.1657,0.5343,1.0413,0.7518,88,7.728,149,5.9863,3.1068,-13.6997,0.8244,0.0304,-0.9225,92,7.651,147,7.9203,-7.0715,-3.6222,-0.6454,0.7469,-1.0335,63
8.153,157,0.4595,-2.1276,-9.5625,0.3602,0.4889,-0.742,87,7.636,147,-0.2869,1.7402,-8.914,0.3209,0.8843,0.6791,88,7.78,150,5.3323,1.7299,-11.6607,0.021,-0.1012,-1.0483,92,7.703,148,10.8565,-3.6184,-3.6926,-0.2531,1.005,-0.4854,63
8.205,158,1.6462,-3.8521,-9.9582,0.9069,0.4226,-0.7493,87,7.688,148,2.4237,3.0187,-9.7395,-0.1801,0.0778,0.3358,88,7.832,151,3.9725,-0.1911,-7.8047,-0.6599,-0.1172,-0.9483,92,7.755,149,11.7165,-4.6127,-1.6239,0.2545,0.3949,-0.5075,63
8.256,159,6.2586,-3.7811,-13.3495,1.3363,-0.3609,-0.1479,87,7.74,149,6.6887,2.6372,-14.8653,-0.6359,0.3716,0.3416,88,7.883,152,8.165,-5.3765,-5.4613,-0.8189,0.3374,-0.0981,92,7.806,150,10.096,-1.3834,-7.4191,-0.4908,0.8453,0.2451,63
8.308,160,9.6249,0.5055,-13.2139,1.6496,0.419,0.3293,87,7.792,150,9.421,2.6572,-13.7165,-0.8171,0.2833,0.2259,88,7.935,153,9.2417,0.4741,-6.0133,-0.801,-0.1911,-0.428,92,7.858,151,6.8404,-1.0836,-7.4365,0.1206,0.6811,0.3935,63
8.36,161,5.9811,2.5834,-11.3695,1.5347,0.9468,0.917,87,7.844,151,6.4744,1.5465,-9.298,-0.0627,0.8818,-0.3245,88,7.987,154,11.5476,1.9172,-8.4564,-0.8246,0.5389,-0.0757,92,7.91,152,5.0558,-2.0815,-7.8464,0.4766,1.1363,0.5468,63
8.412,162,2.846,4.5361,-10.2199,0.6299,0.5564,0.6539,87,7.895,152,2.2791,2.247,-8.1114,-0.2772,0.7722,-0.4395,88,8.039,155,13.1537,-2.2766,-10.5494,-1.2771,0.8397,0.6225,92,7.962,153,4.203,-0.968,-9.0532,0.611,1.1154,0.3747,63
8.464,163,1.7215,4.0206,-9.0609,-0.2177,0.3173,0.3091,87,7.947,153,1.4856,0.9871,-8.7238,-0.8094,0.5654,-0.3267,88,8.091,156,9.3925,0.612,-12.2611,-0.8941,1.0464,0.4098,92,8.013,154,2.3457,-1.1794,-11.5712,0.8263,0.9793,0.6881,63
8.515,164,1.0868,2.8411,-8.5007,-0.4872,0.2771,0.1341,87,7.999,154,1.0303,0.8991,-9.265,-0.6971,0.5871,-0.0946,88,8.142,157,8.4757,-0.5124,-10.7806,-0.5885,0.0903,0.1593,92,8.065,155,6.8293,4.4314,-5.8374,1.0764,1.2085,0.827,63
8.567,165,0.5235,2.031,-8.2175,-0.3854,0.5136,-0.0052,87,8.051,155,-0.5363,1.1204,-9.9196,-0.2429,0.856,0.1602,88,8.194,158,5.6267,-1.3334,-5.5236,0.1429,0.0117,0.0373,92,8.117,156,8.5182,0.8522,-6.2839,0.8839,0.7367,0.6697,63
8.619,166,0.1995,1.6898,-8.2,-0.4052,0.7882,-0.1281,87,8.103,156,1.2633,2.3875,-9.5065,-0.1652,0.1961,0.2754,88,8.246,159,6.2404,1.1954,-8.1549,0.1343,-0.6648,0.2163,92,8.169,157,9.7031,-0.8243,-3.1595,0.5805,-0.0632,0.4783,63
8.671,167,4.9893,0.6383,-6.4071,-0.6704,0.4341,-0.125,87,8.155,157,5.8417,3.9112,-13.4475,-0.5112,-0.5296,-0.4251,88,8.298,160,6.2699,6.2243,-13.9567,0.2706,-0.8923,-0.4068,92,8.221,158,7.3857,2.0125,-9.7865,1.0389,0.311,-0.055,63
8.723,168,8.6985,-1.1157,-7.7936,-0.9511,0.7982,0.2527,87,8.206,158,9.1833,3.8905,-14.3574,-0.5458,-0.8375,-0.7772,88,8.35,161,9.8418,4.3185,-12.8268,0.2773,-0.3946,-0.0923,92,8.273,159,6.247,3.0388,-10.2967,0.9769,0.0134,-0.6544,63
8.774,169,11.4057,-0.7739,-5.4073,-0.0198,0.5745,0.4447,87,8.258,159,8.8888,3.8215,-11.0436,-0.6667,-0.1218,-0.4854,88,8.402,162,12.4487,3.1421,-13.2785,-0.0286,-0.2464,-0.0104,92,8.324,160,5.65,2.2627,-10.1715,0.2152,-0.1968,-1.0887,63
8.826,170,6.5928,2.3223,-6.0732,-0.0866,0.5808,0.6465,87,8.31,160,3.9006,0.782,-8.9711,-0.3724,0.5648,-0.3666,88,8.454,163,12.1289,1.1174,-10.6057,-0.4181,0.476,0.603,92,8.376,161,3.8766,1.2176,-10.1989,-0.4967,-0.1988,-1.1404,63
8.878,171,1.6205,2.9979,-6.3245,-0.7376,-0.1604,0.1188,87,8.362,161,1.8271,1.1939,-7.8851,-0.1307,0.119,0.0627,88,8.505,164,10.5651,1.5842,-12.5035,0.3285,0.9565,0.272,92,8.428,162,3.8363,-4.2656,-11.6052,-1.0396,-0.6759,-0.6106,63
8.93,172,1.2336,1.3772,-6.625,-1.0705,-0.2412,-0.528,87,8.414,162,1.1152,2.3707,-7.5657,-0.4175,0.0094,0.5371,88,8.557,165,7.6723,2.0613,-11.4579,-0.4355,1.187,0.1831,92,8.48,163,1.4071,-6.1024,-10.4703,-1.1966,-0.2078,0.1844,63
8.981,173,1.1251,0.9163,-6.7934,-0.7023,-0.2256,-0.8849,87,8.465,163,0.1279,2.4296,-8.1083,-0.9847,0.0182,0.7469,88,8.609,166,5.754,0.0014,-10.626,-0.993,1.4163,0.2093,92,8.532,164,6.1442,-9.7506,-11.5124,-0.6394,-0.4806,0.3406,63
9.033,174,0.5104,1.6996,-7.5801,-0.9735,-0.251,-1.0125,87,8.517,164,-0.2731,1.8646,-7.6924,-1.3987,0.216,0.7152,88,8.661,167,4.7611,-0.8416,-10.5427,-0.3512,1.2939,0.3577,92,8.583,165,6.2035,-7.8772,-14.2626,-0.238,-0.3265,0.4521,63
9.085,175,0.2478,1.2335,-8.2878,-1.3879,-0.3484,-1.31,87,8.569,165,1.1226,1.4424,-9.2122,-1.4292,0.171,0.9366,88,8.713,168,2.8215,0.9864,-11.3009,0.358,1.6227,0.3699,92,8.635,166,9.6449,-8.4556,-13.1365,-0.1275,0.3679,0.2653,63
9.137,176,3.8325,-0.8534,-7.9671,-1.579,-0.4195,-1.4917,87,8.621,166,5.7391,0.6955,-10.736,-0.988,-0.1858,0.2468,88,8.764,169,7.325,-4.5171,-5.6638,0.5999,0.6401,-0.115,92,8.687,167,10.2142,-9.283,-17.5688,-0.5314,0.5572,0.8058,63
9.189,177,7.8542,0.3879,-10.2915,-0.8771,0.0374,-0.817,87,8.673,167,9.1085,2.5392,-10.022,-0.0522,0.2012,-0.5031,88,8.816,170,10.6119,-0.3672,-6.2523,-0.1028,0.1326,-0.758,92,8.739,168,6.236,-6.2556,-16.367,0.2868,0.2079,0.5468,63
9.24,178,10.7895,0.6616,-7.8966,-0.0302,0.0408,-0.3353,87,8.725,168,8.9929,3.3933,-8.3219,-0.7181,0.3792,-0.4359,88,8.868,171,11.9576,0.8599,-8.6286,-0.1286,0.4815,-0.7714,92,8.791,169,7.2672,-3.1521,-14.0556,0.2669,-0.3479,1.0362,63
9.292,179,7.7601,-1.0457,-5.6099,-0.0943,0.5429,-0.0068,87,8.776,169,5.1003,0.4995,-7.4021,-0.9813,0.5278,-0.5169,88,8.92,172,13.9929,0.9995,-8.8925,-0.2553,0.4289,-0.1249,92,8.842,170,3.8187,-3.1224,-12.0136,0.0328,0.3261,1.299,63
9.344,180,1.7662,-0.7634,-5.9019,-0.3705,-0.0339,0.1107,87,8.828,170,2.2405,-0.4476,-7.0312,-0.0445,0.3481,-0.523,88,8.972,173,12.062,-0.9182,-12.8738,-0.516,0.0648,0.5426,92,8.894,171,3.5635,-0.7821,-12.8173,0.3209,-0.2227,1.0217,63
9.396,181,0.823,-0.9081,-6.7919,-0.0192,0.3798,0.1826,87,8.88,171,0.6594,0.0645,-6.7206,0.6393,0.1686,-0.3505,88,9.023,174,9.2013,-1.6533,-16.2037,-0.0527,0.1077,0.4761,92,8.946,172,-1.4377,-3.4831,-17.3358,0.7663,-0.7084,0.9568,63
9.448,182,0.9624,-0.7512,-7.4377,0.2547,0.5713,0.2184,87,8.932,172,0.2786,1.3253,-6.6119,0.044,-0.0636,-0.0108,88,9.075,175,7.2285,-1.8055,-14.7583,0.4392,-0.4041,0.7749,92,8.998,173,4.068,-7.8389,-16.9223,1.1028,-0.7703,0.6139,63
9.499,183,1.2172,-0.3579,-7.6031,-0.0277,0.7988,0.2605,87,8.984,173,-0.2367,2.2102,-6.9238,-0.6479,-0.3352,0.1772,88,9.127,176,5.4588,-0.94,-12.5977,-0.2616,-0.0682,1.1985,92,9.05,174,6.4398,-7.1321,-17.6595,1.0925,-0.5071,0.4055,63
9.551,184,0.8929,-0.345,-7.8585,-0.5202,0.9131,0.3368,87,9.035,174,1.7257,1.6571,-6.7822,-1.1529,-0.6477,0.1809,88,9.178,177,3.8733,0.0118,-11.0709,-0.8662,0.1127,1.5098,92,9.102,175,7.1035,-4.3792,-15.885,0.7473,-0.8489,0.2177,63
9.603,185,5.7088,-3.2237,-8.6918,-0.3065,0.0941,0.6484,87,9.087,175,6.1792,2.9407,-10.826,-0.3311,-0.8749,-0.1804,88,9.23,178,8.0926,4.2204,-5.4959,-0.2935,-0.1903,0.5496,92,9.154,176,6.6426,-1.4313,-18.5951,0.5613,-0.452,0.3359,63
9.655,186,9.2237,-2.8871,-8.5416,0.4507,-0.0341,0.563,87,9.139,176,9.4298,2.6988,-10.8403,0.4301,-0.1005,-0.7445,88,9.282,179,10.6095,4.0814,-5.1196,-0.685,-0.1237,-0.2658,92,9.205,177,4.9624,0.7285,-17.8913,-0.2659,-0.9967,0.0744,63
9.707,187,8.2509,-1.8116,-6.927,0.1859,0.1295,0.5868,87,9.191,177,5.8751,2.3362,-9.0008,0.4958,0.3987,-0.5276,88,9.334,180,11.5067,5.461,-7.5751,-0.9273,-0.1254,-0.0228,92,9.257,178,5.2918,0.3891,-14.9225,-0.4249,-0.9352,-0.2021,63
9.759,188,1.4697,-0.0817,-7.5293,0.4661,0.4805,0.4525,87,9.243,178,3.535,0.8235,-7.3938,-0.0962,-0.0143,0.0765,88,9.386,181,10.0335,2.5352,-6.6595,-0.7006,-0.7062,0.1443,92,9.309,179,2.7459,-1.0993,-11.7083,-0.1295,-0.5574,-0.5546,63
9.81,189,-0.2551,-0.4825,-7.0385,-0.3372,0.6415,-0.1439,87,9.294,179,2.3693,1.0824,-7.4402,0.2195,-0.0993,0.5366,88,9.438,182,9.4977,0.8165,-8.0566,0.1652,-0.4248,-0.4342,92,9.361,180,2.98,-1.4506,-8.3363,0.0061,-0.3701,-0.9173,63
9.862,190,-0.1106,-0.155,-6.4057,-0.7401,0.1109,-0.5926,87,9.346,180,1.7684,1.4289,-7.752,0.5563,0.0335,0.5632,88,9.49,183,8.0315,1.6161,-9.2498,0.7458,0.0574,-0.722,92,9.413,181,7.2922,-4.7422,-3.4764,-0.1432,0.0769,-1.003,63
9.914,191,-0.2733,-0.096,-6.4767,-0.4836,0.2164,-1.0844,87,9.398,181,0.9148,1.7897,-8.2158,0.7086,0.3064,0.4532,88,9.541,184,6.0743,1.2256,-8.6507,1.2048,0.368,-0.971,92,9.464,182,10.4395,-0.0196,-8.4091,0.0234,0.1195,-0.7418,63
9.966,192,0.2996,-1.3244,-6.5589,0.2596,0.0709,-1.3065,87,9.45,182,1.4723,1.049,-9.0458,0.5428,-0.0287,0.2438,88,9.593,185,4.1353,1.0035,-9.8635,0.8267,0.4919,-0.9967,92,9.516,183,8.7554,-2.5167,-11.7789,0.2556,-0.5796,-0.5594,63
10.018,193,5.2758,-0.2982,-8.4243,0.8638,-0.6176,-1.3885,87,9.502,183,5.9943,2.0517,-13.4964,0.9774,0.3126,0.1867,88,9.645,186,8.2839,-4.5047,-4.6148,0.2754,1.0355,-0.2255,92,9.568,184,11.3522,0.6105,-13.3702,-0.4905,0.0402,0.1793,63
10.069,194,8.9076,0.3408,-9.7336,0.2382,-0.2692,-0.6851,87,9.554,184,9.2946,2.8103,-12.431,1.0193,-0.0066,-0.0274,88,9.696,187,9.3425,-0.3402,-4.319,0.3642,0.4545,-0.481,92,9.619,185,8.0938,1.7618,-9.6898,0.3167,0.7142,0.1574,63
10.121,195,9.8372,0.9216,-7.0143,-0.3324,0.244,0.1766,87,9.606,185,8.2313,2.9374,-10.7796,0.0639,0.3025,0.0546,88,9.749,188,11.3913,1.806,-5.1979,0.0052,0.9973,0.254,92,9.671,186,7.099,1.6998,-9.6385,0.9058,0.9293,-0.4455,63
10.173,196,3.7351,0.4888,-6.8827,0.0233,0.6238,0.8055,87,9.657,186,3.6189,1.5657,-7.6227,0.1663,0.7091,-0.1241,88,9.8,189,12.4165,-1.042,-3.3555,-0.6646,0.1055,0.5442,92,9.723,187,5.4113,1.3492,-10.6784,0.0409,1.3155,-0.3756,63
10.225,197,0.7747,1.2766,-7.7703,0.4397,0.3785,0.6779,87,9.709,187,1.2798,2.0849,-7.3744,-0.4612,0.3603,-0.139,88,9.852,190,9.4284,0.967,-9.8073,-0.5093,0.7304,0.5427,92,9.775,188,4.4886,0.9117,-12.4845,-0.6472,1.4148,0.3351,63
10.276,198,-0.2093,0.6224,-8.1267,-0.1871,0.1117,0.2681,87,9.761,188,1.0044,1.2944,-8.1566,-0.9848,0.1703,0.0193,88,9.904,191,7.9768,0.7456,-10.7363,-0.5169,-0.1404,0.171,92,9.827,189,8.3933,5.9576,-15.5063,-0.4132,1.3817,-0.113,63
10.328,199,0.0079,0.7606,-7.8289,-0.1643,0.045,0.028,87,9.813,189,0.7184,1.0327,-8.5785,-1.1938,0.2507,0.1726,88,9.956,192,6.6884,-0.0122,-8.4318,-0.5625,-0.3068,-0.2302,92,9.878,190,10.3014,0.8316,-14.6337,-0.2594,0.9761,0.0683,63
10.38,200,0.3971,0.0995,-7.5878,0.0546,0.0899,0.0084,87,9.865,190,0.9447,0.5469,-9.254,-0.9465,0.3011,0.0842,88,10.008,193,3.4885,-0.5441,-5.4246,-1.0539,-0.1294,-0.1742,92,9.93,191,9.4215,0.709,-17.8512,-0.3111,0.7108,0.3267,63
10.432,201,2.6266,-1.1017,-7.5132,0.5407,-0.0717,0.0194,87,9.916,191,5.6092,0.2607,-13.2859,-0.2301,-0.4529,-0.276,88,10.059,194,2.8136,1.7019,-7.5615,-0.8344,-0.1339,-0.1789,92,9.982,192,9.8636,2.406,-16.3407,0.2077,1.1622,0.2813,63
10.484,202,6.9741,-1.3447,-8.6076,0.946,0.2414,-0.0622,87,9.968,192,9.0136,2.6179,-14.6762,0.5038,-0.5764,-0.1701,88,10.111,195,1.4864,-0.8148,-12.2066,-0.2312,-0.4332,-0.5785,92,10.034,193,6.5891,0.8646,-16.464,-0.1055,1.1018,-0.2378,63
10.535,203,10.1471,-2.8372,-6.7229,0.31,0.0144,-0.1028,87,10.02,193,10.8831,3.6801,-12.5265,-0.2398,-0.2379,-0.1284,88,10.163,196,6.3506,0.4488,-10.7551,-0.467,-0.305,-0.2779,92,10.085,194,7.108,2.2597,-15.2071,-0.7045,0.2063,-0.7518,63
10.587,204,6.3562,-0.305,-6.1796,0.4144,-0.1523,0.1458,87,10.072,194,5.4937,1.1093,-10.741,-0.855,0.5055,-0.1155,88,10.215,197,6.9232,0.2671,-10.7269,-0.7017,-0.893,-0.2152,92,10.137,195,5.3029,-0.7646,-14.2223,-0.7724,0.166,-1.0768,63
10.639,205,0.8513,0.709,-6.4531,0.3936,-0.577,0.1064,87,10.124,195,4.1956,0.8937,-9.2276,0.0477,0.4897,0.0971,88,10.267,198,10.3186,0.9365,-10.8611,0.1147,-0.417,-0.539,92,10.189,196,4.1379,-3.0156,-12.1592,-0.2544,-0.3557,-1.073,63
10.691,206,-0.121,1.5493,-6.8675,-0.0914,-0.4348,-0.4447,87,10.175,196,1.8767,2.0729,-7.5604,0.5314,0.4714,0.1964,88,10.318,199,6.5132,-0.0466,-11.3234,-0.4659,0.374,-0.3645,92,10.241,197,1.3071,-3.4377,-9.4624,-0.114,0.1729,-0.699,63
10.742,207,0.0911,0.9136,-7.492,-0.7411,-0.4124,-0.9997,87,10.227,197,0.2529,1.9718,-7.5071,-0.2922,0.2924,0.413,88,10.37,200,5.4691,-1.274,-11.2247,-0.1917,0.4951,-0.238,92,10.293,198,-4.5187,2.4895,-14.8873,-0.6785,0.2051,-0.408,63
10.794,208,-0.2948,0.362,-7.5729,-1.2107,-0.433,-1.3481,87,10.279,198,-0.0777,1.0411,-8.1635,-0.7868,0.1668,0.6025,88,10.422,201,4.2809,-1.7384,-11.3508,0.3633,0.7398,0.0408,92,10.344,199,-0.1309,-1.846,-15.8935,-0.0075,0.0902,-0.4933,63
10.846,209,0.6283,-0.5265,-7.4873,-0.848,-0.3991,-1.3819,87,10.331,199,2.792,0.4957,-10.1214,-0.3444,-0.1063,0.5176,88,10.474,202,2.958,1.7248,-12.0496,0.4053,0.9915,-0.1045,92,10.396,200,2.5524,-1.3364,-12.6875,0.4039,-0.3933,-0.6239,63
10.898,210,5.5157,-0.8626,-8.7072,0.0535,-0.9444,-1.2002,87,10.383,200,6.9574,4.7996,-13.2711,0.4204,-0.0938,-0.3086,88,10.526,203,7.4246,-3.9782,-16.7992,0.6344,0.1009,0.2369,92,10.448,201,3.0619,-3.0249,-14.0894,-0.3352,0.3289,0.1966,63
10.95,211,9.0827,-0.8564,-10.683,0.674,-0.4673,-0.5343,87,10.434,201,9.9976,7.1305,-11.9195,-0.3351,0.2452,-0.9116,88,10.577,204,8.6924,-1.6691,-13.6397,-0.0804,0.4144,-0.5011,92,10.5,202,1.7279,-4.0259,-14.6767,0.2826,0.6417,0.8189,63
11.002,212,11.4631,0.4542,-8.8915,0.8235,0.17,0.2867,87,10.486,202,8.3753,0.7475,-11.6195,-0.9246,0.8581,-0.9431,88,10.629,205,11.2427,-1.6775,-13.6398,-0.6698,0.5712,0.2585,92,10.552,203,1.0824,-2.1805,-13.5916,0.2513,0.2105,1.0905,63
11.053,213,4.729,5.7156,-8.3979,0.2011,0.8065,0.5185,87,10.538,203,3.2614,-1.6514,-10.9231,-0.0213,0.7142,-0.8008,88,10.681,206,13.4711,-3.929,-10.704,-1.1641,-0.2565,0.4668,92,10.603,204,0.8376,-2.3003,-13.3308,-0.0315,0.4443,1.269,63
11.105,214,1.7413,3.0665,-8.9611,-0.5306,-0.0206,-0.2967,87,10.59,204,1.2124,-1.2794,-10.1846,0.6562,0.4394,-0.2945,88,10.733,207,10.9294,-0.2522,-15.8172,-1.5248,0.1912,0.6611,92,10.655,205,-0.8466,-2.3537,-13.6802,0.2801,0.246,1.435,63
11.157,215,0.6513,3.181,-8.1878,-0.4794,-0.0346,-0.74,87,10.642,205,1.1488,0.0728,-9.1436,0.6398,-0.021,0.0879,88,10.785,208,7.1139,-5.0851,-17.2743,-1.6544,-0.4345,1.0443,92,10.707,206,4.4994,3.5743,-7.3767,0.1464,0.5266,1.1559,63
11.209,216,1.2825,1.6601,-8.3433,0.0916,0.0053,-0.8776,87,10.693,206,0.7869,1.4299,-8.4445,-0.0718,0.0458,0.118,88,10.836,209,6.4019,-2.3709,-13.8215,-1.1577,-0.7606,1.2142,92,10.759,207,3.6823,-0.8255,-8.7411,0.2117,0.3566,1.0841,63
11.261,217,0.9836,0.9829,-8.4082,0.631,0.1638,-0.821,87,10.745,207,-0.0008,1.8666,-8.3539,-0.3354,0.318,-0.0585,88,10.888,210,6.5961,-0.0535,-9.9959,-1.5202,-1.0143,1.4741,92,10.811,208,6.7036,-3.6185,-10.1281,0.4029,0.9452,0.7026,63
11.312,218,1.6084,1.7891,-8.8557,0.3363,0.1338,-0.8069,87,10.797,208,4.9191,5.4745,-10.2649,-0.4312,-0.4151,-0.4243,88,10.94,211,6.8551,1.8099,-4.7114,-1.2946,-1.0592,0.7767,92,10.862,209,10.0099,-1.444,-7.7368,0.8567,0.3988,0.109,63
11.364,219,6.231,1.2719,-10.2688,-0.0569,-0.5717,-0.7012,87,10.849,209,8.5099,8.8664,-11.92,0.3391,0.0455,-0.7925,88,10.992,212,3.2824,-3.9161,-5.0758,-0.2683,-0.0947,0.9936,92,10.914,210,5.3482,3.0338,-13.6278,0.1828,0.879,0.614,63
11.416,220,9.6048,0.6408,-10.2994,0.4481,-0.3376,-0.2546,87,10.901,210,9.4793,9.4562,-9.2007,0.8952,-0.1608,-1.2541,88,11.044,213,7.1334,1.3038,-3.3612,-0.7928,0.2192,0.4592,92,10.966,211,6.278,0.914,-12.8474,-0.5436,-0.0252,0.653,63
11.468,221,7.2668,3.2033,-9.5462,0.9814,0.4306,0.4908,87,10.953,211,3.2367,4.3555,-8.2416,-0.0266,0.2847,-1.4865,88,11.095,214,9.8915,-1.0219,-6.2404,-0.8846,-0.0348,0.5172,92,11.018,212,2.0461,-2.1569,-9.2594,-1.0739,0.6666,1.0519,63
11.519,222,0.913,3.2358,-7.2953,1.0811,0.1751,0.2103,87,11.005,212,2.0922,0.144,-8.3584,-0.0673,-0.1091,-0.5574,88,11.147,215,11.8538,-0.3103,-7.2145,0.0003,-0.1128,-0.2489,92,11.069,213,3.1561,-1.7525,-7.5808,-0.5183,-0.1803,0.1121,63
11.571,223,-0.967,1.4832,-5.9486,0.5426,-0.1801,-0.4267,87,11.056,213,3.0551,-0.1988,-8.5076,0.5699,-0.0243,0.181,88,11.199,216,10.7991,4.9374,-9.6272,0.5638,0.1198,-0.8555,92,11.121,214,-0.0252,-4.7959,-10.4345,0.2964,0.266,-0.2707,63
11.623,224,-1.1411,0.023,-5.8262,1.0351,-0.1207,-0.6758,87,11.108,214,2.823,0.5533,-8.0527,1.0129,0.3069,0.6039,88,11.251,217,8.6131,2.4931,-7.8138,0.9596,0.7477,-1.2716,92,11.173,215,-5.491,1.7919,-15.5968,-0.1849,0.8791,0.4523,63
11.675,225,0.4895,0.1869,-7.6741,1.0967,0.3267,-0.6395,87,11.16,215,2.5025,0.899,-8.0515,1.179,0.4914,0.8159,88,11.303,218,5.634,0.7243,-10.1423,1.3769,1.224,-1.5954,92,11.225,216,1.1097,-1.273,-14.3073,0.0902,0.9713,0.686,63
11.727,226,1.6379,-0.0639,-10.8232,0.123,0.8964,-0.1511,87,11.212,216,3.7643,2.7638,-8.6736,1.1368,-0.0001,0.9083,88,11.355,219,4.5015,-1.6261,-13.9957,1.2877,0.2431,-1.7131,92,11.277,217,4.3332,-3.0474,-10.4437,0.236,0.4884,0.6448,63
11.778,227,6.2525,-1.4625,-12.5519,-0.5876,-0.0151,0.5663,87,11.264,217,7.6673,7.344,-11.2202,1.3145,-0.0949,1.2355,88,11.406,220,6.5024,-6.4238,-10.1288,0.8982,0.8558,-1.3211,92,11.328,218,3.9735,-7.3069,-14.2262,-0.2597,0.7271,1.1509,63
11.83,228,9.6205,-3.5444,-6.5698,0.2455,-0.6746,0.5053,87,11.315,218,9.4925,7.7088,-8.267,0.8725,-0.0196,1.0155,88,11.458,221,9.7555,-3.3011,-11.2246,0.8721,0.3505,-1.0549,92,11.38,219,5.136,-3.6062,-10.4808,0.4851,0.4265,0.365,63
11.882,229,8.9521,2.4404,-7.0858,-0.0138,-0.1713,0.4743,87,11.367,219,2.5966,2.916,-7.0503,0.0919,0.1842,0.8175,88,11.51,222,12.3712,-2.4381,-10.8539,-0.0387,0.2979,-0.3521,92,11.432,220,5.0423,-1.4873,-10.0281,0.2841,0.612,-0.0452,63
11.934,230,4.0444,0.8759,-6.8555,-0.6874,0.2233,0.4174,87,11.419,220,0.0263,1.6779,-7.887,-0.579,-0.0583,1.2604,88,11.562,223,10.9183,-3.8504,-15.8372,-0.7035,-0.0021,0.4169,92,11.484,221,2.6027,-2.1504,-13.5682,-0.4697,1.1316,0.3083,63
11.985,231,1.8321,0.5759,-7.4003,-0.9516,0.1522,0.0572,87,11.471,221,1.3843,2.1355,-7.9268,-1.0992,-0.5,1.5853,88,11.614,224,7.1146,-2.5672,-18.5401,-1.0535,-0.3866,0.1579,92,11.535,222,-0.4231,3.3376,-17.8838,-0.3342,0.4226,0.5205,63
12.037,232,0.543,-0.5093,-7.866,-0.6013,0.0798,-0.347,87,11.523,222,1.3359,0.7147,-8.48,-1.1997,-0.2665,1.464,88,11.665,225,7.6502,-1.3122,-17.4112,-1.0387,-0.9556,-0.2799,92,11.587,223,3.5594,-2.8609,-16.888,-0.643,-0.0184,1.0602,63
12.089,233,1.1141,-1.2897,-7.7371,0.0358,0.1415,-0.7095,87,11.574,223,0.2272,0.1299,-9.3464,-0.5949,-0.0745,1.0858,88,11.717,226,5.5943,-2.8467,-13.8409,-1.2946,-1.0162,-0.2198,92,11.639,224,5.4062,-2.6876,-16.9575,-0.263,-0.1474,1.0672,63
12.141,234,1.3728,-1.5577,-7.9926,0.7005,0.2456,-0.7462,87,11.626,224,1.4819,-0.3284,-10.0604,-0.1963,-0.3433,0.9684,88,11.769,227,4.6187,-5.3266,-10.0439,-0.8306,-0.6446,0.0676,92,11.691,225,8.1229,-3.0926,-15.47,-0.0849,0.0573,0.7522,63
12.193,235,5.709,-1.8799,-8.6388,1.1856,-0.1984,-0.4268,87,11.678,225,6.0014,1.4877,-13.1864,0.0553,-0.9232,0.8644,88,11.821,228,8.6367,-3.0226,-12.3637,-0.236,-0.153,0.5941,92,11.743,226,8.1266,0.0647,-17.5712,-0.1349,0.0431,0.3509,63
12.244,236,9.2238,-1.8333,-9.7273,1.0324,0.4816,-0.1318,87,11.73,226,9.2998,-0.1109,-12.4531,-0.6375,-0.7877,0.21,88,11.872,229,10.6687,-3.9421,-15.1268,0.3687,0.024,0.2835,92,11.794,227,6.2297,-0.9023,-16.8507,-0.5586,0.2647,0.003,63
12.296,237,11.7719,-1.3581,-8.0183,0.7303,0.7935,0.1937,87,11.782,227,7.1989,-1.4145,-12.0062,-0.7127,0.1042,-0.3036,88,11.924,230,12.6883,-2.7235,-13.8082,-0.0415,0.0975,0.2596,92,11.846,228,6.7992,1.5162,-14.3261,-0.8464,0.1314,-0.6692,63
12.348,238,7.4716,1.918,-7.4128,0.6823,0.6476,0.7428,87,11.833,228,2.8689,-2.4468,-10.3941,-0.1378,0.6373,-0.2239,88,11.976,231,11.317,-1.4046,-12.4789,-0.4366,-0.5959,-0.0576,92,11.898,229,5.0113,-0.9842,-13.9166,0.0498,0.0756,-1.1598,63
12.4,239,3.3456,3.3058,-7.2152,0.4012,0.7453,0.4994,87,11.885,229,1.4473,-1.1513,-9.2197,0.5606,0.4548,0.0641,88,12.028,232,10.876,-0.6013,-10.9305,0.2609,0.196,-0.1282,92,11.95,230,3.0025,-4.3913,-10.7437,0.5696,0.0465,-0.9942,63
12.452,240,1.8523,3.224,-7.5481,-0.3846,0.4889,-0.224,87,11.937,230,1.2137,0.4445,-7.8665,0.6154,0.3099,0.2121,88,12.08,233,7.7465,-2.4756,-8.8914,-0.4848,0.8214,0.463,92,12.002,231,7.3087,-4.0659,-14.7282,-0.0054,-0.5831,-1.1106,63
12.503,241,1.5927,2.3164,-8.0117,-0.958,0.4205,-0.7859,87,11.989,231,2.0761,1.7348,-7.993,-0.2309,0.1892,0.2799,88,12.131,234,6.1444,-4.039,-9.2894,-0.7034,1.2779,1.0156,92,12.053,232,10.4515,-8.2643,-16.1732,0.6413,-0.3712,-0.1384,63
12.555,242,3.8244,0.467,-8.5691,-1.2065,-0.0235,-1.191,87,12.041,232,6.435,2.0122,-12.2788,-0.4654,-0.5346,0.1005,88,12.183,235,9.7502,2.404,-5.625,-0.7272,1.2869,1.419,92,12.105,233,12.3474,-5.6435,-15.3349,0.4993,0.07,-0.1652,63
12.607,243,6.0714,-1.3394,-10.8406,-1.3983,0.6653,-1.4831,87,12.092,233,-0.1546,-0.1626,-11.4552,0.332,0.2889,-0.5676,88,12.235,236,7.229,-0.5194,-5.5278,-1.206,1.1009,0.3616,92,12.157,234,12.1397,-7.2844,-11.577,0.368,-0.6032,-0.3181,63
12.659,244,4.7545,-1.4783,-8.7882,-0.9424,-0.1352,-0.959,87,12.144,234,1.7384,-1.7106,-10.0976,0.0216,0.1924,-1.1006,88,12.287,237,10.5418,-2.0473,-2.383,-1.3721,0.1301,0.8657,92,12.209,235,9.329,-8.8949,-16.4062,-0.1861,-0.6278,0.412,63
