right_leg_timestamp,right_leg_index,right_leg_accel_x,right_leg_accel_y,right_leg_accel_z,right_leg_gyro_x,right_leg_gyro_y,right_leg_gyro_z,right_leg_battery_percentage,left_leg_timestamp,left_leg_index,left_leg_accel_x,left_leg_accel_y,left_leg_accel_z,left_leg_gyro_x,left_leg_gyro_y,left_leg_gyro_z,left_leg_battery_percentage
0.572,11,1.1681,-0.2163,-8.3228,-0.5884,-0.2954,-0.6413,93,0.301,5,8.8333,0.7897,-11.5165,0.0297,0.0316,0.0336,63
0.624,12,6.1182,-1.6695,-8.6204,-0.7935,0.4627,-0.4828,93,0.353,6,8.8204,0.7451,-11.53,0.0191,0.0138,0.0454,63
0.676,13,8.3117,-1.1909,-7.8337,-0.3712,1.0161,-0.02,93,0.404,7,8.8088,0.7408,-11.5522,0.0196,-0.0043,0.0531,63
0.727,14,7.04,-0.4645,-10.5546,-0.5316,0.8658,0.0148,93,0.456,8,8.8104,0.7001,-11.5447,0.0207,-0.0163,0.0609,63
0.779,15,7.517,0.7841,-13.0989,-0.8262,0.1671,-0.127,93,0.508,9,8.8109,0.6599,-11.5422,0.0121,-0.021,0.0738,63
0.831,16,4.4181,1.0571,-12.9794,-0.6086,-0.021,-0.4267,93,32.137,620,7.6189,7.5897,-10.4103,0.5606,-0.1554,-0.2323,64
0.883,17,1.8029,1.147,-8.6074,0.2323,0.0887,-0.6658,93,32.188,621,10.6779,5.9549,-11.4325,0.3397,-0.1232,-0.1998,64
0.935,18,6.5816,-4.3999,-3.698,0.4971,-0.3633,-0.0492,93,0.04,0,10.0542,4.2364,-11.3678,0.7697,0.2328,-0.457,64
0.986,19,9.6138,-3.1,-8.9008,0.3769,0.1406,-0.0571,93,0.092,1,7.2441,-2.2049,-13.6409,1.1967,0.166,0.1202,64
1.038,20,11.7659,-5.0297,-9.4049,0.4187,0.781,0.1293,93,0.144,2,8.0507,-1.6242,-13.3633,0.8478,-0.4637,0.6993,64
1.09,21,7.993,-1.9251,-11.1509,-0.1671,1.2483,0.2389,93,0.196,3,3.2839,0.0993,-10.3053,0.189,0.3465,1.1644,64
1.142,22,8.9201,-2.7764,-12.7117,-0.7781,0.2377,0.2448,93,0.247,4,0.9645,-5.2243,-15.5024,-0.4369,-0.286,0.8762,64
1.453,28,3.069,0.3571,-17.1998,-0.6985,1.5324,0.3472,93,0.558,10,0.6095,-2.5035,-7.5372,0.3347,0.1193,0.1991,64
1.505,29,2.3227,1.9332,-17.0672,-0.3355,0.5219,0.1275,93,0.61,11,5.5621,3.465,-2.8932,0.5811,-0.5797,-0.3756,64
1.556,30,3.252,2.0949,-13.5824,-0.1384,-0.2925,-0.095,93,0.662,12,7.8579,0.672,-6.4883,0.501,-0.4586,0.0892,64
1.608,31,-1.2029,1.9267,-11.5542,-0.0732,-0.0739,-0.2233,93,0.714,13,6.8084,1.7912,-10.1669,0.4531,0.2282,-0.444,64
1.66,32,4.3878,-3.8308,-10.6065,0.2074,0.4243,0.093,93,0.765,14,7.8935,-1.5229,-10.4262,0.6635,0.8369,-0.6936,64
1.712,33,5.5618,-3.5735,-13.5651,-0.0161,0.1617,-0.1851,93,0.817,15,5.4631,0.8869,-9.1937,0.6515,0.2769,0.0085,64
1.763,34,7.9203,-3.4998,-14.9415,0.0614,0.7843,-0.0526,93,0.869,16,5.5612,-0.8221,-9.7432,-0.2016,-0.4647,0.6866,64
1.815,35,10.0144,-6.084,-13.5087,0.4094,1.2508,0.0496,93,0.921,17,2.8267,-0.1283,-6.5702,0.3717,0.0666,0.7694,64
1.867,36,5.6802,-2.9538,-16.0032,-0.3764,0.9974,0.3339,93,0.973,18,0.0802,-5.3905,-12.7764,-0.1484,0.3481,0.786,64
1.919,37,8.657,-2.7994,-17.0717,0.2508,0.0546,-0.0579,93,1.024,19,5.1758,-6.5711,-11.3459,-0.168,-0.0749,0.8896,64
1.971,38,0.9941,3.3087,-11.4578,0.6459,0.5818,0.0025,93,1.076,20,4.8207,-5.5442,-13.4013,0.2654,-0.1237,0.4452,64
2.022,39,5.9913,-2.8138,-5.8816,0.9784,-0.2487,-0.4574,93,1.128,21,6.9643,-5.2157,-14.099,0.4341,0.3988,-0.2441,64
2.074,40,8.807,-2.3562,-11.2907,0.6637,-0.2483,-0.4441,93,1.18,22,8.6592,-2.0261,-14.5714,0.5135,0.5769,-0.7012,64
2.126,41,11.441,-3.8546,-11.6939,0.9295,0.4972,-0.2955,93,1.232,23,4.2344,-3.5768,-14.9989,1.0494,0.4624,-0.6707,64
2.178,42,6.8217,-1.1889,-13.9368,0.0232,1.0412,-0.0234,93,1.283,24,8.2077,-2.3174,-13.4405,0.4698,-0.3293,0.1879,64
2.23,43,7.6635,-4.4825,-13.028,-0.6583,0.0865,-0.1514,93,1.335,25,2.5007,-0.6469,-10.7044,0.1533,0.4446,0.506,64
2.281,44,7.6209,-4.9975,-12.5978,-0.698,-0.6103,-0.3112,93,1.387,26,6.9424,3.8209,-15.7937,0.4037,0.2455,-0.2936,64
2.333,45,5.1033,-4.0646,-9.1638,-0.222,-0.3278,-0.3788,93,1.438,27,8.3892,0.0649,-17.9061,0.3985,0.1885,-0.1915,64
2.385,46,3.2907,-5.0609,-7.2959,0.2619,0.4085,-0.2224,93,1.49,28,10.6746,3.1369,-16.5508,0.8441,0.0419,-0.7617,64
2.437,47,7.6675,-8.9307,-9.2711,0.8669,0.6386,0.2114,93,1.542,29,3.826,-3.0073,-19.2247,1.2907,0.7155,-0.8083,64
2.489,48,10.7568,-6.5225,-12.721,0.6686,0.6934,0.0897,93,1.594,30,5.552,-2.8171,-18.1475,0.2649,-0.1446,0.0904,64
2.54,49,11.9052,-6.4918,-11.4267,0.8388,1.1845,0.358,93,1.646,31,4.8995,-2.136,-14.2901,-0.4837,0.2661,0.6258,64
2.592,50,7.762,-3.1269,-13.941,-0.0158,1.5428,0.3579,93,1.697,32,-1.4638,-0.1674,-14.2664,-0.0097,0.8792,0.0407,64
2.644,51,7.5236,-3.499,-14.2693,-0.5721,0.5338,0.3054,93,1.749,33,-3.4942,-5.4189,-18.3935,-0.4715,0.2136,0.4705,64
2.696,52,5.8067,-1.7797,-12.0934,-0.152,-0.0396,0.0814,93,1.801,34,2.5671,-9.2219,-15.6219,-0.2475,0.0358,0.8783,64
2.748,53,2.9287,0.3753,-10.3492,0.5656,-0.3923,-0.3133,93,1.853,35,5.8286,-4.7541,-15.4392,-0.0262,0.0778,0.4813,64
2.799,54,7.4032,-4.8463,-4.9693,1.0696,-0.9597,-0.4087,93,1.905,36,6.5717,-4.1694,-13.1575,0.3162,0.6977,0.2699,64
2.851,55,7.2648,-4.261,-11.4019,0.7096,-0.6019,-0.5943,93,1.956,37,4.7434,-4.2445,-16.6175,0.203,0.0627,-0.0267,64
2.903,56,8.9601,-4.1192,-13.3735,0.7076,0.2391,-0.2693,93,2.008,38,3.8637,-4.35,-14.4482,-0.49,0.1726,0.1371,64
2.955,57,8.2967,-4.679,-13.5826,0.65,0.8528,0.1737,93,2.06,39,0.5297,-3.7346,-10.4148,-0.0526,0.7198,-0.2707,64
3.007,58,4.6973,-3.6051,-16.7279,-0.2008,0.0558,0.0311,93,2.112,40,-4.6799,-1.6331,-12.0823,-0.1741,1.2103,0.2749,64
3.058,59,5.942,-3.5358,-13.8864,0.2846,-0.6327,-0.2798,93,2.164,41,1.7017,-0.3986,-8.5525,0.2965,0.2902,0.3913,64
3.11,60,-0.5795,0.5995,-7.9616,0.3606,-0.8807,-0.0825,93,2.215,42,2.8594,-0.354,-12.6174,-0.0153,0.6544,-0.1349,64
3.162,61,-5.7471,5.7894,-13.8156,-0.2483,-0.9783,-0.598,93,2.267,43,7.2042,2.1673,-11.9254,0.5555,0.535,-0.6295,64
3.214,62,1.0713,2.9495,-12.6602,-0.097,-1.0495,-0.7854,93,2.319,44,4.1328,-3.715,-15.2606,0.8397,1.0754,-0.1289,64
3.266,63,6.0476,2.9244,-11.8114,0.1025,-0.1047,-0.3395,93,2.371,45,4.0407,0.1731,-15.4272,0.2357,0.1181,0.586,64
3.317,64,4.9654,2.0918,-10.8944,0.1463,0.5049,-0.1324,93,2.422,46,5.4019,-0.188,-8.9181,0.6245,0.3821,0.4188,64
3.369,65,4.7456,1.7885,-13.1796,-0.5684,-0.0251,-0.0028,93,2.474,47,1.5997,2.3993,-5.9554,0.6706,0.3871,-0.3111,64
3.421,66,2.9779,1.3775,-13.1939,-1.0901,0.0029,0.0196,93,2.526,48,-1.4673,7.0433,-1.7388,0.8262,0.9675,-0.4691,64
3.473,67,1.3296,0.9172,-10.0991,-0.6907,0.0563,-0.1884,93,2.578,49,0.8997,5.5378,-9.2502,0.7462,0.5567,-0.9321,64
3.525,68,1.1126,0.5114,-8.9877,0.1724,-0.186,-0.3122,93,2.63,50,5.774,7.4196,-12.019,0.4627,0.6158,-0.8296,64
3.576,69,6.0778,-1.1832,-3.9756,0.5015,-0.8091,-0.5341,93,2.681,51,3.7299,0.7181,-14.9377,1.0124,1.0843,-0.8146,64
3.628,70,9.5022,0.6263,-7.17,0.221,-0.7855,-0.6165,93,2.733,52,5.2037,1.5074,-14.07,0.3381,0.1246,0.0775,64
3.68,71,9.3407,-0.7924,-10.4847,0.1795,0.0942,-0.5946,93,2.785,53,3.6601,0.6703,-8.9846,0.3179,0.6289,0.1861,64
3.732,72,12.083,-3.2511,-11.3415,0.3274,0.7471,-0.4412,93,2.837,54,-0.4423,1.8295,-7.6456,0.4753,1.1237,0.2674,64
3.784,73,10.237,0.3313,-11.8031,-0.3973,1.1612,-0.0336,93,2.889,55,-2.4886,-3.9615,-13.5613,-0.3136,0.5736,0.7061,64
3.835,74,11.7722,-1.2152,-13.6641,-0.9652,0.1741,-0.1317,93,2.94,56,2.7727,-3.4534,-9.2676,-0.0416,0.2343,0.4621,64
3.887,75,10.726,-1.1834,-10.3889,-0.327,-0.5463,-0.2714,93,2.992,57,4.864,-3.0194,-12.5792,-0.0402,0.3439,-0.0031,64
3.939,76,3.8754,-3.0898,-14.001,0.3508,0.2699,-0.1571,93,3.044,58,6.403,-2.9144,-12.5212,0.5791,0.2711,-0.0626,64
3.991,77,8.0942,1.6755,-7.6345,-0.2114,-0.0996,-0.5177,93,3.096,59,9.7905,-4.5928,-12.3611,0.0881,0.719,-0.1388,64
4.043,78,6.8956,1.1382,-10.8256,0.0428,0.6056,-0.1435,93,3.147,60,5.5404,-8.2124,-16.5116,0.739,1.192,-0.0531,64
4.094,79,10.0197,-3.8134,-10.0421,0.5914,1.1204,0.1192,93,3.199,61,6.1293,-5.2201,-15.8871,0.6216,0.2032,0.6287,64
4.146,80,4.421,-3.1543,-9.9707,0.5175,1.3598,0.5828,93,3.251,62,-0.8727,-4.1632,-8.9874,1.0651,0.8332,1.1386,64
4.198,81,6.6935,-0.0727,-11.173,0.9398,0.6974,0.2658,93,3.303,63,4.4804,1.6979,-14.5406,0.1003,0.015,0.1596,64
4.25,82,5.0525,0.879,-9.548,0.7604,-0.0355,0.1864,93,3.355,64,7.7943,1.2702,-18.5935,0.1022,-0.4784,0.3371,64
4.302,83,2.4411,2.097,-8.0437,0.4988,-0.0158,0.3855,93,3.407,65,10.6778,1.7769,-17.7077,0.6147,-0.7966,-0.2833,64
4.354,84,6.8809,-3.2733,-12.0666,0.7236,-0.658,-0.2159,93,3.458,66,7.2181,-2.389,-19.4055,1.1233,0.062,-0.4093,64
4.405,85,10.2878,0.9065,-12.8131,0.1262,-0.7368,-0.3763,93,3.51,67,7.8636,-1.3658,-18.2195,0.1475,-0.6215,0.1996,64
4.457,86,10.8711,-0.9218,-12.7437,0.6106,0.1406,-0.2194,93,3.562,68,4.9818,-2.0647,-14.0558,-0.5694,0.2069,0.419,64
4.509,87,10.273,-0.1009,-11.7867,0.8212,0.781,-0.0123,93,3.614,69,1.6698,-3.4799,-12.6464,-0.5261,-0.1109,0.1226,64
4.561,88,8.8933,-0.0998,-13.8577,0.5222,-0.1034,-0.231,93,3.665,70,0.8605,-3.2918,-9.5809,-0.7984,0.229,0.1969,64
4.613,89,7.5165,0.5176,-13.8213,0.4664,-0.7489,-0.5495,93,3.717,71,5.7453,2.8897,-4.3848,-0.2453,0.5138,0.0609,64
4.664,90,1.2971,-0.3792,-8.877,0.2909,-0.4455,-0.7385,93,3.769,72,4.1296,0.6246,-9.6449,-0.2059,0.7919,-0.1737,64
4.716,91,6.2125,-5.5138,-12.3297,0.3944,0.0153,-0.358,93,3.821,73,8.1298,1.4746,-10.8698,-0.0772,0.8429,-0.3376,64
4.768,92,9.7999,-4.8314,-13.2567,0.6618,0.5901,-0.3311,93,3.873,74,4.1742,-4.2206,-15.1208,-0.0834,1.3001,0.1093,64
4.82,93,7.6432,-3.2691,-10.9859,-0.1922,1.1091,0.3249,93,3.924,75,5.2432,-2.2548,-13.6889,0.4478,0.2821,0.4019,64
4.872,94,4.9176,-2.3663,-14.133,-0.7783,1.2185,0.4288,93,3.976,76,3.8965,-1.8907,-10.0014,0.0929,0.5104,0.6464,64
4.923,95,4.4856,1.2574,-15.1283,-0.2224,0.4307,0.3314,93,4.028,77,-0.3522,3.8583,-15.2807,-0.303,0.81,0.7884,64
4.975,96,4.5148,0.5687,-14.5085,0.0148,-0.3591,0.1205,93,4.08,78,1.8608,-1.4414,-14.1002,-0.6712,1.1717,0.6086,64
5.027,97,-1.5733,3.8988,-18.5939,-0.2518,-0.6464,-0.1653,93,4.132,79,4.9884,-2.2438,-14.0517,-0.7398,1.17,0.1716,64
5.079,98,4.1175,-0.0615,-17.1815,-0.5114,-0.6364,-0.0491,93,4.183,80,5.1891,-1.8954,-12.9661,-0.3441,1.0346,0.0568,64
5.131,99,8.2709,-0.7203,-16.579,-0.09,0.0699,0.0846,93,4.235,81,3.5911,-3.3723,-15.2717,-0.7931,0.6592,0.1021,64
5.182,100,9.1006,-0.2692,-13.9173,0.4968,0.5535,0.16,93,4.287,82,2.7576,-4.1765,-15.3261,-1.0927,0.158,0.6522,64
5.234,101,5.5025,0.1245,-14.3091,0.0551,0.2461,0.1381,93,4.339,83,0.5369,-0.8303,-9.7672,-0.1228,0.3905,0.4476,64
5.286,102,3.9918,0.6296,-13.1528,0.0946,0.4849,-0.1166,93,4.39,84,5.5092,4.6861,-15.1097,-0.6046,-0.3808,-0.1979,64
5.338,103,2.0774,-0.2423,-10.5372,0.3356,0.1524,-0.1385,93,4.442,85,8.2315,3.9658,-16.0748,-0.4511,-0.4323,-0.2747,64
5.389,104,2.3246,-3.8114,-15.6954,0.5108,-0.4209,-0.5216,93,4.494,86,10.3646,6.4262,-17.0315,-0.4736,-0.4541,-0.4046,64
5.441,105,6.9624,-2.361,-16.6038,0.0974,-0.8942,-0.2939,93,4.546,87,7.975,1.8381,-16.1692,-0.3257,0.293,-0.4515,64
5.493,106,8.9709,-2.3584,-17.2961,-0.3735,0.001,0.2146,93,4.598,88,6.4226,3.8788,-14.5354,0.0597,-0.4454,-0.3633,64
5.545,107,10.1998,-3.4027,-16.6012,-0.4294,0.6791,0.4079,93,4.649,89,3.9171,2.6779,-11.0922,0.2752,0.2791,-0.8822,64
5.597,108,6.714,0.6741,-19.6712,-0.9886,0.4407,0.4834,93,4.701,90,1.655,0.0313,-12.0779,-0.1365,0.8886,-1.3153,64
5.649,109,5.9948,0.6181,-17.4365,-0.229,-0.3517,-0.0416,93,4.753,91,6.3252,4.015,-16.7962,0.2826,0.4689,-0.974,64
5.7,110,6.6827,1.1346,-12.0125,0.1619,-0.9301,-0.1833,93,4.805,92,5.7082,1.4687,-18.461,0.175,0.5135,-0.7338,64
5.752,111,4.8163,-1.8638,-16.7721,0.313,-1.3371,-0.5855,93,4.857,93,7.6417,-0.1113,-19.2503,-0.2379,0.6736,-0.7432,64
5.804,112,8.7809,-1.9827,-15.9814,0.1673,-0.716,-0.6564,93,4.909,94,10.6414,0.1975,-18.06,-0.4859,0.8138,-0.9331,64
5.856,113,8.4272,-3.3491,-14.9613,0.4682,0.1558,-0.1967,93,4.96,95,7.3229,0.5075,-15.5359,-0.7151,0.4309,-0.0275,64
5.908,114,8.2082,-1.5679,-14.3462,-0.1698,0.7921,0.1467,93,5.012,96,7.8407,-0.6242,-14.1217,0.0624,-0.3523,0.3452,64
5.959,115,6.8643,-1.0861,-14.9926,-0.7137,0.3029,0.2628,93,5.064,97,1.6354,3.2451,-9.2972,0.7202,0.4278,0.2448,64
6.011,116,6.1284,-0.4542,-13.8624,-0.5138,-0.449,0.0567,93,5.116,98,6.3109,4.3936,-4.1778,0.8624,0.6593,0.2904,64
6.063,117,4.6014,0.4196,-12.1276,-0.2206,-0.7542,-0.0938,93,5.168,99,8.7541,2.0304,-9.1345,0.6872,0.2974,0.3603,64
6.115,118,1.8155,0.598,-11.305,-0.0896,-0.4455,-0.0809,93,5.219,100,9.9108,2.6105,-10.5222,0.6215,0.3699,-0.0726,64
6.167,119,3.1955,-2.6244,-12.4523,-0.0253,-0.0265,-0.2927,93,5.271,101,7.3968,0.1567,-11.1999,0.8212,0.9457,-0.0169,64
6.218,120,3.3663,-2.5828,-14.5627,-0.1723,0.2875,-0.4031,93,5.323,102,6.6306,0.3102,-11.3169,-0.0325,0.0234,0.5536,64
6.27,121,5.3448,-2.118,-15.3086,0.0011,0.7165,-0.3949,93,5.375,103,5.5106,-0.2826,-8.4312,-0.5054,0.2049,0.6865,64
6.322,122,6.3341,-2.8591,-14.8337,0.3142,1.2013,-0.2367,93,5.427,104,2.1224,0.0801,-8.925,-0.2892,0.7605,0.4784,64
6.374,123,6.0653,-1.804,-13.4672,0.1,1.4946,-0.0971,93,5.478,105,5.7898,5.3506,-12.1947,0.4042,-0.1117,-0.3218,64
6.425,124,7.2606,-2.1833,-13.291,-0.3621,0.4174,-0.0738,93,5.53,106,6.6179,3.4994,-14.5737,0.4623,-0.6793,-0.077,64
6.477,125,6.6749,-1.0721,-12.4984,-0.5467,-0.3566,0.1032,93,5.582,107,4.4221,2.1638,-17.0973,0.3997,0.1419,0.3082,64
6.529,126,10.1374,-5.1051,-13.147,0.1206,-0.9337,-0.1235,93,5.634,108,7.0108,0.2582,-15.8231,0.6168,-0.0089,-0.0805,64
6.581,127,12.6645,-3.6748,-14.222,-0.139,-0.3453,-0.2855,93,5.686,109,8.1742,-0.1481,-18.1875,0.6128,-0.0134,-0.2024,64
6.633,128,13.1681,-3.9685,-14.0192,0.2541,0.4264,-0.0127,93,5.737,110,6.2684,-1.4922,-16.2027,1.0698,-0.4728,0.385,64
6.684,129,11.4807,-3.2265,-15.6256,0.3828,0.9895,0.1936,93,5.789,111,0.0684,2.0448,-9.2177,1.1865,0.3399,0.9438,64
6.736,130,9.8941,-1.6413,-15.4279,0.5229,0.0488,0.0734,93,5.841,112,-0.3436,1.6837,-9.8324,0.2161,0.2173,0.5797,64
6.788,131,7.7786,-0.3182,-13.8254,0.4817,-0.6378,-0.0602,93,5.893,113,4.8665,-3.1761,-6.1252,0.2563,0.6691,0.6423,64
6.84,132,6.459,0.1622,-11.8486,0.0865,-1.1162,-0.0703,93,5.945,114,6.1239,-3.0505,-8.6793,0.6244,0.4238,0.3255,64
6.892,133,1.1031,0.6761,-6.1287,-0.3039,-0.1661,0.2219,93,5.996,115,9.5868,-0.436,-8.7026,0.7328,0.3982,0.0108,64
6.944,134,5.6743,-0.4731,-6.2703,-0.471,0.2836,0.289,93,6.048,116,5.2652,-2.0358,-10.9858,1.2095,0.7353,-0.0732,64
6.995,135,7.5744,-1.1864,-10.5167,-0.3892,0.8705,0.3576,93,6.1,117,6.0459,-2.8998,-11.8926,0.2057,-0.04,0.6191,64
7.047,136,8.8178,-1.7437,-11.024,0.3307,1.1763,-0.0723,93,6.152,118,4.5732,-4.2025,-11.5475,0.3127,-0.6287,0.5617,64
7.099,137,5.1699,3.7207,-13.346,-0.4313,1.3957,-0.0534,93,6.204,119,1.4229,-1.5179,-6.2497,0.9029,0.1365,0.3101,64
7.151,138,4.954,2.6424,-13.1696,-0.99,0.8577,-0.223,93,6.255,120,3.996,-6.4046,-12.5425,-0.0181,-0.2611,-0.0824,64
7.202,139,3.2294,3.5676,-10.2279,-0.2836,0.3693,-0.5352,93,6.307,121,6.6509,-4.9063,-12.2464,-0.1843,-0.4857,0.1166,64
7.254,140,1.1883,4.9984,-7.5487,-0.8741,0.8946,-0.6393,93,6.359,122,6.8554,-1.4517,-14.1954,0.0947,-0.3132,-0.5863,64
7.306,141,6.133,4.7637,-4.523,-0.9753,0.3577,-0.8442,93,6.411,123,8.2202,-1.9155,-14.0857,0.3653,0.3798,-0.3137,64
7.358,142,7.2717,3.0941,-9.5695,-0.8197,0.7712,-1.0954,93,6.463,124,4.697,-3.3687,-14.0943,0.9387,-0.2609,0.3869,64
7.41,143,10.5729,0.8851,-8.7988,-0.3022,1.2412,-0.4911,93,6.514,125,3.9283,-2.3656,-10.5684,0.2925,0.2076,0.8334,64
7.461,144,5.1105,1.5128,-13.2419,-0.8957,1.571,-0.0007,93,6.566,126,0.6984,-2.7392,-9.0433,0.69,0.2983,0.8907,64
7.513,145,6.099,3.3893,-14.6598,0.0228,0.4732,-0.0784,93,6.618,127,5.627,2.7111,-3.9925,0.8974,0.5648,-0.0214,64
7.565,146,6.3053,3.1424,-11.4027,0.4544,-0.3281,0.2667,93,6.67,128,5.3572,1.7065,-9.4484,0.653,0.0893,0.461,64
7.617,147,-0.7194,2.8123,-5.7382,0.1736,0.4219,0.8388,93,6.722,129,6.6137,0.3002,-12.2381,0.3976,0.6561,0.073,64
7.669,148,-3.7423,1.2203,-1.6875,0.8032,0.6484,0.8793,93,6.773,130,9.294,4.3787,-10.4867,0.9262,0.3343,-0.4169,64
7.72,149,-0.4004,0.7289,-6.961,0.4502,0.8619,0.7024,93,6.825,131,4.8745,1.9917,-12.6527,1.3507,-0.0614,-0.223,64
7.772,150,1.7228,-2.9656,-8.9006,0.9706,1.0838,0.5289,93,6.877,132,7.3775,-0.9176,-13.1359,0.3087,-0.7116,0.2187,64
7.824,151,-1.0916,2.0798,-12.9049,0.8343,1.4694,0.2712,93,6.929,133,0.6465,-1.741,-9.7061,0.9,0.1656,-0.5118,64
7.876,152,1.8714,2.4938,-12.3895,-0.0663,1.0468,-0.2183,93,6.98,134,5.5891,4.0215,-5.0242,0.3274,-0.4696,-1.0449,64
7.928,153,2.4386,1.4003,-12.2183,-0.4837,0.336,-0.7168,93,7.032,135,6.9603,0.7138,-6.4008,0.0828,-0.5136,-0.2469,64
7.979,154,1.3062,-0.0279,-9.4914,-0.2345,0.119,-0.69,93,7.084,136,9.9694,0.9523,-8.4184,0.2582,-0.2979,-0.5817,64
8.031,155,6.219,-5.2574,-9.4757,0.4427,-0.5865,-0.1662,93,7.136,137,8.4569,0.6296,-8.9935,0.4807,0.049,-0.5655,64
8.083,156,9.8047,-1.7951,-10.7124,0.0662,-0.5765,-0.0047,93,7.188,138,7.9649,-0.1734,-11.5063,0.4731,-0.5974,-0.3936,64
8.135,157,3.8174,-3.043,-13.1389,-0.0058,-0.1759,0.0269,93,7.239,139,4.8838,-0.0555,-8.2972,-0.3318,0.249,0.0107,64
8.187,158,7.1574,-2.5947,-14.2102,-0.2365,0.3008,-0.248,93,7.291,140,1.8421,-1.1028,-10.1098,-0.9192,0.8667,-0.0904,64
8.238,159,9.1614,-2.883,-15.2064,0.1121,0.8979,-0.4299,93,7.343,141,6.4617,4.4873,-4.7708,-0.3341,0.9796,-0.7317,64
8.29,160,11.9135,-0.4851,-15.0229,0.0841,1.3337,0.0463,93,7.395,142,6.8774,1.1952,-10.9229,-0.124,0.3655,-0.3858,64
8.342,161,4.2843,-3.8455,-14.7492,-0.3798,0.7452,0.2376,93,7.447,143,5.4342,-0.3264,-12.5334,-0.0374,0.316,-0.3314,64
8.394,162,4.5652,-2.9834,-12.9465,-0.3266,-0.1295,0.2477,93,7.498,144,6.4941,-0.8314,-12.8225,0.0727,0.4533,-0.5246,64
8.445,163,3.9029,-2.0178,-7.5627,-0.222,-0.2491,0.3471,93,7.55,145,8.4007,0.2156,-10.8624,0.5989,0.6929,-0.1575,64
8.497,164,0.4294,3.8792,-13.5245,-0.4993,-0.5405,-0.1499,93,7.602,146,11.2485,1.2738,-12.9765,0.1994,0.3875,-0.2601,64
8.549,165,5.5792,-1.7311,-13.5773,-0.6666,-0.5068,0.0221,93,7.654,147,9.6996,-4.1586,-13.7773,0.7761,0.9678,-0.6883,64
8.601,166,8.6618,-2.4105,-13.7866,-0.1045,0.2744,-0.0834,93,7.706,148,6.675,-1.5726,-7.4475,0.0695,0.6132,0.178,64
8.653,167,9.1572,-1.9472,-12.7498,0.2739,0.7816,0.0896,93,7.757,149,8.8314,-3.0219,-3.6617,-0.1544,-0.2192,0.3688,64
8.705,168,5.7786,-2.1609,-16.5171,0.0656,0.1094,0.3692,93,7.809,150,3.4486,0.4303,-1.7456,0.562,0.525,-0.2365,64
8.756,169,4.3169,0.9022,-16.2203,0.3743,-0.1652,0.2051,93,7.861,151,7.6342,5.6062,-9.2552,0.5327,0.5111,-0.385,64
8.808,170,3.9818,0.6999,-15.1287,0.3665,-0.794,0.0044,93,7.913,152,8.4238,4.356,-11.8761,0.539,0.5822,-0.549,64
8.86,171,2.1384,1.2827,-10.0788,0.1566,-0.432,-0.1704,93,7.965,153,10.7138,5.1396,-11.6164,0.2607,0.4804,-1.0346,64
8.912,172,6.8264,-2.8173,-4.7719,0.3775,-0.1486,0.3331,93,8.016,154,7.6379,-1.4486,-14.7005,0.2089,1.0356,-0.7439,64
8.964,173,8.2311,-0.994,-8.7212,0.0152,-0.4974,0.1708,93,8.068,155,5.2481,0.3558,-12.729,0.311,0.2272,0.1374,64
9.015,174,8.6562,-0.7211,-10.8351,0.1643,-0.6472,0.3559,93,8.12,156,5.7151,0.0158,-11.9885,-0.0962,-0.501,0.438,64
9.067,175,9.2563,-1.8768,-12.5325,-0.091,-0.0996,0.4363,93,8.171,157,0.8474,1.0155,-7.4916,0.1149,0.3193,0.5319,64
9.119,176,10.5436,-3.2479,-13.9275,0.1353,0.6029,0.0494,93,8.223,158,5.7358,-4.5556,-2.86,-0.5932,-0.4337,0.1235,64
9.171,177,12.3255,-1.9226,-11.0855,0.3927,1.1184,0.5084,93,8.275,159,8.0341,-2.931,-7.28,-0.3714,-0.9833,0.4225,64
9.223,178,5.6121,0.5255,-13.4421,-0.3886,1.4946,0.5156,93,8.327,160,6.1797,-2.9128,-9.6918,-0.473,-0.1164,0.2563,64
9.274,179,5.4715,3.2972,-14.2933,0.3929,0.5178,-0.1803,93,8.379,161,7.5195,-2.7265,-10.8907,-0.1296,0.3383,-0.1298,64
9.326,180,6.7608,1.6987,-14.4781,-0.1162,-0.2955,-0.3537,93,8.43,162,7.1632,-1.5557,-9.8721,0.0723,-0.4189,0.0949,64
9.378,181,-0.338,3.0106,-18.5717,0.0108,0.3927,-0.0401,93,8.482,163,9.3401,-1.0014,-10.4227,0.3419,-0.0256,-0.1942,64
9.43,182,4.9302,6.8457,-18.2251,-0.6673,0.3082,0.434,93,8.534,164,10.6337,-2.1036,-11.073,0.7539,0.6663,-0.6483,64
9.482,183,4.4275,3.0569,-19.2281,-0.4539,0.8758,0.0974,93,8.586,165,5.9179,-1.8255,-12.6041,1.2249,1.1713,-0.3463,64
9.533,184,6.6949,-0.03,-18.2758,0.3352,1.3176,-0.3784,93,8.638,166,6.1949,-2.7752,-11.7853,0.2169,0.1881,0.0909,64
9.585,185,4.4662,5.2482,-17.4019,-0.3984,1.64,0.3021,93,8.689,167,9.6386,-3.2331,-12.252,-0.471,-0.5295,-0.3712,64
9.637,186,5.0848,3.8555,-15.5462,-0.2283,0.8933,0.031,93,8.741,168,2.4994,-7.6564,-16.9232,-1.0208,0.2985,0.254,64
9.689,187,4.1458,3.579,-13.3967,0.2119,0.7602,-0.1143,93,8.793,169,6.9414,-8.9552,-16.7181,-0.6457,-0.3845,0.1544,64
9.74,188,2.972,2.5537,-12.7168,-0.1767,0.8917,-0.2017,93,8.845,170,5.9632,-6.1303,-16.785,-0.2986,0.3998,-0.0283,64
9.792,189,7.2557,-1.8438,-8.7474,0.3077,0.0688,-0.1542,93,8.896,171,7.3009,-3.4606,-17.2604,-0.235,-0.0015,-0.1245,64
9.844,190,10.5612,-1.3115,-8.5765,0.0666,-0.6232,-0.48,93,8.948,172,3.5611,-4.8177,-19.324,0.418,-0.0764,-0.4444,64
9.896,191,8.7448,-0.3354,-12.3472,-0.5936,-0.7201,-0.1305,93,9.0,173,4.5656,-3.7215,-14.5025,-0.3615,0.2664,-0.1444,64
9.948,192,3.8154,1.7039,-16.8348,-0.1117,-0.9255,0.0524,93,9.052,174,1.7012,-4.0245,-12.5567,-0.1607,0.8794,-0.6182,64
10.0,193,5.3144,0.7314,-16.7505,-0.1933,-0.5748,-0.0726,93,9.104,175,-0.7587,-5.7789,-17.1456,-0.6055,0.163,-0.7915,64
10.051,194,6.4061,0.4443,-16.9537,-0.1961,-0.1081,0.0376,93,9.156,176,4.5636,-5.276,-13.0142,-0.3616,-0.4056,0.1027,64
10.103,195,8.4074,1.3934,-20.3784,-0.1171,0.524,0.0824,93,9.207,177,4.5603,-4.2426,-14.0059,-0.3501,-0.8295,0.2876,64
10.155,196,11.3612,-1.4958,-18.663,0.2308,1.0608,0.2034,93,9.259,178,4.9547,-3.8008,-14.7767,-0.3627,-0.994,-0.3674,64
10.207,197,5.7345,3.2451,-21.4757,-0.4273,1.4526,0.4151,93,9.311,179,5.7455,-0.3905,-16.3088,-0.612,-0.981,-0.3921,64
10.259,198,6.4154,3.0322,-20.8222,-0.7301,0.3868,-0.0686,93,9.363,180,6.028,0.1612,-16.5717,-0.3372,-0.522,-0.243,64
10.31,199,6.8118,2.0007,-18.2551,-0.0657,-0.3911,-0.3661,93,9.414,181,6.8528,0.4923,-16.6502,-0.0372,0.1787,-0.2477,64
10.362,200,5.3402,2.5437,-11.5846,0.4362,-0.5117,-0.3452,93,9.466,182,7.9118,0.0438,-16.8324,0.1554,0.8154,0.0465,64
10.414,201,9.1633,2.0966,-11.7652,0.3252,-1.0468,-0.5741,93,9.518,183,10.8917,3.2156,-13.2975,0.3607,0.6969,-0.5856,64
10.466,202,11.9535,0.9864,-13.3154,0.1134,-0.4975,-0.6926,93,9.57,184,5.2227,0.0098,-15.0486,0.7714,1.1936,-1.0405,64
10.518,203,10.2836,0.0873,-13.8869,0.2817,0.3153,-0.3519,93,9.622,185,2.2055,-0.7292,-15.4646,-0.1141,0.394,-0.079,64
10.569,204,9.314,0.5554,-14.944,-0.1904,0.9085,0.0376,93,9.673,186,2.9052,0.7638,-10.9088,-0.3224,0.5431,0.158,64
10.621,205,7.0213,0.7309,-15.5155,-0.3179,0.2287,-0.0321,93,9.725,187,1.4952,-2.7798,-15.9429,-0.9124,-0.2456,0.6374,64
10.673,206,6.7998,0.2188,-14.8706,0.4445,-0.5065,-0.3257,93,9.777,188,3.9877,-4.2483,-16.0725,-1.0051,0.4636,0.554,64
10.725,207,5.5459,2.5454,-8.4558,0.0815,-0.549,-0.2676,93,9.829,189,5.9034,-3.9046,-19.2657,-0.6454,0.6039,0.6742,64
10.777,208,9.3134,-3.3793,-10.049,0.5647,-0.8393,0.1997,93,9.881,190,9.0674,-3.0365,-16.7202,0.0651,0.8597,0.2381,64
10.828,209,10.0934,-3.3839,-12.3862,0.2049,-0.6178,-0.1676,93,9.932,191,5.0726,-4.3343,-16.2467,0.7222,1.0685,-0.4404,64
10.88,210,11.6137,-3.4044,-13.1945,0.144,0.0842,0.2199,93,9.984,192,4.9279,-3.3303,-15.3485,0.4669,0.1131,0.3247,64
10.932,211,12.5549,-4.8368,-11.3507,-0.0602,0.6051,0.4671,93,10.036,193,3.9781,-1.9063,-10.774,0.0257,0.1369,0.7605,64
10.984,212,14.2553,-4.5224,-15.1257,-0.6685,-0.2318,0.69,93,10.088,194,0.8459,-2.4074,-15.8446,-0.6583,0.61,1.0876,64
11.035,213,10.8048,-2.5728,-12.9781,-0.5975,-0.192,0.4822,93,10.139,195,5.7347,-3.5042,-13.1491,-0.507,0.0583,1.1419,64
11.087,214,3.2102,-0.0575,-9.7634,-0.2203,0.1632,0.1127,93,10.191,196,5.8832,-2.3729,-12.8133,-0.2235,0.1562,0.7524,64
11.139,215,7.6087,-5.279,-4.5417,0.487,-0.5543,0.1921,93,10.243,197,7.7655,-1.9165,-13.4927,0.2045,-0.0601,0.2872,64
11.191,216,7.505,-4.95,-9.7011,0.472,-0.0248,0.0287,93,10.295,198,7.5205,1.3077,-14.7598,0.7213,-0.1826,0.146,64
11.243,217,9.2035,-4.6681,-10.156,0.711,0.6603,0.2668,93,10.347,199,8.3038,1.2866,-14.6876,0.4783,-0.8,0.5729,64
11.294,218,6.2823,-2.2991,-11.9799,0.2578,1.1602,0.2885,93,10.398,200,5.2749,-0.3217,-9.7043,-0.328,0.1011,0.7427,64
11.346,219,4.8526,-3.0915,-13.4177,-0.0874,0.1734,-0.1365,93,10.45,201,0.9108,-5.5316,-15.0638,0.0947,0.6439,0.4831,64
11.398,220,5.6203,-2.7351,-12.6479,0.4219,-0.5468,-0.5371,93,10.502,202,4.9247,-5.3381,-15.1923,-0.111,0.1542,0.803,64
11.45,221,-1.1039,2.2102,-17.2359,0.5319,0.2644,-0.5583,93,10.554,203,5.3994,-3.0295,-16.1837,0.3684,0.5653,0.1564,64
11.502,222,4.3054,-2.994,-17.0894,-0.0271,0.8306,-0.4414,93,10.606,204,7.9333,-0.9743,-15.2016,0.7566,0.3484,-0.3595,64
11.554,223,6.341,-4.4798,-17.4226,0.2586,1.2761,-0.2806,93,10.658,205,3.3712,-3.6604,-15.9791,1.2269,0.9392,-0.8107,64
11.605,224,6.993,-3.226,-14.694,0.0689,1.6093,0.1325,93,10.709,206,2.5944,-1.117,-14.9228,0.857,0.0187,-0.1174,64
11.657,225,3.348,-3.3921,-15.9055,-0.5555,1.8515,0.2802,93,10.761,207,3.3374,-1.6355,-8.5507,0.2387,-0.3166,0.4364,64
11.709,226,3.6832,-2.4983,-14.8536,0.2711,1.1358,0.064,93,10.813,208,7.5531,4.0985,-3.6329,0.7364,-0.8408,-0.1624,64
11.761,227,2.5075,0.2482,-12.828,0.5741,0.8886,-0.1224,93,10.865,209,8.1078,3.7808,-9.3658,0.4205,-0.6173,0.1152,64
11.813,228,-3.494,2.3419,-17.3673,-0.137,0.9786,-0.0704,93,10.917,210,9.7543,2.9832,-10.5679,0.341,-0.2183,-0.2813,64
11.864,229,2.7156,2.6993,-15.242,-0.2602,0.3704,-0.4482,93,10.968,211,7.9158,2.5565,-10.8394,0.6948,0.0717,-0.4705,64
11.916,230,2.2427,2.4417,-16.7542,0.0065,0.6505,-0.237,93,11.02,212,5.9311,1.0012,-12.6436,0.6916,-0.1221,-0.5212,64
11.968,231,4.6643,1.4177,-15.4004,0.1154,0.9056,-0.0612,93,11.072,213,4.8328,1.6565,-11.1303,0.0086,0.1892,-0.3973,64
12.02,232,3.5843,-0.118,-14.4809,0.5484,1.3393,-0.0838,93,11.124,214,2.9678,0.4802,-10.7542,-0.4351,0.6026,-0.4538,64
12.072,233,4.7767,-1.1427,-11.9656,0.4913,1.1882,0.058,93,11.176,215,7.2833,-0.9363,-9.6585,-0.8593,-0.1262,-0.8187,64
12.123,234,6.2469,-1.3848,-11.804,0.5329,0.7642,0.0615,93,11.227,216,6.1691,-1.031,-12.7383,-0.4529,-0.7589,-0.0989,64
12.175,235,7.1961,-1.8801,-11.6628,0.5083,0.6818,0.0775,93,11.279,217,6.8167,-1.0827,-13.1271,-0.3463,0.1311,-0.3976,64
12.227,236,7.5117,-2.1638,-11.1423,0.3128,0.6448,0.1079,93,11.331,218,7.5967,-1.2551,-13.4089,-0.108,0.7806,-0.4917,64
12.279,237,7.8422,-2.3826,-10.8587,0.1854,0.4895,0.0375,93,11.383,219,8.2117,-0.8634,-12.1632,-0.3018,1.1537,-0.4459,64
12.331,238,8.3197,-2.3706,-10.8802,0.0867,0.3477,0.0224,93,11.435,220,8.3244,0.4025,-11.3957,-0.102,0.7568,-0.4989,64
12.382,239,8.6199,-2.3831,-10.99,0.1007,0.3472,0.0461,93,11.486,221,8.6578,0.9513,-10.9957,-0.0332,0.3917,-0.3307,64
12.434,240,8.7018,-2.5649,-10.6849,0.0946,0.3295,0.0729,93,11.538,222,8.7028,0.7419,-10.9404,-0.0829,0.2969,-0.3031,64
12.486,241,8.6533,-2.7498,-10.4145,0.0969,0.2503,0.0598,93,11.59,223,8.5318,0.9399,-10.9096,0.0592,0.1351,-0.3578,64
12.538,242,8.8831,-2.7752,-10.4403,0.0403,0.1613,0.0281,93,11.642,224,8.5926,1.0496,-10.7925,0.1176,0.1567,-0.3176,64
12.589,243,9.0791,-2.7948,-10.5271,0.078,0.1448,0.0466,93,11.694,225,8.6566,1.1501,-10.7434,0.1185,0.1425,-0.2817,64
12.641,244,9.0928,-2.8335,-10.3817,0.0691,0.217,0.0619,93,11.745,226,8.5995,1.3372,-10.4747,0.1073,0.1708,-0.225,64
12.693,245,9.0002,-2.8448,-10.0737,0.0111,0.2389,0.0678,93,11.797,227,8.6388,1.3759,-10.3994,0.0704,0.0743,-0.1403,64
12.745,246,8.9212,-2.9087,-9.9128,-0.0344,0.1381,0.0149,93,11.849,228,8.704,1.3797,-10.4573,0.0331,-0.0089,-0.0159,64
12.797,247,8.9186,-2.9832,-9.8856,-0.0649,-0.007,-0.0515,93,11.901,229,8.7443,1.2254,-10.595,0.0809,0.0356,-0.0356,64
12.848,248,9.0063,-2.9496,-10.0213,-0.0377,-0.1727,-0.1124,93,11.953,230,8.6823,1.1697,-10.6101,0.0883,0.0141,-0.0944,64
12.9,249,9.0663,-2.894,-10.202,-0.0259,-0.2782,-0.1611,93,12.005,231,8.6609,1.2822,-10.5762,0.1174,-0.0367,-0.1526,64
12.952,250,9.0872,-2.7876,-10.3329,-0.0001,-0.3528,-0.2006,93,12.056,232,8.6736,1.4196,-10.5036,0.0519,-0.0662,-0.1342,64
13.004,251,9.2643,-2.5645,-10.7124,-0.0463,-0.4991,-0.2533,93,12.108,233,8.7608,1.479,-10.5544,0.0119,-0.0769,-0.0606,64
13.056,252,9.2395,-2.3978,-11.1442,-0.0941,-0.3847,-0.2801,93,12.16,234,8.7434,1.4976,-10.5763,-0.0297,-0.1077,0.0086,64
13.107,253,9.2634,-2.4354,-11.2726,-0.041,-0.1996,-0.2188,93,12.212,235,8.6829,1.3515,-10.8803,-0.0021,-0.1707,0.0989,64
13.159,254,9.1427,-2.5921,-11.5075,0.0572,-0.0684,-0.1867,93,12.263,236,8.6476,1.1845,-11.4132,0.0096,-0.1107,0.1072,64
13.211,255,9.2588,-2.2112,-11.2152,0.0695,0.0428,-0.1908,93,12.315,237,8.6822,1.095,-11.334,0.011,-0.0926,0.0912,64
13.263,256,9.2798,-2.1297,-11.225,-0.0017,0.0158,-0.126,93,12.367,238,8.7365,1.064,-11.2611,0.0047,-0.0113,0.0051,64
13.315,257,9.3397,-2.1753,-11.2728,-0.0133,0.0217,-0.1786,93,12.419,239,8.7847,1.1765,-11.1354,-0.0143,0.0445,-0.0664,64
13.366,258,9.3963,-1.914,-11.1397,-0.0352,-0.0311,-0.2417,93,12.471,240,8.7739,1.1724,-11.1487,-0.01,0.1833,-0.1134,64
13.418,259,9.6009,-1.8209,-11.3825,-0.016,-0.0509,-0.2058,93,12.522,241,8.8295,1.1688,-10.9473,-0.0056,0.1003,-0.0651,64
13.47,260,9.7057,-2.5743,-11.4146,0.0472,-0.0165,-0.1744,93,12.574,242,8.7971,1.254,-10.9133,0.0354,0.084,-0.061,64
13.522,261,9.6308,-2.3054,-11.3059,0.1812,-0.0428,-0.0953,93,12.626,243,8.8559,1.3316,-10.8387,0.0469,0.1055,0.0987,64
13.574,262,9.5036,-2.0738,-11.2313,0.1172,-0.0533,-0.0561,93,12.678,244,8.8279,1.1971,-10.7539,0.0415,-0.0518,0.0662,64
13.625,263,9.4773,-1.9759,-11.2624,0.0948,-0.0795,-0.0413,93,12.729,245,8.7407,1.1965,-10.9077,-0.0081,-0.1435,0.0247,64
13.677,264,9.4379,-1.8767,-11.2953,0.0399,-0.076,-0.0503,93,12.781,246,8.7446,1.2506,-10.9617,-0.0365,-0.0647,-0.0231,64
13.729,265,9.4574,-1.7572,-11.3337,0.0294,-0.0209,-0.0422,93,12.833,247,8.8176,1.4356,-10.9036,-0.0572,-0.0398,-0.1022,64
13.781,266,9.4572,-1.6819,-11.3244,0.0195,0.0433,-0.0151,93,12.885,248,8.8477,1.3528,-10.9271,-0.0446,-0.056,-0.0646,64
13.833,267,9.4635,-1.6423,-11.2688,0.0069,0.0812,0.0321,93,12.937,249,8.8356,1.3454,-10.9385,-0.0254,-0.1204,0.0119,64
13.884,268,9.4579,-1.7052,-11.1852,-0.0073,0.0756,0.053,93,12.988,250,8.8228,1.2374,-11.0648,-0.0045,-0.1689,0.0543,64
13.936,269,9.5047,-1.7062,-11.1539,-0.0361,0.0448,0.0455,93,13.04,251,8.8312,1.2004,-11.1311,-0.0067,-0.1163,0.047,64
13.988,270,9.7159,-1.7312,-11.464,-0.0505,0.003,0.0478,93,13.092,252,8.8283,1.1907,-11.167,-0.0107,-0.0254,0.0113,64
14.039,271,9.6465,-1.7413,-11.3523,-0.0731,-0.0572,0.0414,93,13.144,253,8.8323,1.2272,-11.1396,-0.0035,0.0675,-0.0091,64
14.091,272,9.5709,-1.6926,-11.3993,-0.089,-0.0948,0.0486,93,13.195,254,8.8421,1.2728,-11.0599,0.0051,0.1015,0.0156,64
14.143,273,9.3792,-1.6928,-11.5854,-0.094,-0.1159,0.074,93,13.247,255,8.8765,1.2432,-11.027,0.028,0.0846,0.0659,64
14.195,274,9.4134,-1.718,-11.6047,-0.0662,-0.1086,0.0894,93,13.299,256,8.8709,1.2026,-10.9665,0.0486,0.0478,0.0972,64
14.247,275,9.3997,-1.7409,-11.5796,-0.0284,-0.0713,0.0889,93,13.351,257,8.8516,1.1541,-10.8968,0.0844,0.0216,0.1209,64
14.298,276,9.3894,-1.7738,-11.5762,-0.0091,-0.0289,0.084,93,13.403,258,8.8328,1.0743,-10.9304,0.1102,-0.0194,0.1421,64
14.351,277,9.3712,-1.8199,-11.5455,0.0077,0.0185,0.0686,93,13.455,259,8.8281,0.9773,-10.9501,0.1114,-0.049,0.1762,64
14.402,278,9.3724,-1.829,-11.4969,0.016,0.0518,0.0385,93,13.506,260,8.8423,0.8834,-10.9895,0.0994,-0.0604,0.1848,64
14.454,279,9.4288,-1.6348,-11.4175,-0.0003,0.0489,0.0372,93,13.558,261,8.8408,0.7769,-11.0231,0.0793,-0.0524,0.1694,64
14.506,280,9.4184,-1.4769,-11.4479,-0.0386,0.0783,0.1331,93,13.61,262,8.8512,0.6718,-11.0635,0.0611,-0.0188,0.1416,64
14.558,281,9.3547,-1.7058,-11.4313,-0.0386,0.0949,0.1159,93,13.662,263,8.8712,0.595,-11.0308,0.0338,0.0264,0.0954,64
