right_leg_timestamp,right_leg_index,right_leg_accel_x,right_leg_accel_y,right_leg_accel_z,right_leg_gyro_x,right_leg_gyro_y,right_leg_gyro_z,right_leg_battery_percentage,left_leg_timestamp,left_leg_index,left_leg_accel_x,left_leg_accel_y,left_leg_accel_z,left_leg_gyro_x,left_leg_gyro_y,left_leg_gyro_z,left_leg_battery_percentage
0.536,10,11.7219,0.9567,-13.2979,-0.1802,0.027,0.3601,94,0.087,1,3.2906,0.9274,-16.7969,-0.4256,-0.6352,0.9712,63
0.588,11,13.7221,-0.4697,-9.9113,0.5054,0.6981,0.1562,94,0.138,2,7.5189,-0.6324,-14.3418,-0.1105,-0.2955,0.6768,63
0.64,12,10.0,4.9907,-14.752,0.2608,0.6681,-0.263,94,0.19,3,8.0273,-1.9463,-17.7427,-0.4806,0.4297,-0.034,63
0.691,13,6.6524,1.0401,-12.4541,-0.3405,0.2646,-0.6041,94,0.242,4,8.7197,-0.9895,-15.1872,0.1406,0.9986,-0.6886,63
0.743,14,5.1764,-0.5095,-12.2206,0.0072,-0.0922,-0.612,94,0.294,5,3.7892,2.466,-17.5299,0.0872,1.184,-0.4731,63
0.795,15,2.6039,-2.8352,-11.9028,-0.67,0.0733,-0.2791,94,0.346,6,3.9583,-0.1884,-16.4207,-0.6134,0.1974,-0.3207,63
0.847,16,7.1662,-7.3063,-9.9873,-0.3157,-0.3196,-0.2941,94,0.397,7,3.6843,0.094,-14.4465,-0.7602,-0.5227,-0.3628,63
0.899,17,6.6881,-2.9834,-14.1896,0.2918,0.0818,0.4604,94,0.449,8,1.8239,-0.4468,-17.6283,-1.0554,-0.8547,-0.4777,63
0.95,18,8.9878,-5.3817,-13.2888,-0.2416,0.736,1.0138,94,0.501,9,6.4484,4.966,-14.6204,-0.7419,-1.2653,-0.2773,63
1.002,19,5.466,-1.8065,-15.5245,0.0584,1.034,1.1997,94,0.553,10,6.6569,3.1184,-16.2642,-0.7237,-1.5205,-0.3322,63
1.054,20,4.851,-1.4415,-14.3636,0.7192,0.0813,0.6422,94,0.605,11,7.7745,1.8274,-16.8732,-0.5843,-0.4248,-0.5827,63
1.106,21,3.9171,0.2896,-13.549,1.1145,-0.6141,0.2369,94,0.656,12,10.7915,1.1531,-14.9254,-0.3067,-0.2817,-0.5542,63
1.158,22,8.1246,5.5633,-17.8935,0.4267,-1.0467,0.0785,94,0.708,13,8.6257,-0.4728,-12.2612,-0.1349,0.4794,-0.9465,63
1.209,23,2.2239,2.3519,-19.2865,0.2029,-1.4373,-0.502,94,0.76,14,3.4207,-0.5685,-13.4811,0.5649,0.6551,-0.4752,63
1.261,24,3.667,1.633,-19.4205,0.1299,-1.1565,-0.3059,94,0.812,15,1.9092,-0.8907,-12.9497,0.6203,0.0594,0.3178,63
1.313,25,5.6927,0.9319,-19.0814,0.6981,-0.1657,0.0668,94,0.864,16,1.0086,-0.9828,-11.7782,-0.0508,-0.2298,0.8164,63
1.365,26,9.4205,-0.9737,-16.7899,-0.1424,-0.2636,0.571,94,0.915,17,2.922,-0.9038,-14.4211,-0.4615,-0.1631,1.2079,63
1.417,27,7.2495,0.3285,-20.2589,-0.2154,0.486,-0.0632,94,0.967,18,7.2499,-0.5925,-11.1955,-0.4634,0.2352,0.8637,63
1.468,28,1.8378,0.1587,-15.508,-0.4591,0.3978,-0.5192,94,1.019,19,7.2512,-2.7159,-13.8303,-0.4801,0.8566,0.3921,63
1.52,29,3.4822,2.2454,-12.41,-0.221,-0.2523,-1.053,94,1.071,20,10.4096,-2.3483,-13.005,0.3242,1.3102,-0.3814,63
1.572,30,2.2312,0.8145,-13.2104,-0.7436,-0.8575,-0.9537,94,1.123,21,8.215,-7.0107,-17.4728,0.8983,1.6201,-0.9426,63
1.624,31,1.0543,3.0679,-17.6464,0.0168,-1.2979,-1.3513,94,1.174,22,6.6664,-2.7311,-15.477,0.0958,0.5156,-0.574,63
1.676,32,1.0345,5.2309,-15.5978,-0.0005,-1.5669,-1.6293,94,1.226,23,6.1256,-2.4255,-13.1143,-0.1783,-0.2905,-0.3504,63
1.727,33,4.3307,4.236,-15.3528,0.2278,-0.4652,-0.5114,94,1.278,24,4.6798,-1.8438,-10.9528,-0.4566,-0.7965,-0.1641,63
1.779,34,6.7125,2.1096,-17.2119,-0.4866,-0.2773,0.2977,94,1.329,25,5.39,-6.6425,-7.2676,-0.9532,-1.2481,0.295,63
1.831,35,3.981,4.9529,-20.5669,-0.5985,0.4429,0.3835,94,1.381,26,0.343,-4.8715,-11.6871,-0.4178,-1.5777,0.3351,63
1.883,36,2.2515,1.3988,-16.6578,-0.2636,0.0756,-0.3617,94,1.433,27,2.8511,-4.1796,-14.1636,-0.3992,-0.5167,-0.1313,63
1.935,37,2.2715,1.3723,-14.705,0.4841,-0.6182,-0.6926,94,1.485,28,7.1981,-8.0471,-17.8647,0.1098,0.3066,-0.1416,63
1.986,38,1.088,3.6714,-12.6029,1.0299,-0.611,-1.0537,94,1.537,29,6.0975,-7.9947,-16.9846,0.5178,0.9088,-0.6565,63
2.038,39,6.0598,-2.5575,-6.6141,0.1218,-1.1194,-0.8098,94,1.588,30,2.2202,-0.6219,-14.7394,1.0526,0.645,-0.1934,63
2.09,40,7.7295,0.3275,-9.8832,-0.1671,-1.4904,-0.7107,94,1.64,31,0.3502,-0.9325,-14.2127,0.8497,-0.0857,0.5302,63
2.142,41,9.7756,-0.3141,-12.2104,0.2716,-0.4094,0.059,94,1.692,32,-0.3503,-0.6788,-13.0888,1.2948,-0.4415,0.6507,63
2.194,42,12.4004,-2.7626,-7.1735,-0.2117,-0.3569,0.1668,94,1.744,33,-1.567,-5.7922,-17.534,1.4504,-0.4581,0.1629,63
2.245,43,7.7149,-1.223,-13.2404,0.3244,0.4179,0.0944,94,1.796,34,3.9736,1.0647,-17.6296,1.477,-0.8622,0.2454,63
2.297,44,0.4789,-2.1429,-8.7294,0.679,0.308,-0.3951,94,1.847,35,5.1112,0.4124,-18.6344,1.2544,-0.0965,0.0536,63
2.349,45,1.5217,-0.5426,-8.427,1.1721,-0.4486,-0.9434,94,1.899,36,8.8477,-0.2317,-16.7898,1.546,0.5268,-0.3462,63
2.401,46,1.4421,-1.4887,-8.1184,1.532,-0.812,-1.0924,94,1.951,37,7.7194,-0.5511,-15.0514,1.6857,1.0695,-0.7435,63
2.453,47,-0.0714,4.2654,-13.93,1.4774,-1.1671,-1.3387,94,2.003,38,6.2823,0.1432,-13.1117,0.5532,0.1373,-0.3289,63
2.504,48,5.2136,0.2743,-7.5827,0.741,-0.5114,-0.5912,94,2.055,39,6.2717,-1.2002,-11.5873,-0.2733,-0.5666,0.2542,63
2.556,49,5.2117,1.6935,-13.4583,0.7842,0.1356,0.0516,94,2.106,40,4.1363,-0.84,-10.7784,-0.043,-0.537,0.3502,63
2.608,50,9.0694,0.8873,-13.7415,-0.0484,0.7773,0.5677,94,2.158,41,1.7214,-5.7555,-15.8478,-0.2431,-0.4614,0.1738,63
2.66,51,6.3003,2.1204,-17.9631,-0.5904,1.2457,0.8485,94,2.21,42,1.6162,-3.989,-18.1844,0.4729,-0.4175,0.5815,63
2.712,52,3.6328,2.0433,-15.8448,-0.9978,1.469,0.763,94,2.262,43,6.111,-4.4926,-18.025,0.592,-0.7792,0.4517,63
2.764,53,3.4685,2.078,-12.6109,-0.5345,0.6147,0.5376,94,2.314,44,7.3145,-4.5468,-17.9735,0.7973,0.1163,0.2808,63
2.815,54,2.0601,2.4887,-12.0411,-0.9726,0.5737,0.585,94,2.365,45,10.4558,-6.6698,-15.0513,0.0045,0.533,-0.3799,63
2.867,55,0.9511,3.6294,-16.3086,-1.0472,-0.2547,0.4326,94,2.417,46,5.4936,-7.0513,-18.9663,0.678,1.074,-0.5404,63
2.919,56,-4.2661,4.7576,-18.7914,-1.1062,-0.8593,-0.3583,94,2.469,47,7.8279,-8.285,-16.815,-0.1823,0.1171,0.2704,63
2.971,57,-0.3584,4.1702,-18.6428,-0.7069,-0.6421,-0.0895,94,2.521,48,5.1213,-7.0674,-14.0221,-0.1416,0.2021,0.2929,63
3.023,58,3.6445,2.6403,-17.9805,0.1458,0.2097,0.6124,94,2.572,49,3.8207,-5.2915,-12.5872,0.5713,0.6312,-0.0359,63
3.074,59,7.9257,-3.3101,-17.2591,-0.4431,0.5949,0.9539,94,2.624,50,4.2729,-3.154,-13.3577,1.0916,0.218,-0.2683,63
3.126,60,4.6158,2.9361,-20.6013,-0.7323,1.0353,0.6972,94,2.676,51,8.2358,1.8651,-7.1413,0.7879,-0.5058,0.3187,63
3.178,61,3.853,1.135,-18.4125,-0.2359,0.0822,-0.1652,94,2.728,52,10.2463,-0.4223,-13.1932,0.1006,-0.318,0.4026,63
3.23,62,2.7393,2.6144,-13.7103,0.3646,0.7282,-0.7116,94,2.78,53,12.5955,1.1051,-10.8017,0.7481,0.4529,-0.3738,63
3.281,63,2.7091,-0.6679,-12.0948,-0.0485,1.2098,-0.2849,94,2.831,54,4.0495,4.6488,-11.8427,0.4758,0.8461,0.2095,63
3.333,64,2.2281,0.272,-16.8322,0.4696,0.2096,-0.8819,94,2.883,55,4.2247,2.3794,-11.7174,-0.3298,-0.0493,0.2257,63
3.385,65,6.8919,-1.2472,-19.7067,0.4667,-0.5204,-1.3177,94,2.935,56,2.3753,-0.2938,-10.3103,-0.9143,-0.06,0.0796,63
3.437,66,9.1666,-0.8522,-18.1655,0.2245,0.2985,-0.5818,94,2.987,57,2.0603,0.0166,-10.354,-1.0124,-0.0436,0.0159,63
3.489,67,11.9559,-4.2595,-16.1615,-0.1298,0.7238,0.2518,94,3.039,58,0.735,-4.7118,-15.538,-0.9337,-0.4335,0.0089,63
3.54,68,7.6329,2.1943,-19.8003,-0.7699,1.1182,0.5987,94,3.09,59,5.6538,-3.0042,-15.7891,-1.031,-0.9832,0.5537,63
3.592,69,4.0629,-0.0601,-18.0316,-0.9135,0.8228,0.0012,94,3.142,60,8.491,-3.5366,-16.982,-0.7976,-1.2997,0.2572,63
3.644,70,3.7971,0.2311,-15.7546,0.0098,-0.0729,-0.1987,94,3.194,61,8.696,-3.0723,-18.0445,-0.4787,-0.2636,0.0867,63
3.696,71,2.9725,0.5107,-15.012,0.5539,-0.7264,-0.0619,94,3.246,62,11.464,0.3904,-16.9387,0.2758,0.4926,-0.5279,63
3.748,72,-0.0317,3.895,-18.9613,-0.2154,-1.1308,-0.4796,94,3.297,63,5.5714,-5.0119,-18.8856,0.8759,1.0445,-1.0359,63
3.8,73,3.0387,2.327,-15.3616,-0.6105,-1.4987,-0.9713,94,3.349,64,6.67,-1.2563,-14.997,0.55,0.0955,-0.1644,63
3.851,74,5.6635,2.4431,-15.9169,-0.5004,-1.1543,-0.7862,94,3.401,65,4.9199,-3.1426,-12.8614,0.4912,-0.0304,0.1037,63
3.903,75,7.2736,3.0443,-15.4957,0.2457,-0.1641,0.0672,94,3.453,66,3.6736,-0.5932,-11.9649,0.9477,0.1003,0.1219,63
3.955,76,10.5743,-2.9206,-13.5958,-0.032,0.3937,0.7268,94,3.505,67,2.0268,0.0878,-11.2715,0.0351,-0.1016,0.2356,63
4.007,77,6.184,2.2542,-14.531,0.1255,0.9657,1.1274,94,3.557,68,6.5965,0.7612,-10.5235,0.5835,-0.1427,0.417,63
4.059,78,1.3454,0.1688,-10.0088,0.0488,0.6313,0.1569,94,3.608,69,8.0189,-0.3112,-13.3507,0.4741,-0.2097,0.495,63
4.11,79,2.7095,0.4586,-9.2602,0.7122,-0.2127,-0.5595,94,3.66,70,10.9699,-1.6526,-11.2613,0.1705,0.145,-0.0118,63
4.162,80,1.2649,-0.7989,-8.7617,0.8396,0.0664,-0.8545,94,3.712,71,9.0261,-2.0955,-14.7601,0.7991,0.7908,-0.68,63
4.214,81,-2.7348,4.7688,-14.3996,0.0841,-0.337,-1.0826,94,3.764,72,6.3573,0.3358,-12.2815,-0.0755,-0.0106,-0.4146,63
4.266,82,3.2698,2.2253,-11.0509,-0.6139,-0.9193,-1.2506,94,3.815,73,5.2216,0.266,-11.4775,-0.7322,-0.6745,-0.0328,63
4.318,83,6.365,2.2889,-12.4495,-0.3584,-0.0024,-0.5373,94,3.867,74,3.5651,-0.3828,-11.2738,-1.0457,-0.6553,0.0327,63
4.369,84,9.9112,0.3637,-12.5465,-0.9368,-0.3643,0.2845,94,3.919,75,2.5466,-0.8189,-10.6105,-1.4333,-0.6417,0.0342,63
4.421,85,6.8269,5.2285,-17.1618,-1.3589,0.1448,0.6387,94,3.971,76,3.7373,1.8128,-5.1363,-0.9418,-1.0121,0.4239,63
4.473,86,3.307,1.2756,-14.918,-1.667,0.784,0.7046,94,4.023,77,-0.3166,-0.6224,-10.5844,-0.8005,-1.4055,0.9848,63
4.525,87,2.5182,2.1174,-14.062,-0.5401,-0.1012,-0.0696,94,4.074,78,3.5137,-2.1228,-13.9908,-0.703,-0.36,0.5568,63
4.577,88,1.9425,2.7192,-12.2901,0.2823,-0.7463,-0.4443,94,4.126,79,4.7361,-3.8741,-18.1923,-0.1873,0.4019,0.3311,63
4.628,89,0.8526,3.6935,-13.8633,0.1845,-0.3443,-0.5122,94,4.178,80,8.1912,-3.7607,-14.3553,0.4961,0.9783,-0.4297,63
4.68,90,2.3711,-2.5414,-10.5661,-0.2894,-0.5868,-0.4341,94,4.23,81,0.5057,0.1076,-14.3539,1.0368,1.3989,0.2034,63
4.732,91,3.6432,-1.964,-14.0926,-0.7213,-1.1017,-0.7008,94,4.281,82,-1.1212,0.2794,-12.94,0.0796,0.7845,0.8283,63
4.784,92,6.5577,-1.1268,-16.6052,-0.5167,-0.1614,-0.3326,94,4.333,83,-0.9866,-0.8125,-11.8988,0.5653,0.5876,0.796,63
4.836,93,10.0518,-0.0073,-16.688,-1.036,-0.0347,0.3167,94,4.385,84,-0.7799,0.57,-12.2295,1.0873,0.7148,0.3441,63
4.888,94,11.4134,-1.0451,-14.3389,-0.0796,0.653,0.6812,94,4.437,85,-1.7346,-0.5464,-16.9068,0.1165,0.4661,0.1567,63
4.939,95,6.4197,0.9615,-10.0876,0.034,1.155,0.9864,94,4.489,86,3.8513,2.4513,-16.3414,-0.103,-0.0233,0.4506,63
4.991,96,4.038,0.6,-9.9971,0.7014,0.2875,0.052,94,4.54,87,7.3029,-0.1912,-16.1086,0.0026,0.6063,-0.0173,63
5.043,97,3.5996,0.7549,-10.6791,1.0739,-0.3045,-0.4164,94,4.592,88,10.4473,1.4962,-14.1784,0.1989,1.0624,-0.0401,63
5.095,98,2.0261,-2.1299,-11.9038,0.2567,0.0228,-0.334,94,4.644,89,8.8396,1.2577,-16.4835,0.8198,1.4604,-0.7007,63
5.146,99,-3.8454,3.7974,-16.6928,-0.4398,-0.5349,-0.546,94,4.696,90,8.0563,1.8841,-13.8832,-0.0787,0.3991,-1.026,63
5.199,100,2.4592,2.3787,-17.755,-0.3513,-1.0638,-0.5981,94,4.748,91,6.4966,0.7993,-14.0449,-0.7345,-0.3755,-0.592,63
5.25,101,4.6938,2.2025,-17.3552,-0.068,-0.098,-0.1211,94,4.799,92,4.1539,-0.2364,-13.325,-1.2132,-0.6297,-0.2525,63
5.302,102,8.6915,-0.3749,-15.8788,-0.6326,-0.0352,0.4032,94,4.851,93,2.9099,-1.4863,-12.0806,-1.5567,-0.728,-0.1023,63
5.354,103,6.4928,4.0797,-19.5939,-1.1369,0.4782,0.8461,94,4.903,94,2.6803,2.8248,-10.3857,-0.883,-0.9828,0.3556,63
5.406,104,3.7788,0.5047,-16.0081,-1.505,1.0273,0.5215,94,4.955,95,-0.0318,3.4212,-13.2123,-0.3632,-1.3841,0.6434,63
5.458,105,3.4461,0.9949,-13.8374,-0.4219,0.0764,0.1857,94,5.007,96,2.6669,1.9267,-15.3918,-0.4133,-0.5617,-0.059,63
5.509,106,2.8234,2.4467,-13.1086,0.3686,-0.4379,-0.1723,94,5.058,97,7.0637,-2.818,-18.436,0.1793,0.2584,-0.1208,63
5.561,107,1.4328,1.6966,-12.1509,-0.1162,-0.529,-0.1398,94,5.11,98,8.5226,-7.3535,-20.9398,0.6862,0.8735,-0.6855,63
5.613,108,6.1382,-3.9988,-10.3414,-0.7601,-0.8355,-0.1208,94,5.162,99,5.6206,-0.0747,-14.8752,1.1755,0.2356,-0.1504,63
5.665,109,7.3552,-1.3339,-12.859,-1.0506,-1.2832,-0.3592,94,5.214,100,4.4229,-2.6387,-13.9724,0.1809,-0.0964,0.5706,63
5.716,110,10.0033,-1.1343,-13.7072,-0.5195,-0.2582,0.3817,94,5.266,101,3.1257,-1.8888,-12.981,0.7535,-0.031,1.0516,63
5.768,111,12.5666,-2.1126,-15.5247,-0.8513,0.3332,0.931,94,5.317,102,2.005,-1.6134,-13.2814,1.2246,0.2671,0.4889,63
5.82,112,11.4543,3.8101,-19.3355,-1.0895,0.9214,0.6181,94,5.369,103,-0.0961,-6.4743,-17.6746,0.2615,0.2403,-0.1256,63
5.872,113,7.3039,-1.6793,-14.7389,-1.1997,0.7715,0.8997,94,5.421,104,4.8667,-8.9016,-18.4252,0.0288,-0.2219,0.2279,63
5.924,114,6.0997,0.6457,-13.5402,-0.1991,0.1232,-0.0173,94,5.473,105,5.9986,-8.4904,-18.3798,0.187,0.4171,0.1551,63
5.976,115,4.7625,0.1783,-14.1536,-0.3974,-0.2208,-0.5055,94,5.525,106,9.4953,-7.7972,-15.4122,-0.3645,0.8091,-0.3827,63
6.027,116,2.6359,-2.7201,-14.3179,-0.8992,-0.3901,-0.4301,94,5.577,107,7.7775,-5.9419,-19.2297,0.4087,1.2755,-0.9507,63
6.079,117,2.2157,3.3667,-18.4547,0.0176,-0.9581,-0.9081,94,5.628,108,6.8322,-3.7406,-16.6845,-0.3788,0.2641,-0.835,63
6.131,118,6.8828,1.9297,-15.4834,-0.444,-1.3727,-0.9905,94,5.68,109,6.1878,-2.8668,-14.5501,-0.9535,-0.474,-0.4928,63
6.183,119,6.7079,2.9777,-16.6332,-0.7613,-0.3235,-0.3984,94,5.732,110,4.3546,-3.2552,-13.2177,-1.373,-0.6869,-0.1092,63
6.234,120,10.1615,-0.1812,-14.8911,-0.853,-0.2196,0.387,94,5.784,111,3.3234,-2.8049,-12.1304,-1.6771,-0.8817,0.108,63
6.286,121,5.6247,1.3373,-18.873,-0.8188,0.5181,0.785,94,5.836,112,7.5429,-7.3439,-6.2603,-1.814,-1.3103,0.5129,63
6.338,122,1.454,-0.7633,-14.5393,-0.5151,0.2111,0.5277,94,5.887,113,4.9695,-6.2616,-10.644,-1.1975,-1.6231,0.0034,63
6.39,123,2.3176,0.6277,-13.0137,-0.1093,-0.3147,0.3132,94,5.939,114,6.5011,-4.2263,-13.1416,-0.7756,-0.501,-0.2549,63
6.441,124,1.1712,0.8086,-13.5221,0.2798,-0.334,0.608,94,5.991,115,9.8621,-2.3603,-12.3947,0.1086,-0.1038,-0.2925,63
6.493,125,0.0639,2.4581,-17.0581,0.8807,-0.5717,0.3265,94,6.043,116,9.1711,-6.1841,-16.2013,0.7539,0.6092,-0.7423,63
6.545,126,-0.5765,-2.9123,-16.5489,0.1206,-1.0907,0.2663,94,6.095,117,5.0898,0.7787,-12.2625,1.2249,0.015,-0.5762,63
6.597,127,1.5606,-1.9724,-17.9971,0.0042,-1.1775,0.4043,94,6.146,118,5.0048,-0.0529,-10.9769,0.2169,-0.6558,0.1561,63
6.649,128,4.2723,-1.7808,-18.0282,0.4911,-0.181,0.846,94,6.198,119,3.6205,-1.7782,-10.816,0.1917,-0.6312,0.5338,63
6.701,129,8.3839,-4.23,-18.4255,-0.3047,0.5462,1.2031,94,6.25,120,3.108,-1.1685,-10.8092,0.8146,-0.5229,0.6334,63
6.753,130,6.8242,1.9754,-21.4526,-0.8976,0.3074,1.011,94,6.302,121,3.4391,3.9849,-13.4723,0.4667,-1.0484,0.9899,63
6.804,131,3.634,-1.4193,-17.6149,-1.0178,0.54,0.8366,94,6.354,122,1.1749,4.3166,-17.8139,0.1408,-0.3726,0.9819,63
6.856,132,3.0943,0.2899,-16.1024,-0.0663,-0.0516,-0.0343,94,6.405,123,3.4978,1.4754,-18.0682,0.3174,0.413,0.2851,63
6.908,133,2.3613,0.1594,-14.5021,0.0715,-0.1155,-0.2975,94,6.457,124,7.6702,1.4845,-15.7942,0.5632,0.9864,-0.4068,63
6.96,134,1.6667,-0.1451,-13.9083,0.4228,-0.1429,-0.5405,94,6.509,125,4.9176,-1.9933,-19.5085,0.9083,1.4049,-0.8449,63
7.012,135,6.4822,-5.3429,-7.5668,0.7864,0.1768,-0.0038,94,6.561,126,4.6952,-0.9836,-16.675,0.5478,0.3586,-0.668,63
7.063,136,8.2569,-2.176,-10.9652,0.4444,-0.1025,0.0614,94,6.613,127,4.6278,-0.7296,-14.8664,-0.0269,-0.4051,-0.3783,63
7.115,137,10.6735,-0.9572,-10.9032,0.4711,0.6036,0.7204,94,6.664,128,3.6453,-1.0208,-12.6382,-0.6134,-0.9568,-0.0737,63
7.167,138,9.9945,-0.6821,-10.7194,-0.2374,1.1189,1.2035,94,6.716,129,2.0111,-2.1519,-10.435,-1.1247,-1.1029,0.4586,63
7.219,139,5.9475,0.726,-13.4642,-0.8484,1.483,1.5464,94,6.768,130,3.6871,-2.0368,-13.1639,-1.4487,-1.2441,0.3392,63
7.271,140,4.8195,1.2088,-12.3389,0.0573,0.409,0.4763,94,6.82,131,2.7482,-6.7834,-13.503,-1.4268,-1.0212,0.5521,63
7.322,141,3.9824,2.9648,-11.8583,0.7184,-0.3749,-0.2182,94,6.872,132,5.2742,-8.0418,-17.8363,-0.7784,-0.0846,-0.1879,63
7.374,142,3.2154,3.8421,-11.7425,-0.0866,-0.6843,-0.3752,94,6.923,133,8.9667,-4.4451,-16.4079,-0.2456,0.6232,-0.6022,63
7.426,143,2.7583,2.2676,-14.2262,-0.5861,-1.1728,-0.4665,94,6.975,134,4.0347,-8.541,-17.7341,0.4954,1.1398,-1.0888,63
7.478,144,-2.7003,7.0069,-17.2095,-0.8949,-1.5294,-1.0145,94,7.027,135,3.4492,-4.439,-15.2095,0.8882,0.4967,-0.5012,63
7.53,145,-0.4127,4.8709,-18.6178,-0.5711,-1.2739,-0.6196,94,7.079,136,2.5291,-6.3723,-13.641,0.1664,-0.0244,0.3107,63
7.581,146,3.889,2.8523,-16.9165,0.1887,-0.2514,0.0863,94,7.13,137,2.4446,-4.6895,-12.9207,0.7685,-0.3476,0.7622,63
7.633,147,8.1041,0.2721,-16.0184,0.1269,0.4871,0.7218,94,7.182,138,2.1191,-0.795,-12.1949,1.2356,-0.4223,1.0225,63
7.685,148,5.4046,1.4739,-16.6773,0.4374,0.7116,0.9263,94,7.234,139,6.5695,2.0584,-6.2926,1.0329,-0.975,0.452,63
7.737,149,3.4355,2.261,-13.1525,0.9957,0.6428,0.0235,94,7.286,140,6.5271,1.4384,-10.2523,0.6768,-0.9516,0.5134,63
7.788,150,3.1303,2.5003,-11.4612,0.8173,0.2395,-0.6232,94,7.338,141,9.8811,-1.2415,-11.1221,0.646,-0.0095,-0.2529,63
7.84,151,1.8987,1.071,-12.0254,0.0778,0.1645,-0.4361,94,7.389,142,9.6755,0.7445,-10.5482,0.8722,0.678,-0.8379,63
7.892,152,-1.9858,6.1336,-16.7816,-0.3954,-0.3347,-0.8102,94,7.441,143,4.1686,3.0251,-10.1797,0.3532,0.1667,-0.9844,63
7.944,153,3.8164,1.663,-12.292,-0.9638,-0.7997,-1.1174,94,7.493,144,3.8326,1.4229,-10.2451,-0.4193,-0.5442,-0.7194,63
7.996,154,4.882,1.8835,-13.5417,-0.6625,-0.0055,-0.6241,94,7.544,145,2.718,-1.1924,-10.0891,-0.9831,-0.5238,-0.3622,63
8.048,155,8.6208,1.0575,-11.0755,-0.2513,-0.4795,-0.1551,94,7.596,146,1.6,-0.9544,-10.2208,-1.3946,-0.463,-0.171,63
8.099,156,9.1716,0.497,-12.6531,-0.4074,0.3284,0.5502,94,7.648,147,-1.1102,-2.6968,-15.4408,-1.103,-0.3938,-0.0465,63
8.151,157,5.5536,0.7044,-10.7708,-0.4846,0.8238,0.8884,94,7.7,148,-3.6149,-3.7433,-17.8152,-0.8727,-0.9542,0.3798,63
8.203,158,4.584,-0.669,-10.6239,0.2486,-0.0722,0.6609,94,7.752,149,-0.7512,-2.9121,-19.0254,-0.5556,-0.815,0.2443,63
8.255,159,3.9562,-0.4169,-10.1526,0.8579,-0.5476,0.2424,94,7.804,150,2.5217,-2.5495,-18.8259,-0.2528,0.0901,-0.0525,63
8.307,160,2.0167,0.7687,-9.213,1.3027,-0.5422,-0.0775,94,7.856,151,5.4537,0.5863,-17.1027,0.4902,0.7508,-0.7097,63
8.358,161,6.7376,-4.676,-4.14,0.6091,-0.7941,0.2833,94,7.907,152,3.2411,-4.465,-20.4635,1.0325,1.2329,-1.1251,63
8.41,162,7.1312,-3.3636,-8.6138,0.4402,-1.253,0.1884,94,7.959,153,2.6958,-2.0227,-16.3432,0.3449,0.7181,-0.613,63
8.462,163,8.1276,-2.3941,-11.7005,0.1755,-0.3216,0.3149,94,8.011,154,2.9082,-2.3338,-14.5507,-0.165,-0.02,0.2303,63
8.514,164,8.2581,0.0676,-15.2816,0.7966,0.4437,0.6012,94,8.062,155,2.5512,-2.2495,-13.4742,-0.0425,-0.6519,0.6226,63
8.566,165,11.2929,-2.765,-13.0137,0.8182,1.0022,1.1165,94,8.114,156,1.4561,-0.927,-13.1396,0.5409,-0.7706,0.7296,63
8.617,166,7.3996,-0.4958,-14.1836,1.1944,1.4098,1.3218,94,8.166,157,0.4025,-1.2035,-6.9821,0.0172,-0.7098,0.7596,63
8.669,167,4.4201,2.3179,-12.3296,1.5482,1.2702,0.2907,94,8.218,158,2.9801,-2.3099,-10.5036,0.0297,-0.6847,0.4835,63
8.721,168,4.1432,2.9576,-12.1759,0.5845,0.2624,-0.4371,94,8.27,159,5.6793,-2.3515,-12.1325,0.3191,0.1852,-0.3139,63
8.773,169,3.5053,1.5305,-12.0888,-0.0694,-0.3107,-0.3677,94,8.321,160,7.3552,-0.6802,-11.8095,0.5681,0.8202,-0.8895,63
8.825,170,0.0612,6.4689,-16.8278,-0.546,-0.7876,-0.8305,94,8.373,161,4.6172,-3.4174,-16.6003,1.0893,1.2836,-1.3206,63
8.876,171,3.8417,4.2997,-20.2866,-0.7486,-1.2482,-1.2415,94,8.425,162,3.6229,-0.9428,-14.3938,0.3394,0.2724,-0.9582,63
8.928,172,5.8447,4.1604,-20.1786,-0.442,-0.7862,-0.7288,94,8.477,163,3.1737,-1.3766,-13.3933,-0.4294,-0.468,-0.4151,63
8.98,173,7.2478,7.1974,-19.4833,-0.0997,0.1046,-0.1685,94,8.529,164,2.1192,-1.5854,-12.932,-0.9904,-1.0083,-0.1551,63
9.032,174,10.5284,4.3162,-15.3718,-0.573,0.7412,0.5548,94,8.58,165,0.5515,1.3639,-17.3622,-0.7577,-1.3389,0.1226,63
9.084,175,6.9573,3.6898,-14.1508,-1.0713,1.2193,1.0826,94,8.632,166,-0.7204,0.3139,-20.5532,-0.0787,-1.644,0.7698,63
9.135,176,4.3755,0.9272,-13.1379,-0.2485,0.7131,0.1162,94,8.684,167,1.5875,-0.6862,-20.6891,-0.1368,-1.071,0.2365,63
9.187,177,3.5416,1.7404,-12.354,0.4952,-0.1529,-0.3757,94,8.736,168,4.6338,-1.187,-20.0655,0.054,-0.0967,-0.3377,63
9.239,178,2.3342,1.579,-11.7876,0.2788,0.06,-0.8135,94,8.787,169,5.5168,0.1401,-17.3943,0.222,0.6144,-0.9126,63
9.291,179,6.9693,1.8328,-8.268,-0.1041,-0.5639,-0.0634,94,8.839,170,2.0534,-1.8769,-18.9676,0.8367,1.1334,-1.1873,63
9.343,180,7.8919,2.4609,-10.9701,-0.2623,-1.0849,-0.1364,94,8.891,171,2.8807,-1.0499,-15.6371,0.436,0.3029,-0.547,63
9.394,181,8.7371,1.6019,-13.5772,0.199,-0.4627,0.4487,94,8.943,172,3.7986,-1.1337,-14.2757,-0.3588,-0.4458,0.2659,63
9.446,182,9.0292,2.9576,-17.6241,-0.4114,0.0025,0.1678,94,8.995,173,2.2415,1.8701,-13.5676,-0.939,-0.9097,0.6956,63
9.498,183,9.2884,0.8313,-14.0709,0.0164,0.6801,0.7309,94,9.046,174,-0.9188,-3.5992,-17.8834,-1.3624,-0.1323,0.7385,63
9.55,184,6.2138,1.3033,-14.236,-0.6633,1.1748,0.3794,94,9.098,175,-2.4516,-4.7659,-21.0333,-0.4936,-0.7634,1.0099,63
9.602,185,1.6415,-0.2142,-11.9393,-0.2917,0.9421,-0.2985,94,9.15,176,0.6088,-4.2723,-21.3035,-0.9923,0.0638,0.0656,63
9.653,186,1.4492,0.516,-12.4896,0.4636,0.0142,-0.8386,94,9.202,177,5.5616,1.2551,-20.4676,-0.0495,0.5998,-0.1809,63
9.705,187,1.6017,-2.1755,-12.0065,1.0149,-0.6631,-1.139,94,9.254,178,6.445,-4.3807,-19.4823,0.3867,1.1227,-0.6273,63
9.757,188,6.4348,3.7641,-10.6397,1.4173,-0.0034,-1.5053,94,9.305,179,4.0163,2.0949,-14.9425,0.9569,0.859,-0.1519,63
9.809,189,1.7012,8.0991,-15.7702,1.5948,-0.5761,-0.959,94,9.357,180,2.7963,-1.4916,-13.3783,0.0213,0.3984,0.5695,63
9.861,190,4.9355,5.7386,-14.6718,1.1119,0.2579,-0.0222,94,9.409,181,2.3938,-2.9255,-13.4762,0.6861,0.2129,0.6801,63
9.912,191,8.8679,-1.0488,-12.784,0.4951,0.3576,0.6615,94,9.461,182,0.7699,3.157,-14.8711,1.0351,0.2638,0.8722,63
9.964,192,5.7498,4.5865,-17.3352,-0.3065,0.8966,0.6568,94,9.512,183,-1.8233,-2.9927,-18.8347,0.527,0.1445,0.1483,63
10.016,193,3.4085,2.4521,-15.3151,-0.0489,0.1706,0.0292,94,9.564,184,-3.8955,-7.4766,-17.1793,-0.2239,-0.5613,0.7886,63
10.068,194,3.0679,3.5085,-12.1302,0.3153,-0.2165,-0.3984,94,9.616,185,-0.8342,-6.3669,-17.7119,-0.2154,-0.1234,0.3421,63
10.12,195,2.1237,2.8302,-12.9091,-0.4451,0.1103,-0.2983,94,9.668,186,4.5085,-5.7093,-18.2131,-0.1044,0.5949,0.2161,63
10.171,196,-0.3946,-3.1714,-17.4265,-1.0001,-0.0357,-0.3915,94,9.72,187,5.4524,-7.142,-18.8054,0.5985,1.1191,-0.5137,63
10.223,197,-3.5463,3.005,-10.1346,-0.9397,-0.3615,0.3588,94,9.771,188,4.365,0.0083,-15.54,0.9702,0.2307,-0.965,63
10.275,198,-1.4894,0.7667,-12.6109,-0.5291,-0.8632,0.6193,94,9.823,189,4.0648,-0.3877,-14.0383,0.031,-0.4984,-0.5838,63
10.327,199,3.6071,0.8342,-13.2655,-0.4138,0.0484,0.6939,94,9.875,190,3.4219,-0.9349,-12.6421,-0.6544,-1.0242,-0.3203,63
10.379,200,7.8984,-2.6209,-13.2168,-0.572,0.7121,1.0116,94,9.927,191,3.3712,-5.9791,-8.9562,-0.7403,-0.9224,-0.2973,63
10.43,201,5.273,-0.2197,-17.6511,-1.0927,1.1061,1.4121,94,9.979,192,7.5778,0.8457,-3.9289,-0.875,-0.8654,-0.4349,63
10.482,202,-1.4757,-2.4529,-12.1924,-1.4727,1.4807,0.483,94,10.03,193,7.9209,0.0957,-9.1047,-0.8769,-0.3998,-0.472,63
10.534,203,-0.117,-0.9804,-11.6529,-0.3983,0.4073,0.5969,94,10.082,194,10.8983,-2.0454,-11.2333,-0.2897,-0.4435,-0.6259,63
10.586,204,2.549,1.407,-10.8173,0.3858,-0.3761,0.0732,94,10.134,195,9.5817,-1.6511,-10.1963,0.4149,0.3612,-0.9628,63
10.638,205,6.8089,6.3788,-15.8999,0.8661,-0.5152,-0.6206,94,10.186,196,7.8849,-0.153,-9.3385,0.9775,0.1318,-0.7185,63
10.689,206,10.2352,9.904,-18.2594,0.1907,-1.0494,-0.7344,94,10.237,197,5.6422,0.8804,-9.307,0.7039,0.5098,-0.7555,63
10.741,207,10.3862,6.8152,-18.8285,0.3145,-0.0876,-0.195,94,10.289,198,4.6659,0.4064,-9.5558,0.7561,0.9656,-0.8761,63
10.793,208,12.8461,3.7402,-18.788,-0.4367,0.471,0.3614,94,10.341,199,6.0418,-4.6818,-12.6255,-0.1252,0.1172,-0.1456,63
10.845,209,11.7964,1.2543,-18.6618,-0.331,0.843,0.4125,94,10.393,200,9.5269,-4.9288,-14.3247,-0.5473,-0.3872,0.3651,63
