right_hand_timestamp,right_hand_index,right_hand_accel_x,right_hand_accel_y,right_hand_accel_z,right_hand_gyro_x,right_hand_gyro_y,right_hand_gyro_z,right_hand_battery_percentage,left_hand_timestamp,left_hand_index,left_hand_accel_x,left_hand_accel_y,left_hand_accel_z,left_hand_gyro_x,left_hand_gyro_y,left_hand_gyro_z,left_hand_battery_percentage,right_leg_timestamp,right_leg_index,right_leg_accel_x,right_leg_accel_y,right_leg_accel_z,right_leg_gyro_x,right_leg_gyro_y,right_leg_gyro_z,right_leg_battery_percentage,left_leg_timestamp,left_leg_index,left_leg_accel_x,left_leg_accel_y,left_leg_accel_z,left_leg_gyro_x,left_leg_gyro_y,left_leg_gyro_z,left_leg_battery_percentage
0.979,18,10.9961,-15.059,1.1731,0.8684,1.277,1.6178,90,0.663,12,6.6112,7.119,-12.2671,-1.7569,1.5931,-1.6106,90,0.044,0,9.3273,-0.5511,-12.8278,-0.0129,-0.5044,-0.8117,80,0.157,3,6.8062,2.0368,-11.5996,-0.2544,-0.9216,-0.6845,51
1.031,19,11.5074,-12.1435,-4.3991,1.3082,1.6144,1.8574,90,0.715,13,4.835,4.7752,-16.8929,-0.6105,0.5044,-1.1086,90,0.096,1,9.4671,-0.131,-12.8807,-0.0144,-0.7586,-0.9416,80,0.209,4,6.624,-1.6045,-9.9368,-0.7509,-0.104,0.1534,51
1.083,20,12.0295,-7.4568,-11.1831,1.6178,0.802,1.9462,90,0.766,14,5.2102,3.7539,-17.81,0.2261,-0.3045,-0.1437,90,0.147,2,9.3439,0.4882,-13.3986,-0.0073,-0.8698,-1.1969,80,0.26,5,3.9437,-4.7207,-12.9434,-1.2251,0.6091,-0.1649,51
1.135,21,12.2105,-4.2501,-15.8448,0.8419,-0.084,0.8462,90,0.818,15,5.7804,4.0995,-16.6906,0.8368,-0.8949,0.5605,90,0.199,3,8.8995,1.2124,-13.7492,-0.1481,-0.915,-1.4285,80,0.312,6,4.2453,-6.7579,-16.3312,-0.8049,0.6722,0.0331,51
1.186,22,13.7181,-3.3814,-17.9045,-0.0629,-0.7306,-0.0575,90,0.87,16,9.1077,6.1151,-12.8436,1.2824,-1.3258,1.0744,90,0.251,4,7.6201,2.3262,-14.1444,-0.3583,-0.8311,-1.1255,80,0.364,7,3.126,-6.7814,-16.6773,0.0872,-0.1762,0.6982,51
1.238,23,15.0684,-6.4075,-12.4807,-0.4633,-1.2026,-0.7171,90,0.922,17,11.5664,8.9813,-10.0702,1.6077,-1.3885,1.4495,90,0.303,5,8.2964,3.087,-10.0063,-0.8275,-0.0388,-0.2184,80,0.416,8,7.3988,0.3428,-16.7577,0.6842,0.5564,-0.1618,51
1.29,24,11.7813,-5.8129,-6.5178,-1.0155,-1.0736,-1.1985,90,0.974,18,13.3609,11.8818,-9.5498,1.8451,-0.7418,1.4694,90,0.355,6,11.3208,-1.8471,-9.5096,-0.3072,-0.0085,-0.4671,80,0.468,9,5.3052,-0.2434,-16.0631,1.173,-0.1816,0.5623,51
1.342,25,10.3227,-9.4403,-3.8643,-1.4186,-0.7881,-1.5498,90,1.025,19,11.6277,10.8423,-9.5032,0.6717,-0.5551,1.2538,90,0.407,7,9.0983,-1.9786,-9.6929,-0.4481,0.2659,-0.8638,80,0.519,10,6.7002,-1.3762,-16.1661,1.0757,0.4319,0.1802,51
1.393,26,10.3218,-10.4767,-2.2965,-0.3609,-1.2445,-0.5619,90,1.077,20,9.231,10.3529,-9.5807,1.149,0.0289,0.7615,90,0.459,8,7.3062,2.7429,-13.2345,-0.1519,-0.2691,-1.3045,80,0.571,11,6.1508,-3.1615,-15.9291,0.7149,0.6969,0.198,51
1.445,27,8.3231,-7.2248,-2.3983,0.3353,-1.1097,-0.0041,90,1.129,21,5.4123,12.8829,-9.0809,1.5103,0.6855,-0.1306,90,0.51,9,9.1299,3.5916,-14.9879,-0.7861,-0.8698,-1.1762,80,0.623,12,6.401,-2.864,-14.5624,0.5212,0.6026,0.4408,51
1.497,28,5.0694,-6.0801,-1.131,-0.4327,-0.6637,-0.0318,90,1.181,22,4.8591,14.7293,-9.437,0.4486,-0.1724,-0.7817,90,0.562,10,9.4228,-1.5639,-12.2114,-1.2489,-0.2706,-1.5289,80,0.675,13,7.0079,-2.449,-13.5727,0.6299,0.7218,0.9524,51
1.549,29,5.3168,-9.6352,1.7657,-0.9932,0.0789,0.6535,90,1.233,23,8.4656,16.077,-13.9332,-0.3526,-0.4704,-1.2569,90,0.614,11,6.3213,-1.171,-11.2986,-0.235,0.4809,-1.7899,80,0.726,14,6.6486,-3.5459,-12.3243,0.8632,1.0927,1.3755,51
1.601,30,8.9369,-12.2299,0.9477,-0.0505,0.74,1.1536,90,1.284,24,9.9289,15.3994,-18.1089,-0.9374,-0.1219,-1.4136,90,0.666,12,3.8899,3.3197,-16.2511,-0.2403,1.0293,-0.6286,80,0.778,15,6.6177,-4.9386,-11.4435,0.594,0.6164,1.0419,51
1.653,31,11.5791,-14.1237,-0.4285,0.6375,1.2225,1.5186,90,1.336,25,6.078,6.5569,-21.1565,-1.3642,0.5901,-1.6862,90,0.718,13,3.0876,2.8102,-15.5872,-0.101,0.5517,0.2189,80,0.83,16,9.5258,-3.8281,-12.3361,0.2783,-0.2169,0.089,51
1.704,32,12.5975,-7.4526,-8.3093,1.1397,1.5746,1.785,90,1.388,26,3.8392,8.0638,-23.3808,-0.3239,-0.242,-1.5699,90,0.769,14,2.3951,5.6349,-15.8734,0.2586,0.7494,0.7958,80,0.882,17,12.0697,1.8636,-16.9424,0.8778,-0.8251,0.5181,51
1.756,33,12.2467,-3.5653,-14.061,0.1544,0.4799,0.6276,90,1.44,27,7.7212,5.6148,-22.1251,-0.0638,-0.8493,-1.7217,90,0.821,15,5.3654,7.5203,-15.8365,0.5604,0.5612,1.0473,80,0.934,18,8.0718,-0.5901,-17.0145,1.3153,-0.2684,1.0584,51
1.808,34,13.9947,-3.9301,-15.7484,-0.5647,-0.3191,-0.217,90,1.492,28,8.9738,2.5031,-17.6422,0.6252,-0.0946,-1.7002,90,0.873,16,7.4917,5.4284,-13.4993,0.4096,0.4509,1.3981,80,0.985,19,11.0085,0.0715,-16.8671,1.6297,0.0914,1.4528,51
1.859,35,15.2702,-8.0661,-9.4764,-1.0895,-0.9022,-0.8335,90,1.544,29,7.4757,2.671,-12.3788,1.128,0.5425,-1.2634,90,0.925,17,8.7648,3.5736,-12.5982,0.6703,0.57,1.4232,80,1.037,20,12.7477,-1.8493,-17.3837,1.7582,-0.2832,1.7407,51
1.911,36,13.8443,-6.3838,-5.264,-1.1094,-1.3278,-1.2746,90,1.596,30,6.8141,7.2763,-9.9664,1.495,-0.2672,-0.2567,90,0.977,18,7.6829,2.1627,-12.1393,0.2261,0.719,1.5685,80,1.089,21,9.9554,-2.3716,-15.7445,1.1933,0.13,1.9508,51
1.963,37,12.8589,-4.3921,-2.1738,-1.4871,-1.6188,-1.6054,90,1.647,31,9.8925,8.8337,-8.7496,0.4206,0.1886,-0.5528,90,1.028,19,5.7662,1.0618,-10.9942,-0.2919,0.3399,1.6377,80,1.141,22,3.4911,-2.9652,-12.5707,0.2896,0.0923,1.9148,51
2.015,38,14.4414,-8.4033,-1.0913,-1.7627,-1.185,-1.8468,90,1.699,32,8.1646,7.3025,-8.3862,0.8203,0.8168,-0.5109,90,1.08,20,3.9055,0.1202,-10.4559,-0.2968,0.1135,1.233,80,1.193,23,0.875,-4.9765,-10.7077,-0.1915,-0.1409,0.7261,51
2.067,39,14.4128,-10.5025,-1.4015,-0.6163,-1.4849,-1.4195,90,1.751,33,6.296,6.7868,-9.3641,1.2058,1.2748,-0.6814,90,1.132,21,3.5457,2.6756,-13.2116,0.4549,-0.2581,1.5776,80,1.244,24,2.707,-6.7051,-11.6024,-0.7376,0.2672,-0.1415,51
2.118,40,11.4407,-7.2682,-3.296,0.0358,-1.3988,-1.1393,90,1.803,34,3.6903,3.9411,-10.2337,1.1841,1.4967,-0.185,90,1.184,22,3.2011,3.2465,-14.3021,1.0085,0.49,0.5624,80,1.296,25,2.5854,-6.1415,-10.4597,-0.076,-0.0217,-0.7747,51
2.17,41,8.7826,-6.3396,-4.3453,0.5944,-1.2436,-1.2754,90,1.855,35,1.0029,6.4651,-6.8848,1.5359,1.0139,-0.1152,90,1.235,23,6.9657,-2.8676,-11.2282,0.3987,0.0221,0.0743,80,1.348,26,3.3627,-7.229,-13.6608,-0.7325,0.6691,-1.2368,51
2.222,42,6.3019,-1.5619,-3.085,0.3547,-0.7829,-1.3485,90,1.906,36,-2.3329,10.0454,-2.7846,0.4453,1.4191,-0.7704,90,1.287,24,4.0009,-1.503,-11.8301,0.9098,0.4345,-0.4437,80,1.4,27,7.2373,-5.55,-12.8989,0.0825,0.3282,-1.5741,51
2.274,43,5.6833,-6.3377,0.1972,-0.4185,0.1111,-0.4091,90,1.958,37,2.9945,12.6584,-2.2789,-0.355,1.4102,-1.2487,90,1.339,25,5.417,-1.0919,-11.6091,0.3459,0.1697,-0.3849,80,1.452,28,9.4449,-2.6053,-11.2046,-0.1968,0.1544,-1.4657,51
2.325,44,9.2043,-9.8232,2.735,0.3689,0.7635,0.3781,90,2.01,38,5.682,14.5655,-4.7517,-0.9391,1.1105,-1.5977,90,1.391,26,6.4159,0.4655,-12.8265,0.1084,0.2545,-0.4053,80,1.503,29,10.9309,-1.1117,-10.701,0.0396,0.2923,-1.5643,51
2.377,45,11.7742,-12.3671,4.5873,0.5566,1.2396,0.9526,90,2.062,39,6.3759,6.1835,-11.2765,-1.3654,0.4173,-0.8613,90,1.442,27,8.195,-0.3863,-11.1367,-0.5961,-0.4815,0.1106,80,1.555,30,10.7286,0.5656,-10.3353,0.1825,0.4006,-1.545,51
2.429,46,13.6498,-10.4173,2.1391,1.0806,1.5872,1.3719,90,2.114,40,4.0857,0.7855,-16.1699,-0.3248,-0.3681,0.0368,90,1.494,28,5.2647,4.2971,-5.7056,-1.0491,-0.5666,0.6066,80,1.607,31,7.1783,0.7151,-10.4148,0.0968,0.2098,-0.6816,51
2.481,47,14.1146,-2.9202,-4.7499,0.4566,1.8408,1.1072,90,2.165,41,7.5343,0.3269,-19.7413,0.4347,-0.9414,0.6922,90,1.546,29,6.8115,5.0061,-8.0385,-1.3644,0.2615,0.1694,80,1.659,32,3.865,0.2158,-10.1395,-0.4147,0.8381,-0.7202,51
2.533,48,10.8133,-3.4553,-11.4632,-0.3442,0.8222,0.133,90,2.217,42,10.4181,5.5654,-22.1354,0.989,-1.3597,1.1706,90,1.598,30,7.5231,4.1736,-8.7623,-1.201,0.106,0.2512,80,1.71,33,2.2136,-2.2751,-14.6204,-0.919,0.9969,-1.197,51
2.584,49,12.9485,-4.7647,-12.8571,-0.9286,-0.0692,-0.5781,90,2.269,43,11.281,9.3888,-15.8567,1.3935,-1.0543,0.6046,90,1.65,31,8.0987,4.2314,-9.4742,-1.1703,0.3042,-0.1594,80,1.762,34,2.9217,-5.1936,-15.8499,-1.3478,0.0608,-1.1952,51
2.636,50,14.5069,-4.8365,-6.7925,-1.2576,-0.7199,-1.097,90,2.321,44,9.0589,11.3783,-13.2837,1.6888,-0.0904,-0.2434,90,1.701,32,8.2611,4.7767,-9.7104,-1.1687,0.5922,-0.1425,80,1.814,35,2.8701,-5.9865,-16.4881,-0.309,-0.1276,-0.2453,51
2.688,51,11.7134,-3.8758,-3.6266,-1.5952,-0.3488,-1.4758,90,2.373,45,11.5308,10.0684,-11.3277,1.8989,-0.4499,-0.8558,90,1.753,33,9.4686,3.9742,-9.814,-0.3457,0.0673,0.5686,80,1.866,36,5.778,-9.666,-11.5484,0.4233,0.5893,0.5013,51
2.74,52,9.837,-6.8339,-2.8203,-1.8416,0.1323,-1.7522,90,2.424,46,12.5781,12.063,-11.5418,1.7828,-0.0543,-1.3109,90,1.805,34,12.1763,-0.0703,-14.2215,-0.7866,-0.2175,0.4031,80,1.918,37,3.6451,-10.1019,-15.3276,-0.3225,0.8655,-0.0853,51
2.792,53,11.4174,-10.1854,-1.8444,-2.0061,-0.1019,-1.9539,90,2.476,47,11.7387,7.4782,-14.2704,0.6212,-0.2077,-0.4494,90,1.857,35,9.0716,-0.7529,-12.6232,-0.5331,0.5196,-0.3798,80,1.969,38,5.609,-6.6154,-14.0569,0.1352,1.0766,-0.4218,51
2.843,54,12.1605,-9.3311,-2.8655,-0.7898,-0.2312,-0.7494,90,2.528,48,8.4091,4.2254,-14.3705,0.5753,-0.2703,0.2896,90,1.909,36,8.641,0.1337,-6.6341,0.1312,0.3371,-0.9512,80,2.021,39,6.58,-5.2325,-13.6932,0.2615,0.8175,-0.4869,51
2.895,55,10.4305,-6.0144,-4.6948,-0.5157,0.1144,-0.3443,90,2.58,49,7.2056,5.4775,-14.0013,1.0,-0.6884,0.5462,90,1.96,37,6.1954,1.3344,-8.4211,-0.5794,0.9244,-0.6707,80,2.073,40,7.6324,-3.5434,-12.8825,0.0785,0.7113,-0.4222,51
2.947,56,9.4195,-4.4371,-5.9553,-1.0537,0.3614,-0.3463,90,2.632,50,4.2004,5.136,-12.8184,0.9285,-0.3032,0.4915,90,2.012,38,4.8311,1.3848,-9.7269,-0.6597,0.4342,-1.1636,80,2.125,41,7.5133,-1.9714,-12.5139,0.3216,0.4402,0.1369,51
2.999,57,8.3256,-2.6449,-6.3781,-1.4464,0.7562,-0.315,90,2.683,51,-0.6051,5.9794,-8.6521,1.3494,0.4306,0.5942,90,2.064,39,5.9756,5.2145,-12.2212,0.195,0.9953,-1.1039,80,2.176,42,8.0282,-2.2222,-12.7073,0.2499,0.3898,0.6078,51
3.051,58,4.3658,0.5253,-4.1766,-1.7331,1.2343,-0.8574,90,2.735,52,-1.67,9.6909,-11.41,1.6566,-0.3584,0.3342,90,2.116,40,4.426,9.1577,-15.548,0.4174,1.4047,-0.2299,80,2.228,43,8.2365,-2.0799,-12.7974,0.3585,0.4499,1.0147,51
3.102,59,2.0495,-1.9468,-5.1805,-0.8306,1.5107,-1.3009,90,2.787,53,3.7004,12.3997,-15.1844,0.529,-0.9342,-0.4425,90,2.168,41,1.8143,8.8608,-13.0566,-0.2708,0.4068,0.2909,80,2.28,44,8.137,-2.4086,-11.904,0.4417,0.4018,1.2637,51
3.154,60,5.2851,-6.6185,-4.1497,-0.3621,1.7394,-0.4435,90,2.839,54,7.62,14.3767,-19.0137,-0.2939,-1.3545,-1.0093,90,2.219,42,2.1655,9.1457,-11.8963,0.4789,0.4717,0.174,80,2.332,45,8.1999,-3.4231,-12.1883,0.4122,0.169,1.2359,51
3.206,61,8.9138,-10.0282,-1.5114,-0.3534,1.5285,0.353,90,2.891,55,10.4806,12.8335,-21.8168,-0.8945,-1.6613,-1.423,90,2.271,43,2.7461,7.2185,-11.1661,0.12,0.4373,0.2229,80,2.384,46,7.6359,-3.8432,-12.0728,0.3706,0.0017,0.4398,51
3.258,62,11.562,-12.5168,1.4881,0.4164,1.798,0.9343,90,2.942,56,7.8543,4.1057,-23.8627,-1.3329,-1.8851,-1.725,90,2.323,44,3.3908,4.8322,-10.7838,-0.5832,0.5228,0.7447,80,2.435,47,10.6903,-2.931,-14.4376,0.8166,-0.6655,-0.3504,51
3.309,63,13.4949,-6.5675,-4.7685,0.9783,1.9947,1.3585,90,2.994,57,8.3125,4.8795,-25.3559,-0.3011,-2.0485,-1.9453,90,2.375,45,5.2498,3.7754,-10.5049,-0.5954,0.4725,1.2213,80,2.487,48,7.0273,0.5748,-16.9203,1.2707,0.1881,-0.297,51
3.361,64,14.9057,-1.0369,-11.4768,0.9044,1.7072,1.2637,90,3.046,58,10.9861,6.9711,-18.3767,0.3872,-1.7044,-0.7929,90,2.427,46,7.2008,4.4729,-10.9513,-0.268,0.2951,1.5691,80,2.539,49,10.2461,5.7117,-16.7486,1.6021,0.3086,0.4636,51
3.413,65,15.9353,0.0524,-15.21,-0.0173,0.5767,0.2472,90,3.098,59,10.0672,8.6664,-12.9963,0.9543,-0.5649,0.0867,90,2.478,47,8.6994,3.4348,-9.9109,-0.6639,-0.1938,1.8229,80,2.59,50,7.4383,3.3857,-15.7335,0.4922,0.9102,-0.3034,51
3.465,66,16.6867,-4.7918,-8.5098,-0.69,-0.2485,-0.4947,90,3.15,60,6.6085,11.652,-12.6051,1.0079,0.2668,0.4234,90,2.53,48,9.9795,2.4216,-7.7356,-0.6719,-0.5663,1.9429,80,2.642,51,5.5703,1.796,-13.762,0.4206,0.0805,0.4589,51
3.517,67,14.7341,-8.695,-7.7439,-1.181,-0.0107,-1.0362,90,3.202,61,8.1876,13.831,-16.9883,0.2659,-0.4779,0.2637,90,2.582,49,9.3637,1.2907,-7.4911,-0.5699,-0.3574,1.6854,80,2.694,52,9.0492,-1.878,-17.7974,-0.3677,0.4058,0.0014,51
3.568,68,15.8101,-10.3152,-7.6811,-0.1876,-0.2252,-0.4048,90,3.254,62,8.2075,12.7013,-16.7593,-0.3115,0.0556,-0.1499,90,2.634,50,5.3387,0.2024,-7.7078,-0.9248,0.0545,1.2905,80,2.746,53,5.4436,-5.4612,-16.3888,-0.9455,0.5439,0.6011,51
3.62,69,16.5954,-6.8986,-7.9103,0.2261,0.518,0.3812,90,3.305,63,9.8077,12.2237,-15.2669,-0.474,0.0924,-0.7068,90,2.686,51,2.7946,-0.5079,-7.8173,-0.3221,0.4677,1.6192,80,2.798,54,3.0313,-8.5529,-15.9035,-0.6931,0.9231,-0.2089,51
3.672,70,16.8021,-4.3395,-8.7708,0.2978,1.0313,0.9549,90,3.357,64,8.0042,9.2363,-13.5103,-0.5677,0.4579,-0.8369,90,2.737,52,5.8514,4.9812,-13.1723,0.4414,-0.3321,1.8595,80,2.849,55,1.8482,-8.3793,-14.5333,-0.2142,0.2531,-0.0918,51
3.724,71,15.3329,-4.8193,-10.0163,0.8917,0.1358,1.3736,90,3.409,65,5.9968,6.8323,-12.1021,-0.2625,0.4628,-0.7069,90,2.789,53,4.351,7.4752,-15.4555,-0.353,0.3495,0.6831,80,2.901,56,0.9196,-7.016,-13.6079,-0.3072,-0.0548,-0.4303,51
3.775,72,12.8593,-2.97,-10.732,1.3252,-0.5702,1.6791,90,3.461,66,3.9533,4.5082,-11.5733,0.2086,0.6293,-0.3866,90,2.841,54,8.1312,10.8077,-13.0478,0.0809,-0.4011,1.1256,80,2.953,57,0.1915,-4.8474,-12.4849,-0.0766,-0.6513,-0.7378,51
3.827,73,9.8134,-1.3029,-9.8787,0.8186,-0.9064,1.2174,90,3.513,67,2.7517,3.2519,-11.1973,0.8063,0.6376,0.0227,90,2.893,55,8.2861,10.3365,-8.9513,-0.6034,0.3856,0.8975,80,3.005,58,0.913,-2.6493,-11.1421,0.2685,-0.918,-1.2099,51
3.879,74,7.15,-1.1865,-8.7903,-0.0299,-0.6797,0.5815,90,3.564,68,3.2687,2.668,-10.301,1.2602,0.5391,0.3921,90,2.944,56,10.3805,6.3883,-9.5255,-0.5341,0.3028,0.3975,80,3.057,59,2.4089,-0.9656,-9.8764,0.0002,-0.9709,-1.5544,51
3.931,75,5.2657,-0.689,-8.1702,-0.6983,0.0681,-0.0707,90,3.616,69,2.6947,3.091,-11.5779,1.4236,1.0725,0.7938,90,2.996,57,9.2262,5.6999,-10.5263,-0.6148,0.5155,0.0688,80,3.108,60,3.5206,-0.1812,-10.1025,-0.5482,-0.7058,-1.8059,51
3.983,76,3.3339,-1.0126,-8.553,-1.187,0.7321,-0.4491,90,3.668,70,3.208,7.5828,-11.9175,1.7107,1.4146,1.0003,90,3.048,58,9.6858,3.8417,-10.3179,-0.5979,0.4575,0.1432,80,3.16,61,7.6868,-1.6353,-15.3234,-0.9847,-0.5998,-1.9894,51
4.034,77,3.269,-3.3801,-7.599,-1.5437,1.2167,-0.8397,90,3.72,71,2.5077,10.8611,-13.1672,1.8145,0.8334,0.1664,90,3.1,59,9.8035,4.333,-11.2897,-0.7506,0.2779,-0.1022,80,3.212,62,8.7967,-5.9743,-16.0964,-0.9981,-0.0084,-1.4822,51
4.086,78,4.5321,-7.6647,-9.6176,-1.8041,1.5203,-0.5599,90,3.772,72,5.9862,13.2538,-11.1045,0.8851,-0.0644,-0.5649,90,3.152,60,9.9037,2.4988,-12.3524,-1.2231,0.3881,-0.2179,80,3.264,63,4.79,0.5141,-10.5264,-0.0538,0.6789,-0.5416,51
4.138,79,7.0219,-10.7917,-9.0079,-1.9941,0.779,0.268,90,3.823,73,9.2882,15.0,-11.238,-0.034,-0.7125,-1.0987,90,3.204,61,7.8846,-2.1321,-7.203,-1.5679,0.4683,-0.3305,80,3.316,64,8.0064,-0.2524,-12.1957,0.3627,0.2791,0.2851,51
4.189,80,10.1813,-13.074,-7.8245,-2.1327,-0.1008,0.8722,90,3.875,74,9.6498,16.2745,-13.6597,-0.7049,-0.4513,-1.4882,90,3.255,62,7.6361,2.1474,-6.9041,-0.9307,0.0773,0.2605,80,3.367,65,8.3381,-1.2367,-13.0955,-0.2055,-0.2438,0.794,51
4.241,81,12.4873,-14.7397,-8.4339,-0.8822,-0.7429,1.3132,90,3.927,75,10.3189,10.8036,-17.9092,-1.1945,-0.5899,-1.5486,90,3.307,63,5.9644,2.1735,-5.7626,-1.2309,0.7348,-0.4839,80,3.419,66,9.1441,-0.508,-13.0805,-0.2832,-0.2746,0.2966,51
4.293,82,14.1702,-13.5872,-12.7844,0.0305,-1.2115,1.6351,90,3.979,76,9.0602,4.449,-21.0108,-1.2916,-1.1032,-1.1056,90,3.359,64,9.1515,2.4067,-5.2171,-0.9156,0.2169,-0.4415,80,3.471,67,11.7911,2.1896,-14.5324,0.3813,-0.8672,0.5753,51
4.345,83,13.579,-4.5266,-17.2655,0.6967,-1.4199,1.7658,90,4.031,77,8.2306,1.8274,-21.7068,-0.271,-1.4778,-0.1627,90,3.411,65,10.2629,1.9334,-5.8219,-0.8272,0.5362,-0.3285,80,3.523,68,13.3019,6.8902,-11.8774,0.9353,-1.1383,0.8552,51
4.397,84,10.6785,2.0862,-19.571,-0.0474,-1.2999,0.6376,90,4.082,78,8.0792,4.1309,-20.5965,0.474,-1.7512,0.5466,90,3.463,66,12.756,-0.0201,-8.273,-0.5731,0.7095,-0.0963,80,3.575,69,8.9715,6.6183,-12.2935,1.2916,-0.1458,-0.0473,51
4.448,85,10.549,2.9795,-20.408,-0.712,-1.5358,-0.2097,90,4.134,79,8.8545,7.7774,-16.8745,1.0073,-1.7123,0.9261,90,3.514,67,14.5757,-0.0254,-11.3646,0.2583,1.1962,-0.7443,80,3.626,70,4.3962,7.1508,-11.5398,0.9708,0.1477,-0.7059,51
4.5,86,12.1935,-3.0232,-17.8066,-1.1626,-1.7873,-0.8282,90,4.186,80,6.9571,6.9489,-11.5702,1.2792,-1.0654,1.2655,90,3.566,68,13.9298,3.4773,-12.9203,0.189,0.4253,-1.1849,80,3.678,71,4.052,2.1876,-10.7421,0.0353,-0.559,-0.7208,51
4.552,87,10.8032,-7.4042,-13.507,-1.5259,-1.3998,-1.2796,90,4.238,81,5.5484,10.3985,-7.5501,1.6053,-0.8365,1.207,90,3.618,69,10.9396,4.2338,-10.832,-0.2408,0.4874,-1.5388,80,3.73,72,8.0746,6.8888,-15.8213,-0.6513,-1.0446,-1.0502,51
4.604,88,7.2471,-8.069,-10.9081,-0.5994,-0.3392,-0.9141,90,4.29,82,6.3009,12.9161,-6.9624,1.8242,0.0671,1.038,90,3.67,70,8.2709,4.9444,-9.543,-0.266,0.5847,-1.7971,80,3.782,73,9.337,8.1411,-17.6959,-1.1524,-1.4292,-0.0861,51
4.656,89,5.8616,-9.1942,-8.7123,-0.9316,-0.283,-1.179,90,4.342,83,3.4414,13.1165,-6.8225,0.7017,0.728,0.7246,90,3.722,71,4.3303,1.9962,-8.7887,0.0471,0.8481,-1.7854,80,3.833,74,7.3827,3.6633,-17.7897,-0.354,-0.3865,-0.7342,51
4.707,90,4.9005,-11.8848,-8.2381,-1.0147,-0.8368,-1.5356,90,4.393,84,0.9763,12.0974,-4.9102,-0.0563,1.0571,-0.0356,90,3.773,72,1.7887,-0.8815,-9.3449,0.5695,0.4527,-1.4083,80,3.885,75,8.4791,2.2868,-15.9949,-0.3193,-0.7231,-0.3459,51
4.759,91,3.8921,-11.1407,-6.9058,-0.0662,-1.1364,-1.5483,90,4.445,85,-3.7786,14.1561,-3.3664,-0.1862,1.4506,-0.7123,90,3.825,73,-1.5582,-1.8093,-11.3747,0.4423,0.2356,-0.3815,80,3.937,76,6.3663,0.5691,-15.4572,-0.164,-0.9436,0.4184,51
4.811,92,1.8025,-12.0834,-4.9601,-0.7195,-0.6739,-0.9463,90,4.497,86,-5.0768,15.6586,-8.3112,-0.8159,1.323,-1.2063,90,3.877,74,0.1505,-3.6741,-12.2514,0.4,-0.4007,0.3993,80,3.989,77,5.7476,-1.09,-15.2729,0.05,-0.6988,0.9446,51
4.863,93,1.1428,-14.0167,-3.312,-0.3367,-0.3771,-0.014,90,4.549,87,-4.6434,15.0311,-11.6913,-1.2755,0.5421,-1.5668,90,3.929,75,1.9429,0.3758,-11.1913,0.303,-0.9659,0.9692,80,4.041,78,6.9064,-2.7315,-14.8691,0.1895,-0.3543,0.6059,51
4.914,94,4.7861,-15.4277,-3.6561,0.4286,0.1209,0.6664,90,4.601,88,-1.0936,7.2625,-16.4727,-1.5403,-0.277,-1.8299,90,3.98,76,6.6065,3.7005,-8.6466,0.4163,-0.9392,1.3851,80,4.092,79,8.7736,-1.7654,-14.3241,0.5105,-0.8974,-0.2292,51
4.966,95,5.6135,-12.9272,-9.4905,0.9872,0.7707,1.163,90,4.653,89,1.2094,3.4264,-19.8943,-0.4525,-0.8748,-1.4527,90,4.032,77,10.0419,4.1623,-7.5102,0.7328,-1.0187,1.4928,80,4.144,80,11.5206,4.0037,-13.4223,0.8645,-0.6705,0.112,51
5.018,96,8.2641,-5.8046,-14.9231,0.6458,0.3534,1.5134,90,4.704,90,4.8809,3.5475,-21.2318,0.3415,-1.3112,-0.3948,90,4.084,78,11.1131,4.2396,-7.725,0.7407,-0.8741,1.3928,80,4.196,81,7.8631,1.4247,-16.1143,1.3057,-0.3403,0.7621,51
5.07,97,9.3934,-2.1775,-18.2458,-0.206,-0.4114,0.4294,90,4.756,91,8.4817,7.916,-17.867,0.921,-1.6296,0.3371,90,4.136,79,11.2427,2.1161,-8.0411,0.2062,-0.7537,1.27,80,4.248,82,10.8561,-0.2615,-16.2054,1.5911,-0.9152,1.2361,51
5.122,98,11.9122,-3.6052,-15.5881,-0.8277,-0.9696,-0.3617,90,4.808,92,9.4988,8.4736,-12.5238,1.2158,-0.7126,0.8484,90,4.188,80,10.8284,-0.0146,-8.1817,0.2216,-0.8714,1.3993,80,4.3,83,13.0406,-3.7428,-16.9213,1.7087,-1.2657,1.5825,51
5.173,99,13.4396,-7.8289,-12.0753,-1.2815,-1.0236,-0.9391,90,4.86,93,11.6796,11.5113,-14.7642,1.5591,-0.4091,0.4709,90,4.24,81,9.9531,-0.2734,-9.1453,0.0046,-0.9085,1.4329,80,4.351,84,11.3544,-1.4864,-12.848,1.6816,-0.4114,1.8353,51
5.225,100,12.6357,-9.0675,-9.1789,-1.2465,-0.8987,-1.3605,90,4.912,94,11.91,13.7283,-13.5785,0.712,-0.6486,0.7077,90,4.291,82,7.6321,-0.2557,-9.7763,-0.2107,-0.7729,1.0299,80,4.403,85,7.9093,-1.4045,-12.9836,0.5503,0.3847,1.2821,51
5.277,101,14.2786,-11.8156,-7.3084,-1.4887,-0.7521,-1.6681,90,4.964,95,10.8387,11.778,-12.7,-0.1604,0.1343,0.8508,90,4.343,83,5.5342,0.0402,-9.5762,-0.0062,-1.2375,1.3055,80,4.455,86,4.2481,-5.2677,-13.7491,-0.2755,0.9657,0.2643,51
5.329,102,15.1313,-12.5878,-7.0434,-0.4122,-0.9574,-0.9963,90,5.015,96,4.9736,6.3855,-13.0316,0.5547,0.7771,0.668,90,4.395,84,9.3049,-1.5314,-11.4514,0.6167,-1.5766,0.438,80,4.507,87,5.6493,-7.8757,-15.0075,-0.8634,1.3666,-0.4785,51
5.38,103,11.12,-9.2971,-9.9167,0.0335,-0.6066,-0.6362,90,5.067,97,0.5727,6.3879,-12.536,0.2062,0.331,0.4525,90,4.447,85,7.4597,4.2342,-9.0571,0.3317,-1.0119,-0.1798,80,4.559,88,5.6797,-6.6099,-15.7166,-1.3072,0.8565,0.1536,51
5.432,104,4.832,-4.2225,-10.8575,0.6988,-0.4813,-0.7995,90,5.119,98,-0.0916,4.7478,-11.5835,-0.416,-0.3774,0.979,90,4.499,86,10.7102,-2.1467,-7.8324,0.9187,-1.2568,0.2091,80,4.61,89,1.8261,-6.0218,-15.3303,-1.6311,1.3101,0.0605,51
5.484,105,2.2348,-3.9445,-10.1809,0.4719,-1.0206,-1.1281,90,5.171,99,4.3758,5.1068,-11.7246,0.3681,0.2287,0.3032,90,4.55,87,9.8353,-0.1129,-9.7344,1.1159,-0.8125,-0.5214,80,4.662,90,2.555,-4.0162,-13.4697,-0.6178,1.4534,-0.0668,51
5.536,106,2.1125,-4.0514,-9.084,-0.2509,-0.3657,-1.209,90,5.223,100,5.6211,5.9553,-10.5082,0.4635,0.557,-0.1915,90,4.603,88,12.444,-0.7351,-8.8155,0.7861,-1.1546,-0.3669,80,4.714,91,4.4267,-1.7669,-11.775,0.0593,1.616,-0.302,51
5.588,107,3.6108,-4.1564,-8.754,-0.4684,-0.0839,-0.3819,90,5.274,101,6.2088,6.423,-10.6431,0.8451,0.2376,0.3325,90,4.654,89,11.6993,-1.1491,-9.7108,0.3813,-0.7521,-0.3683,80,4.766,92,7.0917,0.1468,-11.2522,-0.6303,1.8644,-0.2826,51
5.639,108,4.2705,-3.1265,-8.711,-0.3868,0.2342,0.0008,90,5.326,102,6.2812,9.0082,-9.6384,0.5701,-0.4125,0.6473,90,4.706,90,12.0939,-2.019,-11.8255,-0.3641,-0.4534,-0.354,80,4.817,93,8.6628,1.1376,-11.0966,-0.4215,2.0457,-0.8538,51
5.691,109,6.2773,-4.9043,-8.0799,-0.9597,0.7035,-0.3571,90,5.378,103,4.2225,9.6796,-8.8003,1.0877,0.378,0.1216,90,4.758,91,9.3523,-3.7368,-13.284,-0.5346,-0.0556,0.2755,80,4.869,94,9.0764,2.434,-11.7545,-0.6226,1.9097,-1.0683,51
5.743,110,4.9283,-8.7771,-6.3786,-0.4699,0.1581,0.2962,90,5.43,104,3.0469,12.3915,-7.9757,1.4538,-0.1253,-0.5976,90,4.81,92,1.5015,-1.1871,-8.1279,-0.3027,0.6378,0.4475,80,4.921,95,7.3183,2.2546,-15.1758,-1.1151,0.9133,-0.746,51
5.795,111,6.488,-11.6036,-4.3738,0.3314,-0.48,0.8929,90,5.482,105,3.4628,14.3707,-8.1818,0.381,-0.5725,-1.1226,90,4.862,93,6.3616,-1.5889,-5.8331,0.4556,-0.2065,0.6664,80,4.973,96,10.4585,-3.6429,-14.4044,-1.3036,0.1981,-0.017,51
5.847,112,9.7799,-13.5767,-0.9971,0.9163,0.3231,1.3283,90,5.533,106,5.2577,15.8152,-10.7877,-0.402,-0.6843,-1.5057,90,4.913,94,7.3096,-3.1593,-7.1624,0.1491,-0.7717,-0.1876,80,5.025,97,10.903,-3.7196,-13.6933,-1.4439,-0.5222,0.5379,51
5.898,113,12.1943,-14.7349,0.4553,1.3431,0.9183,1.6461,90,5.585,107,4.7535,15.9226,-12.1296,-0.9734,-0.6367,-1.7853,90,4.965,95,1.7598,3.0461,-13.2323,0.4101,-0.4836,0.3424,80,5.076,98,11.5946,-2.1362,-13.321,-0.4592,-1.0479,-0.1373,51
5.95,114,12.2147,-15.9519,-1.2383,1.6546,1.3526,1.878,90,5.637,108,5.0143,11.7696,-13.391,-1.3904,-0.8537,-1.5918,90,5.017,96,2.9522,3.6548,-12.9795,0.0343,-0.4398,-0.1469,80,5.128,99,11.862,-1.5748,-13.1633,-0.4683,-0.7618,-0.0135,51
6.002,115,11.1422,-13.2789,-4.7602,1.882,1.6696,2.0473,90,5.689,109,4.4813,4.3606,-16.3217,-0.4506,-1.2789,-0.764,90,5.068,97,4.5947,3.6803,-13.1505,-0.1362,-0.1277,-0.2012,80,5.18,100,13.7747,-0.2923,-10.3211,-0.4955,0.1177,-0.6375,51
6.054,116,9.2826,-6.2241,-9.5308,2.0479,1.4001,1.7377,90,5.741,110,5.285,2.3733,-18.6406,0.3429,-1.6061,0.1078,90,5.12,98,6.8948,3.55,-12.3484,-0.2624,-0.0472,-0.3447,80,5.232,101,14.2918,1.1962,-11.5454,0.3131,0.1017,-0.4827,51
6.106,117,9.4127,-2.5764,-14.9525,0.8173,0.3525,0.5931,90,5.792,111,7.5605,2.4284,-18.7283,0.922,-1.8449,0.7441,90,5.172,99,9.6663,2.7615,-12.6524,-0.4991,-0.2433,-0.8044,80,5.284,102,12.1499,-1.0567,-5.8186,-0.3513,0.7474,-1.0237,51
6.158,118,11.6606,-1.6226,-18.9095,-0.0809,-0.4121,-0.2422,90,5.844,112,10.4372,3.6657,-16.42,1.3446,-2.0191,1.2084,90,5.224,100,10.4802,2.2311,-16.0601,-0.6522,-0.8215,-1.2611,80,5.335,103,8.9716,-0.3514,-5.4262,-0.0865,1.2293,-0.9315,51
6.209,119,13.5669,-3.424,-17.0213,-0.7364,-0.9701,-0.8519,90,5.896,113,12.0678,8.0022,-16.3128,1.6531,-1.5169,1.3756,90,5.276,101,12.9147,1.9024,-14.8576,-1.1512,-0.6718,-1.0203,80,5.387,104,5.9335,-0.5072,-7.6285,-0.7284,1.1408,-0.6359,51
6.261,120,14.9582,-4.8763,-12.2601,0.1369,-1.3773,-1.2969,90,5.948,114,9.3666,10.8243,-17.0817,1.8782,-0.428,1.1196,90,5.328,102,10.8138,3.5838,-14.4184,-0.6643,-0.3782,-1.2985,80,5.439,105,9.4478,3.0417,-2.9598,-0.0931,0.1658,-0.8617,51
6.313,121,12.7568,1.2923,-7.0049,0.5344,-1.1447,-0.4486,90,6.0,115,9.238,13.2269,-17.9574,1.7596,-0.7944,0.5211,90,5.38,103,8.3029,5.1288,-13.5463,-0.564,-0.3219,-0.9569,80,5.491,106,8.2755,4.7046,-4.808,0.3187,-0.5458,-1.0771,51
6.365,122,11.9113,2.1526,-5.1686,-0.2874,-1.4693,-0.5226,90,6.052,116,9.8293,14.186,-16.2143,0.6257,-0.2954,-0.2332,90,5.431,104,7.8671,4.3269,-11.3513,-0.4508,-0.3286,-0.4431,80,5.542,107,8.484,3.66,-8.1983,0.2622,-1.0651,-0.8333,51
6.416,123,13.7499,0.2361,-3.6308,-0.6213,-1.7417,-0.5349,90,6.103,117,6.9583,11.7429,-15.1206,-0.2234,0.3266,-0.7249,90,5.483,105,5.2244,2.4581,-10.8634,0.2514,-0.1858,0.354,80,5.594,108,7.8783,3.6995,-10.7538,0.252,-0.9467,-0.6871,51
6.468,124,12.5732,2.1997,-3.0109,0.2209,-1.5281,0.1135,90,6.155,118,4.6008,10.5209,-14.4173,-0.3813,0.1554,-0.8206,90,5.535,106,3.0644,0.5764,-9.6724,0.8196,0.1439,0.9361,80,5.646,109,8.7282,2.0257,-8.7219,0.7421,-0.3384,-0.2966,51
6.52,125,11.1385,3.7965,-3.0168,-0.5161,-0.9531,0.0136,90,6.207,119,4.2498,9.397,-13.584,-0.9583,-0.0454,-0.8458,90,5.587,107,2.8283,0.5169,-10.2714,1.2747,0.778,1.3609,80,5.698,110,8.7704,1.9666,-10.2738,0.7152,-0.6297,-0.2167,51
6.572,126,9.2957,1.9028,-2.805,-0.995,-0.6118,-0.2644,90,6.259,120,3.9897,9.7348,-11.2984,-0.6035,0.3472,-1.2683,90,5.639,108,1.9618,1.3722,-10.7252,1.6069,1.2462,1.671,80,5.75,111,10.0968,1.4951,-11.0818,0.9977,-1.0633,-0.2621,51
6.624,127,8.2632,1.5508,-0.987,-0.0519,-0.2619,-0.1706,90,6.311,121,3.9246,12.4317,-9.3938,-0.602,0.5372,-1.612,90,5.69,109,1.8349,1.818,-10.3977,1.8328,0.3618,1.7939,80,5.801,112,12.4864,6.3833,-8.7247,1.4029,-1.3013,-0.8627,51
6.675,128,10.6077,-0.9506,0.6644,-0.7036,0.4913,0.0297,90,6.362,122,7.2745,14.4001,-9.325,-1.1194,0.3277,-1.8629,90,5.742,110,6.6049,2.1291,-15.2078,0.9853,-0.3699,1.3229,80,5.853,113,9.3648,5.5397,-13.6098,0.7321,-1.6165,-0.2816,51
6.727,129,12.7984,-5.4466,0.4786,-0.6958,1.041,0.6983,90,6.414,123,7.657,14.5291,-9.0845,-1.497,0.6928,-2.046,90,5.794,111,10.0021,1.5179,-13.924,1.3957,0.1079,0.2915,80,5.905,114,5.7087,3.863,-17.2149,0.4369,-0.5783,-0.6243,51
6.779,130,14.3973,-6.9001,-0.0613,-0.243,1.4422,1.1863,90,6.466,124,5.5855,9.4307,-9.8978,-1.7726,1.0264,-1.9961,90,5.845,112,11.5793,3.7701,-14.0569,0.5158,0.4805,0.4309,80,5.957,115,3.5447,2.7439,-18.9408,0.6201,0.2628,-0.2255,51
6.831,131,15.5641,-5.5028,-1.9938,0.2519,1.735,1.5424,90,6.518,125,2.0621,6.7975,-11.9368,-0.876,0.9037,-1.4446,90,5.897,113,8.5337,0.3741,-10.9925,0.195,0.6911,0.8458,80,6.008,116,1.236,2.3007,-18.9462,-0.0262,0.8768,-0.0645,51
6.883,132,12.6064,-1.8499,-4.7553,-0.1782,1.3945,1.8024,90,6.57,126,0.8151,2.7207,-13.5742,-0.2977,-0.0131,-0.7338,90,5.949,114,3.405,-0.381,-13.9736,-0.4375,0.4334,-0.0567,80,6.06,117,-0.2937,1.2715,-17.3564,0.0201,0.7876,0.3794,51
6.934,133,10.1724,1.5586,-8.6781,0.3324,0.3484,1.7592,90,6.621,127,0.6321,1.6903,-12.81,0.4545,-0.6683,0.1151,90,6.001,115,4.5935,-0.4128,-12.3529,-0.9695,0.2812,-0.5105,80,6.112,118,-0.9911,0.3765,-15.0714,-0.3189,0.7749,0.7775,51
6.986,134,8.201,3.3575,-10.7265,-0.4007,-0.415,0.654,90,6.673,128,1.0624,2.4794,-11.4963,0.9058,-1.1604,0.7494,90,6.053,116,5.764,0.4929,-11.5145,-0.6128,-0.2214,-0.9988,80,6.164,119,-0.5822,0.1729,-13.4483,-0.6816,0.8,0.9401,51
7.038,135,8.9353,1.4712,-9.3383,-0.9698,-0.9722,-0.1978,90,6.725,129,4.2256,5.4995,-9.428,1.1246,-1.5144,0.6784,90,6.104,117,6.8779,1.5706,-11.6172,-0.5744,-0.1459,-0.7302,80,6.215,120,-0.4364,0.1315,-12.4382,-0.3162,1.0206,0.9327,51
7.09,136,8.5206,-0.767,-7.8793,-1.3852,-1.3284,-0.8195,90,6.777,130,7.1547,7.5755,-8.4141,1.215,-1.1344,0.7198,90,6.157,118,8.6098,1.6142,-11.5104,-0.8599,-0.0095,0.101,80,6.267,121,-0.0597,-0.1016,-12.504,0.2486,1.4298,0.8492,51
7.141,137,8.2096,-3.6855,-5.6931,-1.4447,-1.6389,-1.2732,90,6.829,131,9.2241,10.8558,-6.8375,1.5585,-0.3954,0.4068,90,6.208,119,8.502,-0.1205,-15.7903,-1.0684,-0.6436,-0.3175,80,6.319,122,3.8172,-0.4333,-13.0783,0.5092,1.7285,1.1859,51
7.193,138,10.8932,-6.9533,-1.8954,-1.7318,-1.2966,-1.588,90,6.88,132,10.2648,10.6402,-5.2878,0.4574,0.3905,0.3168,90,6.26,120,6.2834,1.3781,-16.4041,-0.1032,0.2086,0.2081,80,6.371,123,7.9033,-1.2318,-17.5263,0.7324,0.9327,0.537,51
7.245,139,8.0039,-10.2725,-0.6059,-1.9413,-0.373,-0.6734,90,6.932,133,12.4109,10.5299,-4.4863,-0.1572,0.9641,0.1974,90,6.312,121,5.073,-0.4039,-14.4755,-0.4852,-0.3892,0.7506,80,6.423,124,9.914,-1.9562,-13.4826,0.7601,0.0139,0.8447,51
7.297,140,7.3286,-7.7437,0.6556,-0.7425,-0.2488,0.1851,90,6.984,134,12.3179,11.9249,-5.2795,-0.6101,1.3827,-0.5105,90,6.364,122,4.1832,0.7627,-15.5857,-0.4622,-0.2424,0.6028,80,6.474,125,6.4227,-2.0963,-13.4924,0.1393,-0.6207,0.7049,51
7.349,141,8.8573,-10.8494,1.1344,0.1316,0.4483,0.8118,90,7.036,135,8.5351,14.0302,-9.8906,-1.1253,1.6883,-0.6395,90,6.416,123,8.1168,-4.6804,-13.2639,0.1512,-0.5124,0.7798,80,6.526,126,7.9275,-1.7426,-11.3626,-0.2491,0.0269,-0.1569,51
7.401,142,10.0238,-13.1161,1.4817,0.7704,1.0096,1.2691,90,7.088,136,3.6309,11.7781,-14.2998,-1.5013,1.1114,-0.3171,90,6.467,124,7.4889,-1.5176,-12.9889,-0.0262,-1.0474,-0.1049,80,6.578,127,9.4651,-1.2943,-12.1603,0.3697,0.3125,0.5557,51
7.452,143,12.3723,-14.7704,-2.5342,1.2367,1.4193,1.6029,90,7.14,137,2.629,7.1358,-15.5187,-0.6642,0.1385,0.4339,90,6.519,125,4.8096,2.3134,-14.9178,-0.3534,-0.2761,0.4037,80,6.63,128,7.0507,-1.7857,-14.1281,0.8734,-0.1008,1.0859,51
7.504,144,10.9826,-11.6308,-9.8461,0.2396,1.1187,1.8465,90,7.191,138,3.0032,4.4679,-13.7649,0.1868,-0.5716,0.9821,90,6.571,126,6.7131,1.4255,-13.7796,-0.9089,-0.37,0.3351,80,6.681,129,4.8256,-0.7248,-16.0598,1.3121,0.4091,0.1211,51
7.556,145,10.1046,-8.2722,-13.5848,-0.5025,0.1472,2.0243,90,7.243,139,2.8676,2.9388,-12.8879,0.8081,-0.5735,1.3821,90,6.623,127,8.1849,0.6482,-12.0543,-1.1174,-0.5101,-0.1653,80,6.733,130,2.6986,2.3473,-19.0923,1.6323,0.4833,-0.0985,51
7.608,146,8.6375,-8.9676,-11.153,-0.9692,-0.5619,2.1541,90,7.295,140,5.4075,6.7642,-11.9016,1.2615,-0.1097,1.6741,90,6.675,128,9.4779,1.5241,-11.9707,-1.2638,-0.4801,-0.0316,80,6.785,131,5.4619,1.1626,-16.8173,1.866,0.5345,0.2416,51
7.66,147,9.2638,-9.1912,-7.8931,-0.4759,-1.0794,2.2488,90,7.347,141,5.0159,9.6804,-11.4517,1.5924,0.599,1.7356,90,6.726,129,11.756,1.2729,-8.657,-1.001,-0.1608,0.2188,80,6.837,132,4.9391,6.1407,-17.5714,2.0366,1.0221,-0.0736,51
7.711,148,7.8142,-8.9663,-6.1684,-0.4509,-1.4572,2.3179,90,7.399,142,7.9722,11.6042,-11.1826,1.834,0.4279,1.7915,90,6.778,130,11.8478,0.1763,-9.7557,-0.0541,0.2035,-0.1341,80,6.889,133,3.5383,6.6584,-15.7727,2.1611,0.5387,0.4486,51
7.763,149,10.0983,-9.6408,-3.3597,0.3437,-1.7328,2.3683,90,7.451,143,7.3742,13.7961,-10.9989,1.2092,0.9914,1.9729,90,6.83,131,13.9128,5.4806,-11.5,0.6371,0.8268,-0.7719,80,6.94,134,3.0851,8.5748,-14.7612,2.2519,0.3738,0.0126,51
7.815,150,11.1547,-11.2459,-1.5217,-0.081,-1.5525,2.4052,90,7.502,144,6.6012,10.3192,-11.5188,1.3197,1.4027,2.0834,90,6.881,132,9.5804,1.949,-10.4937,1.0554,1.2818,-0.2821,80,6.992,135,4.2554,7.6217,-12.2396,2.258,0.238,-0.0595,51
7.867,151,9.8247,-9.3147,-1.7782,0.5859,-1.2904,2.432,90,7.554,145,6.455,11.3043,-12.1553,1.6349,1.0605,1.7378,90,6.933,133,6.7462,-2.2982,-12.5449,1.4468,1.2377,-0.0466,80,7.044,136,5.0491,5.8612,-12.4469,2.2613,0.1035,-0.1241,51
7.919,152,8.2349,-7.0784,-2.6304,0.8054,-1.1876,2.4404,90,7.606,146,5.7871,8.774,-11.8153,0.8755,1.1258,1.9337,90,6.985,134,5.5569,-3.0701,-17.1607,1.7325,1.5129,0.4028,80,7.096,137,5.6632,6.2547,-13.07,2.2655,-0.0834,0.1261,51
7.97,153,7.0646,-4.7638,-3.874,0.5898,-1.134,1.8244,90,7.658,147,4.2679,7.6342,-10.7047,0.699,0.4549,2.0767,90,7.037,135,9.3214,-5.595,-19.1649,1.8672,0.6712,-0.3029,80,7.148,138,6.2918,5.9827,-10.5205,1.876,-0.7276,0.252,51
8.022,154,6.6807,-2.9387,-4.8064,0.4569,-1.084,0.8368,90,7.71,148,3.1595,8.0073,-11.3389,1.1819,0.3104,2.181,90,7.089,136,7.6636,-3.2373,-16.7844,1.4614,-0.1835,-0.8951,80,7.199,139,6.6768,4.709,-11.9908,1.5872,-1.189,0.4387,51
8.074,155,7.0211,-1.1571,-6.1127,-0.3367,-0.6259,-0.0644,90,7.761,149,0.1016,11.1709,-12.3869,1.4899,0.9056,1.3479,90,7.14,137,10.859,-1.2276,-15.1123,0.9435,-0.1337,0.0245,80,7.251,140,6.953,2.9026,-13.1546,1.2124,-1.3157,0.6407,51
8.126,156,7.4889,-1.7806,-6.9571,-0.9231,-0.3256,-0.7221,90,7.813,150,-1.3399,13.4799,-16.9804,1.7048,-0.0117,0.2974,90,7.192,138,9.7314,0.2699,-13.7766,0.6588,-0.1916,0.4783,80,7.303,141,6.9324,1.8134,-14.1756,0.8909,-1.174,0.6296,51
8.177,157,6.4665,-5.9764,-7.9183,-1.3511,0.4448,-1.2021,90,7.865,151,3.9413,15.1651,-19.9758,0.5642,-0.6671,-0.4693,90,7.244,139,10.1247,0.8016,-12.6941,0.4821,-0.1291,0.6677,80,7.355,142,7.2443,0.9631,-14.3172,0.6861,-1.449,0.5828,51
8.229,158,6.6147,-9.5595,-7.1956,-0.7302,0.3397,-0.2007,90,7.917,152,7.7958,16.395,-19.421,-0.2682,-0.9551,-1.0289,90,7.296,140,10.3591,0.8568,-12.198,0.0836,0.0916,0.2685,80,7.407,143,8.1055,0.4929,-15.7415,0.614,-1.5261,0.4565,51
8.281,159,9.8842,-12.1747,-2.6605,0.1414,0.8898,0.5301,90,7.969,153,10.609,13.7014,-20.4738,-0.8758,-1.1537,-1.4373,90,7.348,141,11.3621,-2.4959,-11.9939,0.7376,0.4549,-0.0942,80,7.459,144,11.033,2.1791,-13.6077,0.1931,-0.4289,-0.0069,51
8.333,160,12.2704,-14.0833,0.6494,0.7776,1.3318,1.0636,90,8.02,154,8.607,4.7391,-22.8825,-1.3192,-0.9169,-0.9718,90,7.4,142,10.9081,-1.8259,-13.3296,1.2149,0.4751,-0.434,80,7.51,145,13.1697,6.8825,-17.9127,0.7138,-0.517,-0.5156,51
8.385,161,14.0118,-6.513,-7.5226,1.2419,1.6544,1.4529,90,8.072,155,8.2636,0.827,-22.4585,-0.2911,-1.3419,-0.0439,90,7.452,143,10.8975,-2.0474,-13.0643,1.4308,0.1431,-0.0232,80,7.562,146,12.3058,6.4134,-18.4729,1.1957,-0.738,-1.0477,51
8.436,162,12.685,0.6364,-13.4868,0.5715,0.5382,0.3853,90,8.124,156,9.8516,0.0186,-21.2094,0.4593,-0.3934,0.6333,90,7.503,144,9.2955,0.5867,-12.3402,1.7208,0.0469,0.1251,80,7.614,147,8.6613,4.5623,-17.4464,0.1956,-0.595,-0.0843,51
8.488,163,14.3146,-3.9263,-17.8398,-0.2603,-0.2766,-0.3939,90,8.176,157,12.0734,1.5396,-18.5079,1.0069,0.3598,1.1276,90,7.555,145,5.7736,5.7801,-17.0113,1.769,0.7126,0.6532,80,7.666,148,1.614,1.2981,-13.373,-0.5343,0.227,-0.733,51
8.54,164,15.5039,-3.8975,-15.2646,-0.8666,-0.8712,-0.9626,90,8.228,158,13.7309,3.6248,-17.4295,1.4066,0.7515,1.4884,90,7.607,146,7.2937,1.8397,-18.8049,0.9327,1.1985,-0.053,80,7.718,149,-0.9007,-0.1862,-9.4558,-1.0671,0.7695,-0.1502,51
8.592,165,14.6564,-7.6533,-13.8604,-1.3098,-1.3052,-1.3777,90,8.279,159,14.478,6.1373,-15.7217,0.3713,0.9858,1.7516,90,7.659,147,8.2183,3.0251,-18.0915,0.3458,0.2059,0.3773,80,7.77,150,-1.3368,-2.2157,-9.406,-1.4535,1.2466,-0.356,51
8.643,166,13.6347,-7.7552,-9.6105,-1.5917,-1.6219,-1.6806,90,8.331,160,15.4859,7.3658,-15.5768,0.9427,0.8664,1.8844,90,7.71,148,8.2657,1.7861,-21.2089,0.2451,-0.4631,0.2325,80,7.821,151,-2.4448,-2.5561,-10.6619,-1.4851,1.5948,-0.5239,51
8.695,167,10.5427,-10.8578,-8.4832,-1.8391,-0.5139,-1.7648,90,8.383,161,13.5367,10.5901,-11.9452,0.0939,0.5835,1.4414,90,7.762,149,5.6461,2.4532,-19.9914,0.0244,-0.5012,-0.3155,80,7.873,152,1.7544,-2.6976,-14.1046,-1.757,1.6677,-0.2567,51
8.747,168,11.2749,-13.1222,-8.8415,-2.0196,0.2382,-0.6114,90,8.435,162,9.7679,9.2351,-9.3461,-0.1196,0.6905,0.4488,90,7.814,150,3.9741,0.9469,-16.0472,-0.6516,0.0381,0.3076,80,7.925,153,4.5854,-2.874,-13.8403,-0.9922,1.4772,0.493,51
8.799,169,12.4166,-12.8811,-9.4158,-1.3914,0.6311,0.2304,90,8.487,163,8.7944,11.605,-10.4379,0.5844,0.7329,-0.3588,90,7.866,151,2.453,-0.8955,-13.7663,-1.1508,0.369,0.8875,80,7.977,154,6.3745,-1.7984,-17.7657,-1.0842,0.4114,1.0026,51
8.851,170,12.2996,-13.9365,-10.9725,-0.3411,-0.2031,0.8448,90,8.538,164,11.3158,13.7967,-12.4504,0.6915,-0.134,-0.9483,90,7.917,152,2.6285,1.8861,-12.6201,-0.6228,0.6857,1.3254,80,8.029,155,5.573,-2.6289,-17.5746,-0.8097,0.6301,1.3846,51
8.903,171,11.1388,-12.0121,-10.4014,0.4254,-0.3773,1.2932,90,8.59,165,13.178,15.3963,-11.0512,0.6125,-0.7705,-1.3785,90,7.969,153,2.1626,6.7285,-6.6267,-1.1293,1.0624,1.3752,80,8.081,156,-1.4052,3.3735,-10.219,-0.0625,0.131,1.353,51
8.954,172,10.1713,-12.4333,-7.0143,0.4568,0.33,1.6205,90,8.642,166,14.5371,16.5637,-11.7691,-0.233,-1.235,-1.6924,90,8.021,154,0.0531,4.8838,-9.4776,-0.3003,1.428,1.3443,80,8.132,157,4.0917,4.4605,-6.4635,-0.242,0.4426,0.3161,51
9.006,173,5.1656,-14.2721,-5.1734,0.3615,0.9232,1.8594,90,8.694,167,13.7399,14.7799,-14.6712,-0.8501,-1.0633,-1.9216,90,8.073,155,1.4715,3.1866,-11.2973,-0.5343,1.2945,0.3143,80,8.184,158,5.5195,2.8671,-7.7549,0.1099,0.0166,-0.008,51
9.058,174,1.2319,-14.4351,-5.4637,0.9382,1.3562,2.0337,90,8.746,168,12.3941,7.2742,-18.6475,-1.1993,-0.3923,-2.0888,90,8.125,156,3.8519,2.8027,-11.6003,-0.6949,0.8673,-0.1304,80,8.236,159,7.3537,3.0842,-8.7031,0.4338,0.0129,-0.2096,51
9.11,175,3.8102,-12.057,-7.0283,1.3592,1.2724,2.1609,90,8.797,169,8.2305,4.4075,-21.5496,-0.2036,-0.9277,-1.599,90,8.176,157,4.9704,2.8425,-11.4147,-0.5737,0.9551,-0.5789,80,8.287,160,10.4844,2.0262,-9.5545,0.9913,-0.6385,-0.4516,51
9.162,176,7.4366,-5.4116,-11.8794,1.6398,0.7064,1.6056,90,8.849,170,9.1634,2.6426,-21.7434,0.5231,-1.3498,-0.5017,90,8.228,158,5.9928,2.2162,-11.2735,-0.5758,0.9589,-0.914,80,8.339,161,8.5315,2.1098,-9.5994,1.1232,-0.0725,-0.7042,51
9.213,177,9.9909,1.4403,-15.6554,0.6503,-0.1537,0.4967,90,8.901,171,11.6071,3.9116,-21.5786,1.0535,-1.6578,0.2983,90,8.28,159,7.0841,3.2593,-10.7964,-0.8644,1.0158,-1.0166,80,8.391,162,7.6302,3.0472,-4.3983,1.4,0.2675,-0.3657,51
9.265,178,12.3483,-0.4384,-13.4865,-0.1965,-0.7815,-0.3126,90,8.953,172,9.7961,8.1817,-20.2908,1.4407,-0.5309,0.5421,90,8.332,160,9.7076,4.1469,-10.7124,-0.5549,0.6116,-0.9162,80,8.443,163,5.5989,2.7034,-4.5734,1.3364,0.8513,-0.9018,51
9.317,179,14.0688,-5.5177,-13.11,-0.8208,-0.0848,-0.9033,90,9.005,173,6.1625,10.9278,-17.3213,1.7232,0.2916,0.0166,90,8.383,161,12.2622,3.1819,-12.6049,-0.0153,0.0167,-0.5762,80,8.495,164,4.0282,-0.1327,-5.7075,0.6948,1.3063,-0.7137,51
9.369,180,10.0378,-7.9102,-11.555,0.0753,-0.517,-0.8588,90,9.057,174,6.5862,13.3024,-18.2238,1.9294,-0.2842,-0.5933,90,8.435,162,14.2153,-0.6745,-12.9724,0.6257,-0.1308,-0.5615,80,8.546,165,-2.5326,5.1953,-1.5578,0.2691,0.6245,-0.1785,51
9.42,181,6.5588,-8.2415,-8.0143,-0.2733,-0.1864,-0.5153,90,9.109,175,5.4902,15.0005,-16.4446,0.8017,0.4716,-0.689,90,8.487,163,10.7885,0.4891,-12.8289,1.1332,0.4451,-1.0838,80,8.598,166,1.4448,2.9844,-8.0301,0.3679,-0.211,0.5501,51
9.472,182,5.6882,-11.2128,-7.1686,-0.3573,0.2498,-0.9113,90,9.16,176,1.594,11.5058,-14.3516,-0.0949,1.0109,-1.0045,90,8.539,164,6.3392,-0.1348,-17.1905,0.1541,0.999,-0.1133,80,8.65,167,6.1718,2.48,-9.3015,0.4763,-0.8208,0.9548,51
9.524,183,4.6062,-13.1209,-5.8855,0.4058,-0.4135,-0.051,90,9.212,177,-4.0536,13.2322,-14.1323,0.1486,0.8756,-0.9216,90,8.591,165,4.6302,-0.437,-14.3263,-0.2658,0.0557,0.3204,80,8.702,168,6.4665,1.5006,-10.4009,0.5614,-1.049,0.9075,51
9.576,184,4.4291,-10.5183,-4.8299,0.9706,0.1799,0.6394,90,9.264,178,0.6486,14.9843,-14.9923,-0.3546,0.0084,-1.3232,90,8.643,166,3.5397,2.3893,-12.2121,0.4826,-0.2403,0.5929,80,8.754,169,7.9802,0.3191,-11.952,0.498,-0.9127,0.4268,51
9.627,185,-0.785,-12.8744,-2.5356,0.031,0.8137,1.1349,90,9.316,179,3.481,13.0415,-18.8819,-0.9388,-0.6666,-1.5867,90,8.694,167,2.7073,1.7515,-12.3541,0.5506,0.503,-0.2413,80,8.805,170,7.7683,-0.6769,-12.5661,0.6145,-1.0608,-0.0728,51
9.679,186,0.6426,-14.594,-3.3191,0.694,0.5824,1.505,90,9.368,180,3.3481,6.9712,-21.7206,-1.3652,0.1926,-1.082,90,8.746,168,-0.7293,1.553,-15.6921,0.5765,0.3534,0.2908,80,8.857,171,10.7751,0.6506,-12.9824,0.5029,-1.4235,-0.7245,51
9.731,187,5.5255,-11.433,-9.5895,1.1809,1.0313,1.775,90,9.419,181,0.7952,3.1238,-23.7925,-0.893,-0.4198,-0.7765,90,8.798,169,0.4357,2.0865,-19.4576,0.5434,0.5984,0.237,80,8.909,172,7.3206,1.6738,-14.0678,0.8319,-0.354,-0.3257,51
9.783,188,9.0892,-4.6404,-14.9954,0.4867,0.2753,1.6582,90,9.471,182,2.4643,2.5702,-21.4019,-0.2079,-0.979,-0.5344,90,8.85,170,4.3868,2.5743,-17.5621,0.7863,0.6705,0.8507,80,8.961,173,5.1286,1.1423,-15.6143,1.2819,-0.7359,0.4418,51
9.835,189,8.5341,-0.9553,-17.8016,-0.3222,-0.4684,0.5351,90,9.523,183,5.412,0.4326,-16.6941,-0.2797,-0.1011,-0.3142,90,8.902,171,6.863,2.3105,-16.4225,0.5003,0.8235,1.0076,80,9.013,174,8.8603,-0.7239,-19.229,1.5595,-0.293,1.0028,51
9.886,190,8.4475,-5.1652,-18.3881,-0.9125,-1.0112,-0.2846,90,9.575,184,5.6953,0.6343,-12.8489,0.4676,0.1238,-0.099,90,8.953,172,8.3359,1.6463,-15.707,0.1865,0.8863,0.8664,80,9.064,175,7.4666,0.6615,-19.1101,1.8056,-0.1173,1.2768,51
9.938,191,9.0611,-8.8542,-11.7469,-0.3339,-1.4073,-0.508,90,9.627,185,8.1916,5.7898,-13.5816,1.013,0.7694,0.3742,90,9.005,173,7.8553,1.3755,-14.7738,0.1241,0.8622,0.6831,80,9.116,176,4.4767,0.3858,-18.6389,0.8603,0.5994,1.3107,51
9.99,192,5.7302,-6.2947,-6.7987,-0.5257,-1.4821,-0.2849,90,9.678,186,8.6292,9.5525,-11.5316,0.8233,0.3643,0.6035,90,9.057,174,5.8773,1.0436,-12.8131,0.1949,0.8525,0.7524,80,9.168,177,1.7905,-1.5481,-17.6396,-0.0492,1.1224,1.4546,51
10.042,193,9.2377,-9.7918,-2.3709,-1.061,-0.9544,-0.7185,90,9.73,187,8.7145,12.2987,-8.0581,-0.0791,0.3677,-0.0763,90,9.109,175,3.701,0.9382,-11.6914,0.2866,1.2152,0.9377,80,9.22,178,0.6325,-5.248,-17.9212,-0.0813,1.0911,0.3902,51
10.094,194,7.3257,-12.3016,-0.7421,-0.7802,-1.1053,-0.3607,90,9.782,188,6.6631,10.1697,-6.7981,-0.7378,0.9475,-0.651,90,9.161,176,2.97,2.575,-13.432,0.8614,0.3873,0.1797,80,9.272,179,0.75,-5.0445,-16.4007,0.072,1.0256,-0.2529,51
10.145,195,7.4023,-10.7973,-2.6386,-0.5955,-1.4761,0.1927,90,9.834,189,2.8633,2.1615,-12.9014,0.0827,1.0721,0.0413,90,9.212,177,4.2558,3.388,-16.3719,1.3053,0.0635,-0.5428,80,9.323,180,1.602,-4.2789,-15.131,0.0566,0.8607,-0.856,51
10.197,196,3.5666,-5.2997,-4.4802,0.2398,-1.7466,-0.4049,90,9.886,190,2.2912,0.1734,-14.8034,-0.0237,0.1098,0.6955,90,9.264,178,8.3718,-2.7643,-18.053,0.5135,-0.2891,-0.7323,80,9.375,181,5.2289,-3.0882,-13.8551,-0.1904,0.6994,-1.2962,51
10.249,197,1.1218,-4.1385,-5.5349,-0.4854,-1.9441,-0.9501,90,9.938,191,6.1501,-5.0898,-9.2428,0.6108,-0.5925,1.173,90,9.316,179,9.1901,2.5,-15.8216,1.0513,-0.8844,-1.2085,80,9.427,182,5.9825,-2.7547,-13.4488,0.0312,0.9194,-1.198,51
10.301,198,-0.4673,-1.0413,-5.83,-0.6639,-1.7996,-1.2891,90,9.989,192,9.4078,1.6121,-9.1541,1.1175,0.2466,0.1697,90,9.368,180,11.6263,2.053,-14.1828,0.2318,-1.161,-0.2048,80,9.479,183,7.3704,-1.0824,-12.2315,0.5621,0.7769,-0.9822,51
10.353,199,1.7837,-3.7836,-6.5655,-1.1619,-0.7016,-1.6159,90,10.041,193,9.9866,6.5034,-8.4366,0.268,0.6939,-0.5625,90,9.419,181,11.0666,0.9213,-12.8504,-0.0809,-0.9329,0.1574,80,9.53,184,9.5483,1.1108,-9.2878,0.817,0.9467,-1.3515,51
10.404,200,5.77,-7.9591,-2.411,-0.5574,0.1704,-0.5027,90,10.093,194,11.4243,10.0733,-8.1836,-0.4844,0.7302,-1.0969,90,9.471,182,12.159,-0.2346,-13.4339,-0.5012,-0.6573,0.0612,80,9.582,185,12.0861,0.4758,-8.46,0.8338,0.8201,-1.4568,51
10.456,201,7.4687,-11.0066,0.8314,0.2676,0.8068,0.3097,90,10.145,195,9.0169,2.9598,-13.0611,-1.0336,0.7243,-1.2018,90,9.523,183,13.5527,0.7371,-11.0137,-0.6696,-0.6939,0.1603,80,9.634,186,12.8324,-0.1564,-8.9087,0.4246,0.997,-0.8171,51
10.508,202,10.5074,-13.2308,1.7747,0.8696,1.2712,0.9027,90,10.197,196,6.8581,0.2067,-17.3394,-0.8843,-0.144,-0.7623,90,9.575,184,9.882,-2.7952,-9.8091,-1.159,0.0164,0.6026,80,9.686,187,9.8863,-0.956,-10.8798,0.4367,0.8166,-0.0122,51
10.56,203,12.7253,-9.1363,-6.7013,1.1671,1.4222,1.3355,90,10.248,197,4.762,-0.6933,-16.6781,0.0263,-0.7778,-0.0857,90,9.627,185,7.4835,3.3119,-15.164,-1.4577,0.6903,1.1175,80,9.738,188,6.9558,-0.9851,-12.2808,0.9409,0.4246,0.3365,51
10.611,204,11.6341,-3.2557,-12.0819,0.6689,0.3687,0.7264,90,10.3,198,5.7274,0.0379,-12.746,0.0013,-1.2403,0.5937,90,9.679,186,5.3151,4.3487,-16.6421,-1.0594,0.2128,0.1416,80,9.789,189,4.2948,-0.3564,-12.1523,0.9711,-0.0795,0.5786,51
10.663,205,11.5001,-2.5422,-9.4974,-0.1892,-0.4003,-0.145,90,10.352,199,4.7142,-0.6745,-10.4034,0.6335,-1.0049,1.0987,90,9.73,187,9.145,3.5221,-12.9929,-1.3794,0.4514,-0.1633,80,9.841,190,3.3058,0.9289,-10.8509,0.7702,-0.6603,0.5804,51
10.715,206,7.6905,-5.1941,-6.4463,-0.8154,-0.7701,-0.7809,90,10.404,200,5.7268,2.5351,-8.9778,1.1341,-0.3381,1.1931,90,9.782,188,9.632,2.9179,-12.5976,-1.0836,0.2846,-0.2875,80,9.893,191,3.7929,2.1019,-9.5108,0.451,-0.8441,0.2322,51
10.767,207,3.8131,-5.109,-4.3763,-0.5562,-1.1593,-0.9278,90,10.456,201,6.6767,5.4789,-10.6591,1.4994,-0.2213,1.4333,90,9.834,189,12.2956,1.5038,-12.795,-0.6295,0.3091,0.3126,80,9.945,192,4.1236,3.6536,-10.0666,-0.0978,-0.6382,-0.4893,51
10.819,208,2.196,-4.4158,-3.7552,-0.665,-1.0241,-0.5408,90,10.508,202,6.4707,9.3256,-9.7438,1.7661,0.2918,1.699,90,9.886,190,14.2396,-4.1395,-8.6079,-0.8354,0.566,0.7405,80,9.996,193,5.3012,4.6136,-12.231,-0.4129,-0.9652,-1.0285,51
10.87,209,2.2187,-8.4206,-4.5156,-1.0982,-1.3176,-0.4838,90,10.559,203,3.8093,10.1618,-9.6747,0.8076,0.032,1.8938,90,9.937,191,8.8982,-4.6539,-9.164,-0.4387,1.0915,0.0311,80,10.048,194,8.2476,4.3058,-12.6498,-0.3603,-0.6692,-1.4173,51
10.922,210,2.2946,-9.5927,-2.7669,-0.7643,-0.7834,0.0048,90,10.611,204,1.7886,11.6165,-8.7246,0.7039,-0.6493,2.0139,90,9.989,192,6.4368,-3.261,-9.8228,-0.5621,1.0524,0.7004,80,10.1,195,11.1367,1.8291,-15.2032,-0.94,-0.9616,-0.7468,51
10.974,211,0.7676,-6.4994,-1.7856,0.0824,-0.4896,0.3388,90,10.663,205,2.5304,13.7781,-7.7715,-0.1663,-1.0763,1.1767,90,10.041,193,7.5914,2.9719,-15.174,-0.7339,0.0947,0.9407,80,10.152,196,10.531,1.0983,-14.2227,-1.3008,-0.6061,0.1353,51
11.026,212,0.7238,-4.5675,-1.5042,0.4853,-0.4403,-0.0223,90,10.715,206,6.613,15.3827,-8.5176,-0.8014,-0.4391,0.1724,90,10.093,194,4.9832,-3.068,-19.0795,-0.1658,-0.0554,0.4299,80,10.204,197,6.9905,3.6395,-14.1408,-0.5633,-1.0157,0.7685,51
11.077,213,1.5594,-2.0616,-0.7333,-0.2568,-0.6628,-0.5996,90,10.767,207,9.7457,16.5538,-11.3773,-1.2649,0.1117,-0.5605,90,10.145,195,6.251,-1.7638,-16.549,-0.7416,-0.7138,-0.3602,80,10.256,198,5.4673,2.8411,-12.4666,0.2635,-1.1704,1.2412,51
11.129,214,3.1244,-6.7023,2.0559,-0.6536,0.1831,-0.1171,90,10.818,208,11.6176,14.4253,-13.2262,-1.3796,0.4918,-1.0955,90,10.196,196,8.3507,3.2937,-16.0105,-0.5115,-0.1387,0.4148,80,10.307,199,6.1489,1.8093,-12.3626,0.5607,-1.521,1.5863,51
11.181,215,6.686,-10.0894,2.7766,0.1974,0.816,0.5912,90,10.87,209,10.1591,10.0253,-12.3965,-1.292,0.1715,-1.4859,90,10.248,197,9.295,2.8529,-15.8254,-0.7172,-0.3701,0.3018,80,10.359,200,8.6163,2.004,-13.3715,0.2724,-1.6394,0.8934,51
11.233,216,7.5198,-12.5614,-1.4729,0.8184,1.278,1.1081,90,10.922,210,6.5206,2.0634,-12.0155,-1.6014,-0.161,-0.7422,90,10.3,198,9.1436,2.3875,-14.5821,-0.6165,-0.7886,-0.2334,80,10.411,201,11.4058,4.9792,-12.8117,0.6977,-1.8633,-0.0074,51
11.285,217,4.7474,-7.0153,-8.2284,0.8542,1.6151,1.1007,90,10.974,211,4.3056,0.025,-12.6117,-0.497,-0.7902,0.1237,90,10.352,199,11.1149,1.3759,-14.2038,-0.9849,-1.0236,-0.8443,80,10.463,202,9.0185,4.3819,-9.9803,0.9585,-1.0746,0.358,51
11.336,218,5.3712,-2.2443,-12.4636,0.5314,0.5095,0.9328,90,11.026,212,5.914,-0.148,-12.5414,-0.4729,-1.2485,0.7556,90,10.404,200,13.2911,-0.6459,-13.9212,-1.3875,-1.1268,-1.2363,80,10.515,203,7.4617,4.2378,-8.1915,1.3742,-0.0993,-0.4101,51
11.388,219,4.9883,1.2265,-13.1297,-0.1836,-0.2975,0.0057,90,11.078,213,7.4035,3.7717,-12.2363,0.3266,-0.8462,0.9563,90,10.456,201,8.9154,0.3874,-15.6585,-1.3904,-0.1441,-0.9954,80,10.566,204,5.3338,3.9344,-4.9039,1.5491,0.6125,-0.9707,51
11.44,220,8.1231,-0.603,-9.9523,-0.7878,-0.8865,-0.671,90,11.129,214,5.0924,6.3832,-10.6089,0.9101,0.0615,1.0821,90,10.507,202,6.3359,2.4563,-18.4528,-1.6761,0.0446,-0.3151,80,10.618,205,4.1207,-2.4253,-11.5603,0.8425,0.1176,-0.312,51
11.492,221,7.7185,-4.0405,-5.9526,-0.811,-0.879,-0.9355,90,11.181,215,4.2311,9.9856,-11.9351,1.336,-0.5208,0.8002,90,10.559,203,5.0052,4.2206,-17.2379,-1.5086,0.0198,-0.0399,80,10.67,206,8.1247,0.0253,-10.3707,0.2757,-0.2431,0.4527,51
11.543,222,5.8993,-2.6038,-3.586,0.0825,-0.2801,-1.0312,90,11.233,216,2.9436,12.6148,-11.9038,0.4056,0.2957,0.2641,90,10.611,204,4.7053,4.747,-15.2979,-0.7069,-0.0167,0.0489,80,10.722,207,8.4919,-2.3661,-11.8947,0.0143,-0.8438,0.4635,51
11.595,223,4.6235,-2.0227,-1.2621,-0.6158,-0.4244,-1.4277,90,11.285,217,-0.5743,10.5306,-11.9739,-0.1615,0.5091,-0.4936,90,10.663,205,3.0263,4.2932,-13.1049,-0.5148,-0.0892,0.4284,80,10.774,208,7.9403,-4.4211,-14.4619,-0.3054,-0.6376,0.4737,51
11.647,224,3.8647,-5.57,0.0108,-0.4349,-0.4846,-1.0926,90,11.337,218,-0.7454,13.0126,-12.3302,-0.0612,-0.1974,-1.0071,90,10.715,206,1.8867,3.2559,-11.9235,0.2156,0.0462,0.9031,80,10.825,209,6.4204,-4.4754,-14.9881,-0.1126,-0.7979,0.7144,51
11.699,225,2.1199,-2.0045,2.4295,0.357,-0.1068,-0.8661,90,11.388,219,2.3178,11.3431,-14.0022,-0.7247,-0.4763,-0.7908,90,10.766,207,1.5905,2.3219,-11.7813,-0.083,0.5834,0.6467,80,10.877,210,7.0819,-4.6165,-15.2712,-0.0322,-0.4459,0.3141,51
11.751,226,3.8938,-2.7172,4.3643,-0.4168,0.6045,-1.057,90,11.44,220,1.7351,8.1076,-15.007,-1.2089,-1.0203,-0.4361,90,10.818,208,1.927,1.598,-12.6989,-0.1961,0.3423,1.0044,80,10.929,211,8.4623,-4.4837,-14.9061,0.6334,-0.9676,0.0256,51
11.803,227,3.5873,-4.6019,2.7827,-0.3696,1.1236,-0.5414,90,11.492,221,1.8972,3.4722,-13.1484,-1.5369,-1.4173,0.2557,90,10.87,209,4.3672,2.0292,-12.3373,0.5156,0.9127,1.4108,80,10.981,212,11.0829,-2.6873,-15.6962,0.8266,-0.4283,-0.1164,51
11.854,228,0.0494,-3.5936,-4.2581,0.383,1.4349,0.1343,90,11.544,222,2.2187,0.7905,-11.6796,-1.1183,-1.5741,0.852,90,10.922,210,7.9849,2.335,-13.1024,1.0249,0.7348,1.7074,80,11.032,213,8.6894,-0.396,-14.5825,1.238,-0.8924,-0.0328,51
11.906,229,-0.5078,-0.4648,-9.0323,-0.3969,0.3779,0.2852,90,11.596,223,6.3126,3.5776,-8.8492,-0.1444,-0.7404,0.3171,90,10.974,211,9.7411,2.1736,-13.304,1.4245,0.5907,1.9239,80,11.084,214,10.5046,-3.7449,-17.308,1.5782,-1.3181,0.6564,51
11.958,230,-0.4047,-2.2765,-6.5595,-0.9671,-0.3935,0.2129,90,11.647,224,7.5974,6.7286,-7.3501,0.4186,0.1387,-0.0237,90,11.025,212,10.0841,1.0408,-11.8038,1.5394,0.4286,2.038,80,11.136,215,11.2807,-1.3341,-17.4553,1.8266,-1.6288,1.0198,51
12.01,231,-0.458,-3.826,-2.1962,-0.0409,0.3604,0.832,90,11.699,225,10.2573,10.2377,-9.3932,0.5559,0.7803,-0.628,90,11.077,213,9.269,1.8958,-12.2715,1.2473,0.3688,1.5813,80,11.188,216,8.3876,-2.2446,-16.3898,0.7414,-0.5296,0.8845,51
12.062,232,-2.4121,-4.7194,0.7983,0.4603,0.9454,1.2839,90,11.751,226,8.3835,10.7397,-10.6611,-0.2743,1.2486,-0.832,90,11.129,214,6.6887,1.7055,-12.1074,1.2582,-0.0481,1.7758,80,11.24,217,6.2551,-4.0222,-15.2442,-0.136,0.2984,-0.0258,51
12.113,233,-5.8033,-6.7088,-1.3962,-0.3356,1.2461,1.6137,90,11.803,227,4.8804,7.6389,-11.1581,-0.6753,1.5901,-0.3844,90,11.181,215,8.0465,4.3857,-14.4108,1.4214,0.6432,0.6221,80,11.291,218,5.3666,-5.6466,-17.0753,-0.4407,0.9028,-0.6903,51
12.165,234,-4.9753,-6.673,-3.371,0.4294,0.908,1.8544,90,11.855,228,1.1795,4.962,-10.8522,-0.7185,1.1165,0.176,90,11.233,216,6.1575,4.3283,-15.7514,1.7139,0.2618,-0.2134,80,11.343,219,3.0174,-5.5482,-18.4805,-0.4601,1.2961,-1.1752,51
12.217,235,-3.5536,-1.6504,-5.5636,-0.1144,0.3409,1.8135,90,11.906,229,0.3053,3.5984,-10.1055,-0.6108,0.1704,0.4935,90,11.284,217,8.4042,7.9262,-19.501,1.9274,0.5315,-0.7974,80,11.395,220,0.8655,-4.8563,-17.1662,-1.0129,1.4542,-1.5291,51
12.269,236,-2.5219,-1.4223,-8.109,-0.7609,-0.3986,0.7388,90,11.958,230,1.2922,3.772,-9.1724,-0.6926,-0.166,0.5723,90,11.336,218,7.7638,7.1925,-16.316,1.0766,-0.2855,-1.256,80,11.447,221,0.4669,-3.9167,-15.7057,-1.0849,0.5753,-1.7642,51
12.32,237,-0.5477,-1.6318,-7.9766,-1.2327,-0.9602,-0.1359,90,12.01,231,1.2744,2.5656,-9.0952,-0.2978,0.3368,0.5127,90,11.388,219,9.4164,6.3984,-14.5282,0.6672,-0.4954,-1.2377,80,11.499,222,5.4581,-2.0487,-13.5022,-0.3555,-0.2027,-1.959,51
12.372,238,-0.4024,-2.3509,-7.6247,-1.5336,-1.3224,-0.6137,90,12.062,232,0.4754,4.4188,-9.2482,0.4544,0.4303,0.5665,90,11.44,220,10.03,5.4928,-14.3469,0.0339,-0.1437,-0.7162,80,11.55,223,5.2432,0.0699,-13.4743,-0.889,0.0965,-1.5346,51
12.424,239,-1.0999,-1.5344,-7.5285,-1.3203,-1.5987,-0.9147,90,12.114,233,-1.0205,8.5519,-8.8878,1.0033,0.5407,1.0734,90,11.491,221,9.7654,4.7921,-13.6774,-0.2108,-0.2493,0.155,80,11.602,224,7.5372,2.0488,-14.6351,-1.3259,0.192,-1.3286,51
12.476,240,-1.0359,-2.128,-6.1738,-1.6038,-1.6522,-1.3427,90,12.165,234,-0.7165,11.5684,-5.0358,0.4026,0.7447,0.8148,90,11.543,222,8.6155,2.472,-13.4588,-0.7446,-0.7642,-0.3675,80,11.654,225,8.2407,2.4007,-15.7733,-0.5376,0.3704,-1.6222,51
12.528,241,-0.1354,-6.7508,-3.8672,-1.8479,-1.6689,-1.6551,90,12.217,235,-1.9359,13.5824,-1.0275,0.5933,0.934,-0.0917,90,11.595,223,5.6167,0.635,-8.6739,-1.0006,-0.2141,0.3589,80,11.706,226,8.7643,2.8955,-15.5648,-0.0556,0.207,-1.1091,51
12.579,242,-4.8997,-10.1248,-0.2313,-0.8613,-1.2195,-0.5503,90,12.269,236,-2.6023,15.2399,0.2824,-0.1855,1.3608,-0.7533,90,11.647,224,4.2857,0.2031,-10.3237,-1.4055,0.1629,0.3112,80,11.758,227,6.9192,0.6039,-16.1979,-0.7177,-0.5016,-0.1291,51
12.631,243,-2.2246,-10.4441,2.384,0.0457,-1.401,0.275,90,12.321,237,-1.0817,16.4496,-1.3107,-0.8154,1.6298,-1.2362,90,11.699,225,0.8221,-0.1539,-7.0498,-0.3505,-0.2166,0.7553,80,11.809,228,10.1672,5.3861,-18.6396,-1.2009,-0.7034,-0.1364,51
12.683,244,-0.4519,-9.9511,3.9098,0.7078,-0.3401,0.8773,90,12.373,238,-0.5108,15.2555,-3.6107,-1.2752,1.8075,-1.5886,90,11.751,226,5.8657,-0.3758,-3.259,-0.413,-0.8315,-0.0535,80,11.861,229,7.2929,5.6206,-16.9124,-0.9007,-1.1802,0.5808,51
12.734,245,-1.6751,-12.4605,1.6839,1.1909,0.4342,1.317,90,12.425,239,0.5033,8.8463,-7.9053,-1.6107,0.6642,-1.2626,90,11.803,227,5.5158,0.0962,-8.2938,-0.2818,-1.1449,-0.3741,80,11.913,230,7.3749,5.5499,-15.4023,-0.3948,-1.5162,-0.0472,51
12.786,246,-2.279,-10.7704,-1.47,1.5436,0.8074,1.2982,90,12.477,240,1.9298,5.9047,-11.8721,-0.5038,-0.1251,-1.0168,90,11.854,228,6.8728,0.8898,-9.9228,-0.373,-0.8076,-0.5651,80,11.965,231,10.4998,7.0185,-13.4754,-0.3159,-1.538,-0.3106,51
12.838,247,-0.1506,-5.3791,-7.015,1.6756,0.6001,0.6068,90,12.528,241,2.7518,6.9857,-12.9224,0.304,-0.764,-0.3365,90,11.906,229,7.4065,1.1682,-11.5412,-0.405,-0.6094,-0.4471,80,12.016,232,11.5431,8.2747,-10.3834,0.2662,-1.5582,0.4537,51
12.89,248,2.5103,-3.3401,-11.5376,0.5455,-0.1618,-0.2322,90,12.58,242,4.268,7.1737,-11.0427,0.8936,-1.2303,0.2933,90,11.958,230,9.0311,0.7905,-12.3381,-0.6509,-0.374,-0.2594,80,12.068,233,8.9647,5.5715,-8.6919,-0.1572,-1.0914,-0.3403,51
12.942,249,4.5412,-3.2126,-13.8256,-0.2792,-0.7874,-0.8446,90,12.632,243,4.3049,6.6043,-8.6819,1.3239,-1.2103,0.8494,90,12.01,231,10.452,-0.1512,-12.8072,-0.7661,-0.946,-0.8552,80,12.12,234,5.8572,3.8933,-8.215,0.2289,-0.1116,-0.3704,51
12.993,250,7.0761,-4.0024,-12.5502,-0.812,-1.244,-1.2915,90,12.684,244,3.8327,6.657,-7.0831,1.638,-0.6481,1.2853,90,12.061,232,12.8539,-0.4686,-17.3521,-1.2344,-1.2433,-1.2982,80,12.172,235,2.1096,2.367,-10.2939,0.0881,0.6035,-0.4134,51
