right_hand_timestamp,right_hand_index,right_hand_accel_x,right_hand_accel_y,right_hand_accel_z,right_hand_gyro_x,right_hand_gyro_y,right_hand_gyro_z,right_hand_battery_percentage,left_hand_timestamp,left_hand_index,left_hand_accel_x,left_hand_accel_y,left_hand_accel_z,left_hand_gyro_x,left_hand_gyro_y,left_hand_gyro_z,left_hand_battery_percentage,right_leg_timestamp,right_leg_index,right_leg_accel_x,right_leg_accel_y,right_leg_accel_z,right_leg_gyro_x,right_leg_gyro_y,right_leg_gyro_z,right_leg_battery_percentage,left_leg_timestamp,left_leg_index,left_leg_accel_x,left_leg_accel_y,left_leg_accel_z,left_leg_gyro_x,left_leg_gyro_y,left_leg_gyro_z,left_leg_battery_percentage
0.741,14,6.4123,-1.9133,-11.1567,-0.6671,-0.2064,0.1913,92,0.471,9,8.8066,9.7796,-1.1611,-1.8549,1.9668,-1.8297,87,0.026,0,10.6151,1.3163,-14.0734,0.4036,-1.3246,-0.8037,86,0.278,5,3.0361,-4.4273,-11.1976,-0.9868,1.3196,-0.1759,52
0.792,15,7.4702,-3.094,-12.2541,-1.1026,-0.1063,0.1344,92,0.523,10,8.7493,9.4847,-2.5152,-2.0338,1.8266,-1.6559,87,0.078,1,9.7501,1.3977,-13.9244,0.553,-0.5548,-0.0414,86,0.33,6,2.1221,-3.2492,-11.0322,-1.0482,0.9631,-0.7998,52
0.844,16,9.5273,-3.6849,-12.0724,-1.0106,-0.2293,0.1517,92,0.575,11,6.5886,7.9404,-6.5307,-1.9335,1.4246,-1.8053,87,0.13,2,8.014,2.219,-14.4614,0.5414,0.2735,0.5783,86,0.382,7,1.39,-2.3867,-10.8815,-1.4177,0.3301,-1.2551,52
0.896,17,11.3694,-4.2886,-12.4258,-0.7968,-0.0984,-0.048,92,0.626,12,4.5317,5.5151,-9.4083,-1.3256,0.5425,-1.8605,87,0.182,3,5.8147,2.475,-13.4959,-0.2679,0.8455,1.0607,86,0.434,8,1.5491,-3.0321,-11.6273,-1.5767,-0.2783,-1.5875,52
0.948,18,13.3107,-4.9788,-14.2287,-0.2411,0.1911,-0.6469,92,0.678,13,3.3978,3.7552,-10.9367,-0.3742,-0.2767,-1.6201,87,0.233,4,5.7047,1.5103,-11.2684,-0.8707,1.29,1.4519,86,0.485,9,3.2919,-2.4789,-11.5326,-0.7398,-0.8699,-1.83,52
1.0,19,12.5204,-4.6292,-14.1143,0.4984,-0.3929,-1.1472,92,0.73,14,4.632,2.1525,-9.7699,-0.4963,-0.8746,-1.0449,87,0.285,5,5.9594,0.5123,-10.3575,-0.7543,1.6199,1.7374,86,0.537,10,6.2446,-1.6344,-10.3813,-0.8528,-1.0614,-2.007,52
1.051,20,9.8088,-3.5895,-11.9043,-0.0654,-0.3552,-1.2762,92,0.782,15,6.9828,-0.8914,-10.9977,-0.6946,-0.8838,-0.5456,87,0.337,6,7.8056,1.0927,-11.8915,0.1257,1.8606,1.9458,86,0.589,11,8.531,-5.0767,-11.0332,-1.2995,-0.6519,-1.9185,52
1.103,21,6.2013,-3.5365,-10.5672,-0.108,0.2145,-0.7697,91,0.834,16,10.0156,0.1398,-10.7587,0.1648,-1.3177,0.1859,87,0.389,7,7.8921,2.5605,-16.6838,0.7683,1.8102,1.2128,86,0.641,12,9.0454,-6.1582,-15.906,-0.8286,-0.2463,-0.8023,52
1.155,22,4.0368,-1.2196,-10.6465,-0.6945,0.5746,-0.3386,91,0.886,17,12.2291,2.5553,-10.8961,0.792,-1.6344,0.8011,87,0.441,8,7.2032,3.5216,-10.2466,0.6683,0.6478,0.3077,86,0.693,13,1.1291,-3.9278,-17.038,-1.0336,0.5052,-0.3315,52
1.207,23,1.6859,-1.9813,-10.6209,-1.1842,1.0244,-0.2681,91,0.937,18,13.8445,4.6108,-10.633,0.969,-1.8655,1.25,87,0.492,9,2.7584,3.9651,-11.691,0.1504,0.416,0.1368,86,0.744,14,-2.2458,-2.5914,-14.4737,-0.0797,0.6696,-0.1284,52
1.259,24,0.1618,-4.6616,-10.948,-0.3982,0.283,-0.4388,91,0.989,19,12.6932,6.1754,-10.8384,1.379,-2.0342,1.4436,87,0.544,10,5.0905,3.0908,-12.927,-0.2021,0.2436,0.2488,86,0.796,15,-0.0613,-2.1496,-14.9572,0.2828,0.5106,-0.2032,52
1.31,25,5.1746,-4.0893,-15.9868,0.1638,0.551,0.3516,91,1.041,20,10.3501,6.5993,-10.6336,0.3516,-2.1573,1.2571,87,0.596,11,7.7594,1.0831,-12.5123,-0.2719,0.8077,0.4895,86,0.848,16,3.0038,-0.407,-15.0248,0.5362,0.4582,-0.2424,52
1.362,26,8.8331,-3.7471,-15.8205,0.5718,-0.2672,0.9332,91,1.093,21,9.2945,5.1849,-9.9053,-0.4234,-2.2472,0.8728,87,0.647,12,7.8767,0.2729,-11.5218,-0.8729,1.054,0.7659,86,0.9,17,5.0252,0.5152,-15.0179,0.9247,0.4566,0.1876,52
1.414,27,7.9976,1.6081,-14.9003,1.0917,0.4874,0.4221,91,1.145,22,8.422,3.6384,-8.8357,-0.5452,-2.2834,0.3644,87,0.7,13,6.4557,-1.7373,-11.4167,-1.2756,0.4933,0.2926,86,0.952,18,4.3885,-0.2543,-14.6099,1.1505,0.6427,0.8142,52
1.466,28,6.02,2.8681,-12.9376,0.1349,-0.3136,0.1898,91,1.196,23,7.3378,2.3747,-8.2971,-0.0156,-1.7561,-0.1979,87,0.751,14,6.0828,-0.2359,-12.4729,-0.9556,-0.1729,-0.3281,86,1.003,19,4.1746,-1.5248,-14.1848,1.211,0.669,1.2746,52
1.518,29,5.1297,1.0345,-13.2568,-0.5789,0.4375,-0.0776,91,1.248,24,7.5425,1.5853,-7.6714,0.2841,-1.435,-0.3728,87,0.803,15,5.1749,0.6044,-14.0728,-0.5948,-0.5831,-0.7004,86,1.055,20,5.2532,-2.7225,-13.3122,1.0807,0.629,1.6106,52
1.569,30,2.8467,-1.1931,-12.7989,-0.5731,0.7735,0.0066,91,1.3,25,10.4241,-0.784,-8.9804,0.5039,-0.8347,-0.0913,87,0.855,16,6.8586,1.5395,-13.6327,-0.0775,-0.836,-0.8643,86,1.107,21,7.1937,-4.1801,-13.1589,1.1034,0.5998,1.7734,52
1.621,31,2.1824,-3.2431,-12.3925,-0.8586,0.2646,0.2329,91,1.352,26,11.0818,-1.0815,-8.8076,0.6231,0.0699,-0.1441,87,0.907,17,9.2772,0.927,-13.4664,-0.0358,-1.0426,-1.0229,86,1.159,22,6.219,-5.4839,-12.7576,1.0614,0.5961,1.2992,52
1.673,32,2.2999,-5.4157,-11.795,-0.2871,-0.1516,0.7375,91,1.404,27,13.0074,-1.9215,-9.7907,1.0745,0.7301,-0.23,87,0.959,18,11.6424,-0.592,-13.4976,-0.4134,-1.4343,-1.3838,86,1.211,23,7.3475,-5.7131,-13.6281,0.4484,0.7451,0.4428,52
1.725,33,6.0852,-8.2864,-12.0226,0.3307,-0.78,1.1477,91,1.456,28,14.4126,-0.7287,-15.0432,1.4551,1.2119,-0.762,87,1.01,19,13.7629,-2.2813,-11.9563,-0.8448,-1.7202,-1.6836,86,1.262,24,10.1812,-5.5353,-12.9623,0.3751,0.4927,-0.075,52
1.776,34,9.0467,-8.1746,-11.7013,0.9157,-0.3951,1.1656,91,1.507,29,13.2595,-0.2676,-16.2835,0.3819,1.5636,-1.2425,87,1.062,20,10.9937,3.6869,-16.7311,-1.2918,-1.9185,-1.9027,86,1.314,25,11.2575,-5.0294,-12.5597,0.9484,0.1901,0.2524,52
1.828,35,8.7082,-5.0855,-10.5052,1.3427,-0.4677,1.131,91,1.559,30,13.0474,0.0921,-16.5143,0.4129,1.8203,-1.5447,87,1.114,21,7.9609,4.2947,-17.6815,-0.2663,-1.3214,-2.061,86,1.366,26,10.3841,-0.2776,-13.672,1.3669,0.5918,0.8646,52
1.88,36,11.3933,-3.0208,-11.3018,1.075,-0.2951,0.5975,91,1.611,31,12.0227,1.9407,-16.0551,0.9731,2.0076,-1.8137,87,1.166,22,2.941,4.6509,-18.4249,0.2876,-0.286,-1.8332,86,1.418,27,12.6961,1.9288,-15.3907,1.3068,0.9367,1.3114,52
1.932,37,11.726,-2.2802,-11.6795,0.1445,-0.0385,0.0425,91,1.663,32,8.0617,3.1518,-12.2197,1.0568,2.1443,-2.0101,87,1.218,23,-0.1061,4.2892,-18.2772,0.6825,0.4696,-1.902,86,1.47,28,11.6431,-3.2497,-15.7896,0.2767,1.3686,1.6374,52
1.984,38,10.5297,-1.2167,-12.0648,0.1293,0.1807,-0.6441,91,1.715,33,4.2556,4.6276,-6.6098,0.1034,1.6964,-2.1534,87,1.269,24,-1.0698,3.7168,-17.4774,0.5198,0.6999,-2.0054,86,1.521,29,6.8498,-5.0586,-14.7807,-0.2982,1.3606,0.5237,52
2.035,39,9.7024,-0.8664,-12.5903,-0.5763,-0.0605,-1.1452,91,1.766,34,2.821,4.959,-2.1763,-0.6045,1.916,-2.1902,87,1.321,25,0.5119,1.7982,-16.5487,0.4046,0.325,-1.6622,86,1.573,30,6.0969,-4.6561,-13.9776,-0.802,0.9868,-0.2892,52
2.087,40,8.8716,-1.4309,-12.5448,-1.0469,-0.2078,-1.5109,91,1.818,35,1.8341,5.8293,-1.1608,-1.1212,1.517,-1.7848,87,1.373,26,1.5903,0.5544,-14.7717,0.7021,0.2279,-0.9358,86,1.625,31,5.5383,-4.7123,-13.9937,-1.2624,0.5297,-0.8825,52
2.139,41,9.9552,-1.4888,-12.3129,-0.7089,-0.7044,-1.7778,91,1.87,36,1.8877,4.9957,-4.3822,-1.4983,1.0052,-1.3285,87,1.425,27,2.7519,0.5954,-13.9989,1.1654,0.826,-0.2057,86,1.677,32,4.7646,-4.8595,-13.6574,-1.4459,-0.0895,-1.3155,52
2.191,42,11.7718,-2.2051,-12.1024,-0.1225,-1.1835,-1.9727,91,1.922,37,2.2344,4.219,-10.4041,-1.175,0.2816,-1.1619,87,1.476,28,4.8305,-0.4039,-14.3262,1.025,1.2812,0.4855,86,1.728,33,6.643,-5.5496,-12.389,-1.4819,-0.7321,-1.6315,52
2.242,43,13.0957,-1.6964,-12.1734,0.585,-1.4443,-1.7854,91,1.974,38,3.5266,2.285,-15.2131,-0.6187,-0.4671,-1.0356,87,1.528,29,3.2781,-0.7373,-13.4853,0.4531,1.6134,1.0321,86,1.78,34,9.2671,-8.5181,-12.0028,-1.1576,-0.5351,-1.8555,52
2.294,44,12.4686,-2.0813,-12.8479,-0.2504,-0.6686,-0.6709,91,2.025,39,6.0362,1.292,-16.6302,0.1945,-1.0136,-0.4433,87,1.58,30,1.8788,0.3993,-11.9892,-0.3445,1.8559,1.431,86,1.832,35,9.2471,-8.642,-11.3955,-0.5047,-0.1653,-0.6926,52
2.346,45,7.8634,-2.4182,-13.0219,-0.8602,0.1945,0.1671,91,2.077,40,9.3247,-0.1684,-17.7086,0.6598,-1.4124,0.1248,87,1.632,31,4.657,3.7617,-13.7264,0.3884,2.0329,1.6085,86,1.884,36,11.8662,-1.0152,-16.2982,0.1673,-0.5317,-0.9531,52
2.398,46,3.4312,-2.6968,-12.7706,-1.3052,-0.0694,0.3738,91,2.129,41,11.7249,1.8094,-16.9734,0.2925,-1.7035,0.7564,87,1.683,32,8.1756,5.6997,-18.023,0.7624,2.0586,1.1606,86,1.935,37,11.7367,-3.9659,-16.0977,0.737,-1.0548,-0.4663,52
2.45,47,3.4401,-5.5728,-10.1893,-1.2982,-0.7121,0.6552,91,2.181,42,13.4766,1.1981,-14.4617,0.3424,-1.916,0.764,87,1.735,33,1.2467,7.0477,-16.09,1.136,1.0815,0.1815,86,1.987,38,12.7065,-2.8414,-15.0493,0.8318,-0.9629,0.2222,52
2.502,48,0.5621,-5.0745,-8.5293,-0.5181,0.0963,0.6011,91,2.233,43,14.755,3.1854,-13.5377,0.9216,-2.071,0.5756,87,1.787,34,3.4073,8.6795,-17.4195,0.6173,0.378,-0.3643,86,2.039,39,11.8021,-2.9924,-14.4337,0.6908,-0.6929,0.7042,52
2.553,49,5.0233,-7.027,-11.7832,0.2962,-0.5991,0.0586,91,2.284,44,14.8313,4.0168,-13.6189,0.8544,-2.1842,0.26,87,1.839,35,4.1376,7.3344,-17.2032,0.7757,-0.3975,-0.7566,86,2.091,40,10.6942,-3.3278,-14.1993,0.8306,-0.3838,1.1024,52
2.605,50,8.0649,-8.583,-16.168,0.8906,0.2434,0.7194,91,2.336,45,14.3633,4.2549,-12.0396,-0.0457,-2.2668,-0.3389,87,1.891,36,5.1203,5.4146,-17.0777,0.2754,-0.9635,-1.0185,86,2.143,41,10.4885,-4.3114,-13.7312,0.9771,-0.1357,1.3743,52
2.657,51,10.9426,-4.9257,-18.2883,1.3244,0.86,1.2017,91,2.388,46,13.2791,3.5136,-10.2496,0.2757,-1.9376,-0.9337,87,1.942,37,6.2656,4.7388,-17.241,-0.1262,-0.838,-1.1973,86,2.194,42,9.6078,-5.7867,-13.0236,1.1493,-0.2234,1.1396,52
2.709,52,10.4702,-3.457,-17.9604,1.5023,1.3101,1.5537,91,2.44,47,10.6528,1.5301,-8.2358,0.2859,-0.9294,-1.3678,87,1.994,38,9.1609,0.251,-18.1042,-0.2534,-0.2702,-0.9556,86,2.246,43,11.9479,-5.1613,-13.7262,1.457,-0.4405,0.1919,52
2.76,53,7.9717,-5.1889,-17.4584,1.0723,0.7828,1.7291,91,2.492,48,7.8766,-1.8377,-5.3461,0.4712,-0.4695,-1.635,87,2.046,39,11.5283,-0.2158,-16.5864,-0.7862,0.0942,-0.3836,86,2.298,44,11.2067,-4.4466,-15.7973,1.5969,-0.021,-0.4845,52
2.812,54,6.9759,-4.777,-16.6906,1.4185,0.4107,1.5674,91,2.543,49,8.9227,-3.4321,-2.9646,0.8502,-0.0028,-1.462,87,2.098,40,10.6131,-1.4847,-15.7946,-1.249,0.2832,-0.0616,86,2.35,45,10.285,-4.5272,-14.5342,1.8402,0.1231,-0.387,52
2.864,55,4.6568,-3.7898,-15.6696,1.46,-0.3457,1.2557,91,2.595,50,11.4314,-2.2821,-3.3022,0.717,0.677,-0.8118,87,2.15,41,10.9515,-4.0327,-15.6804,-1.5868,-0.4667,-0.5921,86,2.402,46,7.9909,-2.5991,-13.2173,1.0983,0.3649,0.3153,52
2.916,56,4.8434,-0.8468,-14.19,1.7375,-0.8282,0.822,91,2.647,51,13.2624,2.2252,-8.4706,0.478,1.1732,-1.243,87,2.202,42,13.1482,-3.4392,-16.0804,-0.6627,-1.014,-1.1062,86,2.453,47,7.2292,-2.3022,-13.3146,1.4496,0.6417,0.9105,52
2.968,57,4.5872,1.7938,-12.2689,1.2171,-0.6933,0.2875,91,2.699,52,14.5987,2.9643,-10.6508,-0.3311,1.5353,-1.1764,87,2.254,43,14.8619,-2.0885,-17.6177,-0.2766,-1.4135,-1.4813,86,2.505,48,10.3935,-1.2793,-15.156,0.9595,0.9599,1.3449,52
3.019,58,6.2247,2.3701,-10.8931,0.5291,-0.5739,-0.3565,91,2.751,53,15.574,5.4326,-13.0408,-0.6556,1.7996,-1.3157,87,2.305,44,11.9305,-0.4712,-16.78,-0.2722,-1.15,-1.3087,86,2.557,49,8.7499,-6.2305,-14.5214,0.0232,1.3855,1.6023,52
3.071,59,9.5995,-3.4421,-10.8539,-0.2732,0.1356,-0.9227,91,2.803,54,16.286,4.8372,-14.4083,-1.1585,1.9925,-1.6466,87,2.357,45,7.1282,1.4211,-16.623,0.4779,-0.161,-0.4762,86,2.609,50,6.5127,-6.2199,-11.5552,-0.5296,1.2384,0.498,52
3.123,60,10.6327,-3.8227,-9.1351,-0.1283,0.7786,-1.3485,91,2.854,55,13.3298,2.9496,-14.7354,-1.3354,2.1333,-1.4994,87,2.409,46,5.444,3.4782,-18.8685,1.0253,0.5609,-0.0641,86,2.661,51,4.9221,-7.0696,-11.2159,-1.0636,1.0699,-0.3079,52
3.175,61,12.0227,-4.4305,-8.5613,-0.7139,1.0036,-1.6593,91,2.906,56,10.5828,2.6807,-13.7065,-1.0031,2.1785,-1.4682,87,2.46,47,3.6868,4.8935,-21.0915,1.3035,1.0877,-0.2786,86,2.712,52,3.5925,-6.979,-12.1498,-1.1896,0.9191,-0.8961,52
3.227,62,13.8019,-5.2917,-10.7804,-1.1471,1.0073,-1.8862,91,2.958,57,7.0568,2.1527,-14.7633,-1.0369,2.0211,-1.703,87,2.512,48,2.1512,3.5992,-20.4534,1.3617,1.2653,-0.3438,86,2.764,53,3.4503,-4.8683,-11.8918,-1.205,0.2671,-1.3255,52
3.278,63,13.6232,-4.9155,-11.7818,-0.2611,0.0658,-2.0517,91,3.01,58,4.7383,0.0401,-17.0855,-0.4799,1.3887,-1.8433,87,2.564,49,-0.1194,1.4682,-17.1177,0.6163,0.8844,0.266,86,2.816,54,3.1691,-3.5092,-11.3065,-1.3753,-0.3146,-1.6388,52
3.33,64,14.3937,-3.1902,-12.521,0.2273,-0.6213,-2.1725,91,3.062,59,4.4454,-0.1987,-16.8839,-0.0152,0.3427,-1.5556,87,2.616,50,-1.2219,1.0537,-13.5316,0.2298,0.9338,0.7846,86,2.868,55,2.5572,-2.3332,-9.3603,-1.1869,-0.5429,-1.8675,52
3.382,65,15.5617,-3.4243,-13.0486,0.0287,-1.1228,-2.2607,91,3.113,60,3.2036,0.6094,-12.4097,0.2322,-0.227,-1.2611,87,2.668,51,-1.5556,1.4265,-12.2585,-0.0237,1.3599,1.2381,86,2.919,56,5.8865,-4.838,-9.2555,-1.5433,-0.2959,-2.0344,52
3.434,66,13.2095,-3.5869,-10.292,-0.6564,-1.4888,-2.1787,91,3.165,61,4.4245,0.6962,-9.8679,0.4919,-0.8383,-0.9678,87,2.719,52,0.6044,2.5868,-13.3172,-0.1113,1.6709,1.5814,86,2.971,57,8.8167,-8.8278,-12.9479,-0.8936,-0.161,-1.2501,52
3.486,67,11.5221,-5.7365,-9.1638,-1.1564,-1.7559,-2.0222,91,3.217,62,8.1484,2.1823,-6.6041,-0.2821,-1.2845,-0.6324,87,2.771,53,5.7069,3.1618,-17.6247,0.496,1.8978,1.6451,86,3.023,58,9.4003,-1.1508,-16.8406,0.0225,0.0764,-0.3238,52
3.537,68,9.4973,-7.0196,-8.0247,-0.2157,-1.6551,-1.1796,91,3.269,63,8.4312,4.0736,-3.8619,0.3673,-1.062,-0.6018,87,2.823,54,-1.1591,7.6595,-20.8682,0.0247,0.8638,0.8276,86,3.075,59,10.7616,1.3938,-14.4805,0.5981,-0.5538,0.444,52
3.589,69,8.6085,-7.3469,-4.5004,0.384,-1.1521,-0.6619,91,3.321,64,8.9194,2.1655,-1.9572,-0.0516,-1.0654,-0.374,87,2.875,55,2.0492,10.8405,-19.8647,-0.3204,0.0072,0.2107,86,3.127,60,7.8352,3.9284,-16.9254,1.1112,0.0732,0.8609,52
3.641,70,11.3393,-4.5166,-11.2811,0.9546,-1.4905,0.1523,91,3.372,65,8.6784,0.9053,-1.0802,0.2163,-0.343,-0.1116,87,2.927,56,4.5082,7.8248,-18.0071,-0.2892,-0.324,-0.0055,86,3.178,61,8.8391,1.0697,-15.9417,1.0815,0.135,1.2677,52
3.692,71,13.3322,0.4728,-15.168,1.2965,-0.4054,0.7878,91,3.424,66,8.2938,0.4701,-1.73,0.2214,0.4169,0.2713,87,2.978,57,6.3989,5.3436,-16.6398,-0.3746,-0.6075,-0.5106,86,3.23,62,9.3453,-0.9643,-15.2399,0.9511,0.4545,1.2305,52
3.744,72,12.6017,3.0481,-15.6319,0.6348,0.3865,1.2516,91,3.476,67,6.9113,0.6724,-3.0058,0.4191,0.4932,0.7853,87,3.03,58,8.2296,4.467,-15.3452,-0.6641,-0.9709,-0.744,86,3.282,63,10.3401,-2.0578,-14.4163,0.8085,0.5652,0.7877,52
3.796,73,13.3768,2.9038,-15.1845,1.1377,0.9645,1.5901,91,3.528,68,6.6311,2.1196,-4.9512,0.5647,-0.3018,1.2385,87,3.082,59,8.8428,1.8709,-16.5368,-0.8311,-1.382,-0.945,86,3.334,64,12.0154,-0.9101,-15.4659,1.2353,0.0423,-0.0965,52
3.848,74,12.2969,1.9551,-13.4264,1.3273,1.3864,1.8372,91,3.58,69,5.44,3.9573,-4.7835,1.0839,-0.8929,1.5562,87,3.134,60,6.9206,2.1838,-16.4399,-1.1697,-1.6634,-0.9206,86,3.385,65,8.1428,-5.6884,-15.6742,1.5763,0.3497,0.0251,52
3.9,75,11.4409,-3.7708,-11.5891,0.6038,1.6942,2.0175,91,3.632,70,-0.8927,7.499,-0.9303,1.3818,-0.8949,1.6774,87,3.186,61,7.0648,3.0938,-16.8521,-1.3062,-1.5923,-0.7982,86,3.437,66,3.5099,-0.0581,-14.8212,0.4734,0.6504,0.6987,52
3.952,76,12.2863,-7.1439,-10.4875,1.1151,1.8223,2.1491,91,3.683,71,-0.6121,10.7999,0.7336,1.6803,-1.3258,0.9259,87,3.237,62,8.4749,3.4381,-17.1697,-1.2976,-1.0685,-0.6142,86,3.489,67,3.0969,-2.5271,-14.9616,-0.0442,-0.192,-0.042,52
4.004,77,11.569,-6.5267,-12.0544,1.4876,2.0078,2.2452,91,3.735,72,4.4725,12.8709,-0.6433,0.5549,-0.597,-0.0106,87,3.289,63,11.0023,1.0269,-16.7504,-1.1958,-0.5027,-0.5186,86,3.541,68,2.661,-2.1484,-11.6693,0.6424,0.0214,-0.4213,52
4.055,78,9.4761,-2.8738,-14.6261,1.3477,1.7926,2.3153,91,3.787,73,8.1835,13.6321,-1.5731,-0.275,0.2363,-0.6941,87,3.341,64,10.78,-1.0417,-12.5578,-1.548,-0.7209,-0.6169,86,3.593,69,7.0594,3.7241,-11.9732,1.1436,0.5647,-0.5077,52
4.107,79,7.7725,1.7325,-15.0625,1.5865,0.7774,1.4808,91,3.839,74,10.2081,10.4127,-4.0375,-0.8807,0.8516,-1.1519,87,3.393,65,13.1334,2.5054,-12.8193,-0.4533,-1.1995,-1.1242,86,3.644,70,10.2695,4.8937,-15.1318,1.0812,0.8944,0.3098,52
4.159,80,8.5787,6.6164,-16.152,1.3077,-0.1019,0.4056,91,3.891,75,9.3648,9.7462,-6.3754,-0.6794,0.8604,-1.1863,87,3.445,66,13.816,0.8586,-16.492,-1.006,-1.3615,-1.2061,86,3.696,71,12.6125,7.3899,-14.9388,1.4638,1.3378,0.9064,52
4.21,81,11.3174,-0.3688,-15.5836,0.277,-0.7437,-0.3791,91,3.942,76,7.7371,7.4029,-9.331,-1.1759,0.5577,-1.0148,87,3.496,67,8.9841,4.0902,-20.0415,-0.0577,-0.3396,-1.0917,86,3.748,72,10.8024,0.0967,-17.9061,0.3912,1.1109,1.3419,52
4.262,82,13.3164,-2.1883,-10.7051,0.2297,-0.9755,-0.7219,91,3.994,77,7.2722,4.4633,-10.7857,-0.7764,-0.2656,-0.7587,87,3.548,68,4.6239,6.422,-22.186,0.4901,0.4305,-0.3225,86,3.8,73,6.6837,-1.7287,-15.2454,0.9602,1.1582,0.7497,52
4.314,83,14.1816,-5.2751,-9.3841,-0.5097,-0.7425,-1.1917,91,4.046,78,7.2133,3.0429,-10.5911,-0.3374,-0.8666,-0.4257,87,3.6,69,3.222,6.5628,-20.4739,1.0342,0.9925,0.216,86,3.852,74,2.9205,-2.1861,-13.5643,0.0237,0.8883,-0.1242,52
4.366,84,11.1583,-5.7554,-8.9681,-0.6628,-0.7505,-1.5449,91,4.098,79,5.2124,0.4922,-11.6571,0.3944,-0.9776,0.1403,87,3.652,70,1.3361,6.6776,-18.7755,0.7948,1.4028,0.7023,86,3.904,75,-0.166,-3.7174,-14.0547,-0.6524,0.637,-0.7621,52
4.418,85,7.0933,-5.9009,-8.1062,-1.1611,-1.1711,-1.8026,91,4.15,80,4.4276,-1.0596,-11.7681,0.9596,-1.3862,0.7678,87,3.704,71,-1.0839,4.9601,-16.6719,0.0868,1.5079,1.1903,86,3.955,76,-2.2834,-1.818,-12.5909,-0.3142,-0.0167,-1.2276,52
4.469,86,8.1151,-7.185,-8.0596,-0.642,-1.5241,-1.925,91,4.202,81,7.3086,-1.0561,-9.6159,0.7755,-1.6844,1.2257,87,3.755,72,-1.6574,2.9841,-12.4118,0.0048,1.7313,1.5464,86,4.007,77,-2.5079,0.1137,-11.7864,-0.9064,-0.679,-1.5674,52
4.521,87,7.1339,-6.5417,-7.0888,-0.4975,-1.0662,-1.335,91,4.254,82,8.7654,1.7421,-6.6188,1.2095,-1.4025,1.5213,87,3.807,73,1.0292,2.133,-10.0223,0.3939,1.9419,1.8064,86,4.059,78,-2.6144,-1.245,-9.7621,-0.0826,-1.1623,-1.8153,52
4.573,88,6.331,-3.9348,-8.6295,-0.5575,-0.1612,-0.3192,91,4.305,83,11.3166,2.7181,-7.0953,1.3347,-0.5689,1.2525,87,3.859,74,5.7064,1.6588,-13.5778,0.964,2.0957,1.8783,86,4.111,79,3.1429,-6.2055,-9.3613,-0.2889,-1.5151,-1.9963,52
4.625,89,3.4382,0.2893,-11.7498,-1.0843,0.5643,-0.069,91,4.357,84,13.1786,5.6259,-9.1645,0.2941,-1.0879,1.4211,87,3.911,75,3.8436,5.6044,-17.6309,0.8558,1.1141,1.3259,86,4.162,80,7.4111,-9.8258,-4.2245,-0.6723,-0.9623,-0.7767,52
4.677,90,2.5585,-0.8208,-12.1336,-1.241,-0.2575,-0.7041,91,4.409,85,12.1553,0.8665,-13.3398,0.3011,-0.3527,0.8273,87,3.963,76,8.071,-1.1467,-13.8909,-0.0506,0.203,1.3172,86,4.214,81,4.5375,-12.4681,-0.4755,-1.011,-0.0174,0.1135,52
4.728,91,6.4328,1.2195,-11.41,-0.2314,-0.8572,-1.189,91,4.461,86,13.3553,1.3556,-15.2538,0.2722,-0.9301,0.5057,87,4.014,77,0.5664,-2.723,-15.6827,-0.7121,0.5213,0.3469,86,4.266,82,6.3434,-12.1976,-3.9456,-0.5265,0.3531,-0.095,52
4.78,92,9.7514,0.8966,-11.9986,-0.2451,-0.913,-1.4339,91,4.513,87,12.9648,0.4351,-15.8169,0.5045,-0.9153,-0.0771,87,4.066,78,2.0899,-2.61,-14.4941,-0.5976,-0.177,-0.0351,86,4.318,83,6.5955,-10.4191,-7.8058,-0.1069,0.4436,-0.7408,52
4.832,93,11.2325,-0.9513,-12.5899,-0.8378,0.0161,-0.3698,91,4.565,88,11.6314,1.2257,-14.2285,1.04,-1.1423,-0.317,87,4.118,79,4.337,-2.3964,-14.8603,-0.7148,-0.4562,-0.1303,86,4.37,84,5.2099,-9.118,-10.3587,0.5638,0.3507,-0.9423,52
4.884,94,13.1099,1.3101,-14.7248,0.0629,0.6942,0.4067,91,4.616,89,9.6857,1.4889,-10.9578,0.9041,-1.2286,-0.5409,87,4.17,80,7.4432,-1.6389,-14.6764,-0.7318,-0.5319,-0.1968,86,4.421,85,5.7979,-3.4434,-14.1768,1.0862,-0.2183,-1.2912,52
4.935,95,14.3537,0.0261,-16.6298,0.609,1.02,0.9735,91,4.668,90,7.9209,-0.0581,-9.2015,0.9826,-0.9725,-0.6607,87,4.222,81,9.2478,-1.9768,-14.1682,-0.9036,-0.4623,-0.1295,86,4.473,86,9.1847,-3.4396,-14.9863,1.4674,-0.6528,-1.3141,52
4.987,96,13.9197,-0.2525,-17.8374,1.0138,1.4269,1.359,91,4.72,91,6.2147,-0.427,-8.8073,1.0295,-0.6819,-0.4089,87,4.273,82,10.9819,-3.1475,-12.4988,-0.9476,-0.4889,-0.1869,86,4.525,87,11.342,-2.1576,-9.7519,1.7457,-0.7027,-0.9197,52
5.039,97,11.3739,0.0209,-18.0665,0.8479,1.7238,1.611,91,4.772,92,3.799,-1.2685,-7.655,0.5677,-0.2231,-0.1509,87,4.325,83,9.2393,-3.0014,-11.7214,-0.991,-0.6559,-0.3294,86,4.577,88,11.2584,-3.9605,-9.4096,1.418,-0.4152,-0.2053,52
5.091,98,6.7155,1.5576,-16.8205,0.7367,1.9405,1.5316,91,4.824,93,3.7782,-2.2205,-8.5603,1.086,-0.1823,0.0606,87,4.377,84,5.8478,-4.0527,-7.9908,-1.3985,0.1996,0.3764,86,4.628,89,10.3607,-1.1615,-9.3235,1.7096,0.2246,-0.2338,52
5.143,99,5.4169,2.7108,-15.6618,0.2383,0.7476,0.8718,91,4.875,94,7.6768,-0.5274,-12.1009,0.4545,0.4233,0.1987,87,4.429,85,4.455,-1.8631,-13.0426,-0.9243,0.793,0.9525,86,4.68,90,8.6438,0.8514,-10.1049,1.9224,0.4012,-0.6052,52
5.194,100,4.3416,0.6844,-14.3954,-0.5034,0.7961,0.3792,91,4.927,95,10.5221,-1.3612,-13.5723,1.0034,0.988,-0.5413,87,4.481,86,8.5172,-3.3861,-14.0919,-0.336,-0.0464,0.0349,86,4.732,91,7.4275,1.3159,-11.3019,2.0777,-0.0629,-1.1131,52
5.246,101,1.1342,-0.2027,-12.2229,-0.9977,0.9457,0.1522,91,4.979,96,11.555,-2.3532,-15.3673,1.0132,1.4002,-1.0815,87,4.532,87,7.2509,-6.8777,-14.6161,-0.727,0.0368,-0.6485,86,4.784,92,7.6941,0.1188,-12.5813,2.1911,-0.7127,-1.4838,52
5.298,102,5.8534,-4.8245,-13.6393,-1.4056,0.0209,-0.0604,91,5.031,97,9.4323,-4.1423,-15.5532,0.8082,1.4525,-1.4757,87,4.584,88,3.574,-8.1044,-14.2081,0.1265,0.7052,-1.1156,86,4.836,93,9.8321,-3.6615,-11.7188,2.2738,-1.1869,-1.7543,52
5.35,103,9.1134,-8.7188,-13.6206,-0.5158,-0.3695,-0.2022,91,5.083,98,7.3203,-6.3905,-15.6595,0.5975,1.7392,-0.7504,87,4.636,89,2.4495,-8.7408,-12.5962,0.7688,1.193,-0.6511,86,4.887,94,10.3491,-0.2347,-13.2307,1.9591,-0.5433,-0.7296,52
5.402,104,10.0562,-6.5653,-13.5613,0.2979,-0.9187,-0.6108,91,5.134,99,8.046,-5.5202,-16.419,1.1078,1.8568,0.1177,87,4.688,90,5.978,-6.447,-17.1982,1.2377,1.5491,-0.9536,86,4.939,95,7.7185,-0.703,-11.6727,1.5544,-0.4438,0.1479,52
5.453,105,7.8088,-5.5577,-13.6657,0.5608,-0.5805,-0.7222,91,5.186,100,9.939,-0.7286,-16.3808,1.4803,1.5158,0.7513,87,4.739,91,7.8722,0.6466,-12.0653,1.1345,0.9727,-0.7502,86,4.991,96,7.7629,-0.1948,-12.1548,1.4885,-0.2561,0.7284,52
5.505,106,4.9123,-4.206,-13.482,0.8811,-0.4053,-0.8072,91,5.238,101,11.8603,1.481,-14.7067,1.3539,0.6309,1.2137,87,4.791,92,8.0627,-1.6718,-10.0861,0.6262,0.4147,-0.2169,86,5.043,97,8.1754,-1.5248,-12.3529,1.2606,-0.2779,0.9388,52
5.557,107,1.5543,-3.9869,-13.5536,1.3172,-0.6637,-1.0301,91,5.29,102,9.4151,1.2015,-12.7383,1.6599,0.4174,1.4556,87,4.843,93,7.5447,0.5775,-11.5866,0.708,0.4049,-0.2874,86,5.095,98,8.9607,-2.6518,-12.9274,0.9296,-0.1082,0.7942,52
5.609,108,6.1909,-3.8852,-17.8885,1.6357,-1.1537,-1.4269,91,5.342,103,7.311,1.0892,-11.8455,1.8832,0.2241,1.7183,87,4.895,94,8.4531,0.9954,-10.9902,0.2837,0.8481,0.1962,86,5.146,99,11.6572,-1.4551,-15.0853,0.848,-0.1556,0.4422,52
5.661,109,6.7373,-3.6811,-19.6808,1.8682,-0.1596,-1.2364,91,5.393,104,8.7952,1.1271,-12.6072,2.0461,0.0457,1.8368,87,4.947,95,7.697,0.0358,-9.7989,0.0721,0.7537,0.3547,86,5.198,100,11.5736,1.6454,-16.2224,1.2936,0.0476,0.6792,52
5.712,110,7.7624,-1.6564,-18.3258,2.0251,-0.1732,-0.3742,91,5.445,105,10.2281,2.6338,-12.4811,2.1651,-0.2227,1.4332,87,4.998,96,7.8034,-0.7405,-10.3148,0.1804,0.2152,-0.0523,86,5.25,101,7.073,6.1494,-16.2406,0.4982,0.072,1.1761,52
5.764,111,4.883,-2.0718,-16.6858,2.049,0.2356,-0.0714,91,5.497,106,9.6318,2.8986,-10.5235,2.1913,-0.5435,0.9453,87,5.05,97,9.081,0.1285,-10.8427,0.3518,-0.0593,-0.4297,86,5.302,102,-0.25,8.7812,-14.2095,0.8678,-0.236,0.1869,52
5.816,112,3.5872,-1.2174,-15.9944,2.1698,-0.4598,-0.0399,91,5.549,107,7.4538,5.3145,-6.3564,2.271,-0.4863,0.6049,87,5.102,98,9.8116,1.0829,-11.1318,0.3341,0.2206,-0.5821,86,5.354,103,4.7678,5.3416,-17.3257,-0.0437,-0.8391,-0.535,52
5.868,113,4.9585,-3.484,-16.5363,1.9333,-1.0049,-0.4403,91,5.601,108,8.1125,9.2056,-1.9914,2.1327,0.2781,-0.2449,87,5.154,99,10.8226,0.9313,-10.3305,0.2634,0.6853,-0.6672,86,5.405,104,8.1316,7.7923,-15.9111,0.6428,-0.2324,-1.0118,52
5.92,114,7.9191,-5.3225,-16.9281,2.0854,-0.5406,-0.4076,91,5.653,109,10.8401,11.6576,1.1944,0.913,0.8821,-0.8651,87,5.206,100,10.4537,-1.2291,-10.903,0.7583,1.1291,-1.1058,86,5.457,105,11.0521,1.9074,-17.1112,0.7736,0.0425,-0.3506,52
5.971,115,7.5554,-4.7363,-16.0054,2.1964,-0.4416,-0.0094,91,5.704,110,12.8308,12.1436,2.3999,0.0435,1.3229,-1.3178,87,5.258,101,11.0533,-5.526,-11.074,0.8843,1.0648,-1.4811,86,5.509,106,11.2068,-0.0807,-17.2151,1.0852,-0.0053,-0.0975,52
6.023,116,3.392,-3.621,-17.6848,1.9733,0.3601,0.2377,91,5.756,111,14.2837,6.9713,-3.7447,-0.6428,1.6446,-1.6481,87,5.309,102,13.3329,-4.3973,-16.0872,1.3219,0.1037,-1.755,86,5.561,107,11.347,0.6729,-17.0809,1.4667,-0.0425,0.3909,52
6.075,117,3.102,-3.6967,-17.9529,1.0931,-0.4065,0.0566,91,5.808,112,15.3157,3.6968,-10.6729,0.2026,1.0593,-1.4642,87,5.361,103,14.6825,0.5832,-18.7045,1.1105,-0.5977,-1.9549,86,5.613,108,12.7794,1.7023,-17.4472,1.7451,-0.0912,0.9656,52
6.127,118,7.3204,-6.8399,-15.3276,1.4721,0.3857,0.6885,91,5.86,113,13.8949,0.7827,-10.3326,0.4209,0.1004,-0.6109,87,5.413,104,11.7125,2.4327,-18.138,0.4292,0.1978,-1.5625,86,5.665,109,14.2584,4.4022,-16.0161,1.9484,0.5461,1.3592,52
6.178,119,10.3992,-5.2182,-13.3236,1.7488,0.8088,1.1788,91,5.912,114,10.6221,0.4878,-7.1648,0.6901,-0.5473,0.2073,87,5.465,105,9.0684,2.4272,-17.7174,0.9898,0.8227,-1.1398,86,5.716,110,13.1691,2.6671,-15.121,1.3134,0.4103,1.6723,52
6.23,120,7.6264,1.5671,-16.0933,1.6941,1.2727,0.4237,91,5.963,115,9.5698,0.5023,-8.3742,1.1754,-0.4795,0.8167,87,5.517,106,5.9862,3.4692,-16.4407,0.6286,1.2788,-0.2521,86,5.768,111,8.2084,-1.9675,-13.5003,0.9215,0.5193,1.0823,52
6.282,121,3.542,0.344,-18.4358,1.5176,0.2641,-0.3659,91,6.015,116,7.5732,2.2174,-10.3932,1.5296,-0.1827,1.2614,87,5.568,107,3.4828,2.239,-15.2968,1.1353,1.6117,0.3472,86,5.82,112,5.0921,-2.946,-11.0808,0.2885,0.2962,0.1185,52
6.334,122,6.4192,-1.9187,-15.32,0.4303,-0.4766,-0.9422,91,6.067,117,10.4389,4.2383,-9.1648,1.7881,-0.3912,1.586,87,5.62,108,2.2308,1.6289,-14.0189,1.5051,1.8546,0.7738,86,5.872,113,2.0785,-3.3084,-10.9896,-0.1421,0.0772,-0.5849,52
6.386,123,6.4004,-2.0359,-12.6844,0.9884,-0.9258,-1.3627,91,6.119,118,7.4401,7.7427,-4.0411,1.9768,-0.2292,1.8229,87,5.672,109,1.758,0.5252,-13.395,1.4216,2.032,1.2425,86,5.923,114,0.6335,-2.0019,-10.1103,-0.2153,-0.4948,-1.0983,52
6.437,124,5.5117,-1.4424,-10.8932,1.3958,-1.0065,-1.5668,91,6.171,119,8.0886,10.5138,-5.5676,0.7627,0.0536,1.3073,87,5.724,110,1.1884,1.0471,-13.9678,1.1606,2.1614,1.5845,86,5.975,115,1.1495,-1.1042,-9.2854,-0.6131,-1.0148,-1.473,52
6.489,125,2.6899,-0.0479,-10.2039,1.6931,-0.3128,-1.46,91,6.222,120,7.1544,10.3137,-5.5602,-0.1234,-0.0005,0.3968,87,5.776,111,6.1331,1.0972,-15.585,0.2975,2.1808,1.8342,86,6.027,116,2.1109,-0.6766,-9.8831,-0.6528,-1.2737,-1.7465,52
6.541,126,7.0195,-1.7392,-11.567,1.1039,-0.8976,-1.7407,91,6.274,121,6.4391,6.9631,-6.6259,-0.7701,0.6547,-0.0526,87,5.827,112,9.0296,1.9007,-16.6378,0.4865,2.0467,1.6706,86,6.079,117,1.6503,1.5973,-9.379,-0.7683,-1.002,-1.946,52
6.593,127,8.5046,-2.1141,-12.5202,0.8997,0.0124,-0.7813,91,6.326,122,6.8782,3.2829,-7.7598,-1.1271,1.1473,0.2964,87,5.879,113,9.5129,3.1324,-18.6852,0.9188,0.8363,0.7127,86,6.131,118,3.3325,1.3193,-10.9263,-1.2378,-0.8013,-2.0917,52
6.645,128,8.5971,-2.05,-11.4348,0.4323,0.6914,0.1064,91,6.378,123,9.9392,0.8698,-10.4374,-0.8586,1.2992,0.5708,87,5.931,114,9.2453,2.9287,-17.2019,0.6724,-0.063,-0.1284,86,6.183,119,7.5495,-3.8958,-13.3615,-1.5805,-0.5149,-2.198,52
6.696,129,6.5425,-0.5983,-10.1375,0.033,1.1871,0.5015,91,6.43,124,12.1733,0.7684,-11.5826,-0.8325,1.4425,0.1529,87,5.983,115,12.0133,6.9998,-12.8934,0.1534,-0.7194,-0.5961,86,6.234,120,9.9364,-7.9207,-12.6991,-0.5707,-0.2351,-0.9242,52
6.748,130,5.4955,-1.4794,-9.6687,-0.0281,1.0171,0.5823,91,6.481,125,11.7026,2.9965,-11.9793,0.0269,0.623,0.0034,87,6.035,116,13.2999,4.9523,-13.8286,-0.3209,-1.1985,-0.5348,86,6.286,121,12.3693,-0.9134,-6.6606,0.2582,-0.6045,-0.3334,52
6.8,131,9.0674,-4.0502,-10.0248,0.6539,0.1505,0.5028,91,6.533,126,8.1208,3.6526,-12.2725,0.5336,0.3796,-0.0048,87,6.086,117,12.7072,3.8765,-14.6287,-0.5317,-1.2613,-0.2736,86,6.338,122,14.1449,-0.3264,-4.44,0.8631,-0.5306,0.4281,52
6.852,132,11.6742,-5.2097,-12.3162,0.6179,0.7923,1.0436,91,6.585,127,2.8079,2.9426,-14.2471,1.0611,-0.3956,0.6619,87,6.138,118,14.54,2.577,-14.8469,-0.6081,-0.9181,-0.1808,86,6.39,123,14.009,-1.6069,-7.9432,0.7683,-0.4393,0.3675,52
6.904,133,13.5768,-5.1768,-14.1238,1.0602,0.8499,1.4383,91,6.637,128,4.5397,4.5036,-14.8763,0.2185,-0.9614,1.1484,87,6.19,119,14.2702,-0.6831,-13.6496,-1.0876,-0.4294,-0.0143,86,6.442,124,15.3417,1.8613,-12.2876,0.8702,-0.4622,-0.174,52
6.955,134,11.4194,-0.9561,-13.9944,1.0308,1.3027,1.7257,91,6.689,129,8.2325,5.5217,-17.2122,-0.5206,-1.3744,1.3116,87,6.242,120,12.5707,-2.4972,-11.3012,-1.469,-0.7623,-0.3364,86,6.493,125,12.7341,5.6272,-13.0015,1.3098,0.0394,0.4494,52
7.007,135,8.525,1.0194,-13.856,0.164,0.9404,1.3576,91,6.741,130,9.3221,-0.4106,-17.2015,-1.06,-0.6713,0.2861,87,6.293,121,9.8189,-2.9776,-6.8215,-1.7474,-0.6585,0.0312,86,6.545,126,7.6538,9.3991,-12.8183,0.4008,-0.0281,0.7057,52
7.059,136,6.524,0.1533,-12.6748,-0.3459,0.4949,0.9763,91,6.792,131,10.8305,-2.2226,-14.4269,-0.1019,-0.9109,-0.1391,87,6.345,122,7.0669,-1.8447,-5.1209,-1.8249,0.1977,0.7005,86,6.597,127,4.9354,9.1849,-11.5401,0.3518,-0.179,-0.1564,52
7.111,137,4.3983,-1.0203,-10.7671,0.1961,-0.0932,0.6055,91,6.844,132,12.8238,-3.4997,-14.3101,0.5889,-0.2271,0.5639,87,6.397,123,1.5709,2.8394,-11.7424,-0.9359,0.4233,0.7208,86,6.649,128,4.5576,1.5393,-10.5937,0.188,-0.3595,-0.7855,52
7.163,138,5.1484,-2.2181,-7.9963,0.5577,-0.4327,0.7085,91,6.896,133,14.0343,-2.5978,-11.8257,1.1016,0.5133,1.0661,87,6.449,124,6.4122,2.2424,-8.2717,-0.3445,0.0237,0.0378,86,6.701,129,8.2969,5.3355,-13.8502,0.4745,-0.3867,0.0935,52
7.214,139,1.3918,-2.7274,-7.4289,0.6378,0.3666,1.1733,91,6.948,134,15.1265,-2.2555,-10.0543,1.4298,1.0537,1.4434,87,6.501,125,9.9457,1.7569,-10.0201,-0.416,-0.4422,-0.6072,86,6.752,130,11.1727,4.1415,-18.0897,-0.3308,0.4028,0.7486,52
7.266,140,4.7135,-6.5538,-9.8799,-0.2118,-0.4018,0.7937,91,7.0,135,15.9592,-0.978,-10.0234,0.56,1.4481,1.7189,87,6.553,126,10.9005,0.3089,-9.8965,-0.6829,-0.6667,-1.1171,86,6.804,131,7.6056,0.7982,-16.5951,-0.0837,0.9789,0.9333,52
7.318,141,3.8818,-8.7634,-8.4695,0.4899,0.3747,0.4387,91,7.051,136,16.567,3.7682,-15.2553,0.9931,1.736,1.4344,87,6.604,127,13.2214,-1.7603,-8.766,-0.8262,-1.1458,-1.4893,86,6.856,132,7.0264,-1.5863,-15.6947,0.1283,0.8551,0.9157,52
7.37,142,3.9603,-1.4748,-6.0152,1.0319,-0.186,-0.2756,91,7.103,137,12.9745,3.104,-19.0738,1.0486,1.2286,0.6597,87,6.656,128,14.3322,-1.0656,-14.4027,0.0735,-1.5097,-1.761,86,6.908,133,7.5637,-2.6493,-15.1447,0.1076,0.4979,0.5627,52
7.421,143,7.9468,-3.448,-6.6408,0.0758,0.1244,-0.7033,91,7.155,138,10.4906,1.7404,-19.6724,1.3434,0.2269,0.2632,87,6.708,129,9.7378,0.939,-15.8989,-0.6216,-1.0972,-1.1874,86,6.96,134,8.6687,-2.066,-15.2043,0.5562,0.2653,0.0225,52
7.473,144,10.8564,-5.6127,-8.6851,0.227,0.437,-1.1872,91,7.207,139,8.4707,1.226,-18.3975,1.6522,-0.507,0.2408,87,6.76,130,3.8782,2.8921,-14.1827,-0.0781,-0.9478,-0.2144,86,7.011,135,8.5484,-1.1978,-15.279,0.8855,0.1351,-0.1859,52
7.525,145,9.3386,-5.4085,-9.9843,-0.4789,0.9893,-1.5167,91,7.259,140,7.776,2.088,-16.8468,1.8776,-1.0427,0.4442,87,6.812,131,-0.1863,6.5015,-13.4223,0.6195,-0.6074,-0.1053,86,7.063,136,8.4296,-0.567,-14.5389,1.321,0.2506,-0.151,52
7.577,146,3.9451,-7.8459,-10.5438,-0.6949,1.0282,-1.7821,91,7.31,141,5.9705,4.8334,-13.6579,2.0421,-1.4337,0.6908,87,6.863,132,-2.0251,7.0432,-12.2223,-0.1454,-0.5608,-0.4764,86,7.115,137,6.8426,0.537,-13.138,1.6388,0.8492,0.3719,52
7.629,147,4.3137,-8.5661,-8.9993,-1.1845,0.2409,-1.4383,91,7.362,142,6.8664,6.0663,-7.3203,1.2182,-1.719,0.8544,87,6.915,133,-1.7075,6.1716,-11.5014,0.0528,-0.5715,-1.0179,86,7.167,138,8.4375,0.8596,-13.8639,1.2446,1.3048,0.9518,52
7.68,148,1.8687,-7.9649,-8.4598,-0.2152,0.3017,-0.9302,91,7.414,143,9.9306,6.232,-2.6948,0.6727,-0.8516,0.3318,87,6.967,134,0.5128,5.2337,-12.2627,0.0368,-0.6689,-1.417,86,7.218,139,11.2754,-2.3521,-14.9207,0.5927,1.6372,1.375,52
7.732,149,-0.4585,-6.3757,-8.8807,0.0507,0.5552,-0.3646,91,7.466,144,12.1671,5.7888,-2.2894,0.9223,0.0575,-0.4442,87,7.019,135,5.0922,4.0128,-14.0031,-0.2014,-0.7673,-1.6959,86,7.27,140,8.9193,-6.2244,-13.5404,0.4743,1.7593,1.3693,52
7.784,150,-1.2414,-6.4105,-9.8302,-0.2717,-0.1829,0.3889,91,7.518,145,13.7993,5.0133,-4.3334,-0.0069,0.7211,-0.9177,87,7.07,136,6.2451,4.3144,-14.5359,0.0475,-0.1115,-1.3744,86,7.322,141,3.574,-7.7256,-10.3148,-0.0545,1.0644,0.3281,52
7.836,151,4.1505,-8.0715,-11.1878,0.2212,0.1564,0.9605,91,7.569,146,14.9906,3.5365,-5.4115,0.3704,1.2054,-0.6727,87,7.122,137,6.4541,5.2144,-16.0008,0.4964,0.597,-0.354,86,7.374,142,1.5523,-7.7471,-8.574,-0.7169,0.1928,-0.432,52
7.888,152,8.0857,-6.5274,-8.825,0.8358,-0.4839,1.2795,91,7.622,147,13.146,4.361,-7.071,-0.2367,1.5588,-0.544,87,7.174,138,7.7368,6.8594,-18.5737,0.9336,1.1141,0.4194,86,7.426,143,-0.9297,-7.152,-8.3115,-1.0722,-0.3348,-0.9612,52
7.939,153,10.4002,-6.0611,-6.3922,1.0118,-0.1362,1.1116,91,7.673,148,9.7371,3.2244,-10.8295,-0.6512,1.5555,-0.2532,87,7.226,139,8.1059,7.0623,-19.2688,0.9454,1.4915,0.9838,86,7.477,144,-1.1809,-6.4179,-9.1161,-0.9416,-0.4232,-1.3665,52
7.991,154,9.3094,-8.0234,-4.8205,0.5562,0.5165,0.737,91,7.725,149,8.0864,2.6465,-15.8436,-0.4227,1.1272,0.0395,87,7.278,140,6.3875,6.18,-18.05,1.3383,1.7669,1.3958,86,7.529,145,-0.8386,-3.3848,-9.6006,-0.5041,-0.7355,-1.6688,52
8.043,155,7.3939,-6.6828,-5.5195,0.6406,1.0594,0.0689,91,7.777,150,7.4887,2.7646,-19.5032,-0.3283,0.15,0.1202,87,7.329,141,3.716,5.6691,-16.5858,1.1628,1.9679,1.6964,86,7.581,146,0.7517,-0.674,-10.3293,-0.732,-1.084,-1.8893,52
8.094,156,4.0953,-5.5145,-6.8607,0.6804,1.0665,-0.6248,91,7.829,151,7.9749,2.2251,-19.3513,0.0505,-0.5632,0.2123,87,7.381,142,2.65,6.7948,-17.3128,0.5288,2.1146,1.9159,86,7.633,147,2.0321,0.2994,-11.5156,-0.9523,-1.4103,-2.0503,52
8.146,157,2.8411,-2.9024,-8.0243,1.1447,0.109,-1.1311,91,7.88,152,10.7397,3.485,-17.4421,0.7086,-1.0837,0.6797,87,7.433,143,2.5498,9.1334,-19.7693,1.0625,1.7801,1.7197,86,7.685,148,6.4382,0.2857,-12.2258,-1.3712,-1.504,-2.1678,52
8.198,158,4.039,-1.0475,-9.5309,0.1612,-0.1869,-1.5007,91,7.932,153,12.7575,3.8999,-14.8655,-0.1629,-1.4636,0.1109,87,7.485,144,7.1267,1.4289,-11.8445,0.2967,1.1371,1.5685,86,7.736,149,9.8162,-5.0883,-13.9447,-1.6778,-1.0622,-2.0304,52
8.25,159,3.1239,-2.2044,-11.9736,-0.5598,0.4939,-1.7704,91,7.984,154,14.2302,0.9325,-13.6136,-0.4646,-1.7409,-0.1873,87,7.537,145,10.4671,-2.4598,-15.3094,-0.172,0.1565,0.8409,86,7.788,150,7.9579,-0.1601,-18.1587,-1.1573,-0.5139,-0.8018,52
8.302,160,2.1247,-5.2079,-16.5544,-1.0859,0.7338,-1.9672,91,8.036,155,13.3577,1.7615,-11.0486,-1.0171,-1.6944,-0.3251,87,7.588,146,10.7071,-1.2955,-15.0842,-0.2704,-0.5592,0.4052,86,7.84,151,0.6963,-4.0989,-16.1863,-1.4978,-0.685,0.0951,52
8.354,161,6.6072,-8.9987,-16.8723,-0.4474,-0.1338,-1.3245,91,8.088,156,9.6881,0.9519,-9.1132,-1.4224,-1.4546,-0.6954,87,7.64,147,11.0391,-0.5637,-15.6204,-0.2874,-0.1117,0.2178,86,7.892,152,1.4482,-5.563,-15.209,-0.706,-0.1358,0.749,52
8.406,162,9.8787,-9.3574,-14.7882,0.3478,-0.7635,-0.29,91,8.139,157,6.6804,-0.999,-7.8156,-1.7181,-1.1834,-0.8241,87,7.692,148,13.3226,-1.0408,-14.168,-0.4645,0.0653,0.2915,86,7.944,153,3.8729,-5.9273,-15.2327,-0.3298,0.0252,0.7116,51
8.457,163,12.2664,-5.7818,-14.4667,0.9282,-0.9723,0.465,91,8.191,158,5.8914,-1.8763,-7.8885,-1.121,-0.6461,-0.5867,87,7.744,149,12.2846,-4.8027,-12.0219,-0.7503,-0.2615,-0.0311,86,7.995,154,7.9439,-4.0311,-16.0558,-0.0598,-0.1072,0.0056,51
8.509,164,10.1049,0.1325,-13.998,0.144,-0.4191,0.6561,91,8.243,159,3.763,-1.9348,-9.1762,-0.3153,-0.0534,-0.2507,87,7.796,150,9.4352,-5.9204,-11.8785,-1.2228,-0.7099,-0.1861,86,8.047,155,9.2646,-0.15,-17.2054,0.6311,-0.2068,-0.654,51
8.561,165,8.9796,1.0003,-12.9676,0.5031,0.1819,0.2509,91,8.295,160,5.7518,-2.1929,-10.0224,-0.0881,-0.18,0.2568,87,7.847,151,8.6344,-4.3014,-9.8671,-0.5803,0.1603,0.5419,86,8.099,156,8.5539,2.5077,-16.1501,1.018,0.204,0.1687,51
8.612,166,3.9604,1.2472,-12.1006,-0.2079,0.5483,-0.3612,91,8.347,161,9.1172,-0.4779,-12.335,0.6075,0.4805,0.5399,87,7.899,152,5.5561,2.2126,-15.2063,-1.0988,0.7496,1.0732,86,8.151,157,2.8183,1.2649,-15.9868,0.0659,0.1022,0.1283,51
8.664,167,3.883,-2.1427,-11.1292,-0.2432,-0.2691,-0.5081,91,8.399,162,9.0599,-0.7494,-12.104,0.3814,0.8203,0.6144,87,7.951,153,7.9304,-3.6222,-17.5216,-1.1262,0.0412,0.2088,86,8.203,158,1.966,1.3004,-16.6304,0.7228,-0.3496,-0.5777,51
8.716,168,1.4882,-2.0016,-10.4518,0.4954,0.3235,-0.1173,91,8.45,163,8.8684,-3.2908,-8.894,0.0951,1.0246,1.0329,87,8.003,154,11.0537,-3.4995,-17.0308,-1.2703,-0.1946,-0.3725,86,8.254,159,5.7346,-4.3477,-9.5298,0.3671,-0.8609,-0.3379,51
8.768,169,6.1426,-5.86,-10.5225,-0.239,-0.4332,0.0384,91,8.502,164,11.3918,-2.8182,-5.7097,0.7411,1.4266,1.4193,87,8.055,155,12.2424,-1.9229,-16.0427,-0.9827,-0.7827,-0.9,86,8.306,160,4.7013,-3.7501,-7.0765,-0.4091,-0.9583,0.4337,51
8.82,170,5.7958,-6.2803,-10.4502,0.5,-0.3362,-0.2757,91,8.554,165,13.2335,-1.1752,-5.1261,0.8915,1.7203,0.9841,87,8.107,156,13.619,-3.6248,-14.991,-1.1568,-1.2446,-1.3309,86,8.358,161,8.5485,-2.5577,-10.6623,0.1822,-0.2838,0.5182,51
8.871,171,6.0881,-6.089,-9.4712,0.2032,0.2267,-0.6617,91,8.606,166,14.5776,-1.0367,-8.6791,0.7375,1.9346,0.391,87,8.158,157,11.6843,-2.9175,-16.902,-1.5195,-1.5419,-1.6453,86,8.41,162,11.3564,-0.8147,-12.8529,0.6392,0.4736,1.0586,51
8.923,172,5.2038,-5.4393,-8.6868,0.6561,-0.1843,-1.0689,91,8.658,167,13.6103,-3.8066,-12.9645,1.21,2.04,-0.3058,87,8.21,158,8.8521,-3.6461,-20.3407,-0.6959,-1.6034,-1.8534,86,8.462,163,13.4057,2.1638,-15.1386,1.1412,1.0306,1.4529,51
8.975,173,8.8544,-6.4693,-8.8618,0.7186,-0.1529,-0.9291,91,8.71,168,10.4937,-4.5628,-14.5655,1.5548,1.6282,-0.9096,87,8.262,159,5.6399,-0.5291,-19.1146,-0.5844,-0.5399,-1.1181,86,8.513,164,10.9182,-3.7175,-14.4852,0.1558,1.27,1.7408,51
9.027,174,11.2331,-6.6845,-9.254,0.4625,0.5708,-0.4316,91,8.761,169,6.4545,-4.6795,-15.7046,0.6573,1.0686,-0.583,87,8.314,160,1.5718,2.6754,-18.5894,-0.0255,0.2843,-0.1919,86,8.565,165,6.5189,-2.7663,-14.7537,-0.5633,1.4513,1.0319,51
9.078,175,10.2478,-5.3028,-9.7697,0.4079,1.0894,-0.4818,91,8.813,170,4.6943,-4.0562,-15.0449,0.7441,0.3348,-0.2603,87,8.365,161,0.7233,3.3246,-16.6232,-0.2482,0.8859,0.2685,86,8.617,166,2.1135,-3.5061,-14.2872,-0.2472,1.7312,0.0817,51
9.13,176,8.6762,-3.0042,-10.8355,0.0196,0.7608,-0.9126,91,8.865,171,2.8602,-1.9648,-13.347,0.233,-0.306,0.1602,87,8.417,162,0.2824,2.3678,-16.3248,-0.5261,1.3229,0.603,86,8.669,167,0.795,-1.5019,-13.3037,-0.3203,1.373,-0.6118,51
9.182,177,8.5461,1.0765,-12.9615,-0.663,1.0675,-1.2572,91,8.917,172,1.7011,0.1902,-10.706,0.3849,-0.5495,0.1781,87,8.469,163,0.2758,0.559,-14.6113,0.2599,1.6439,0.6032,86,8.721,168,2.5321,0.1036,-12.3495,-0.9109,0.9067,-1.1179,51
9.234,178,6.7669,1.1937,-13.6263,-1.1613,0.1098,-1.5926,91,8.969,173,5.756,2.3302,-8.8742,0.9527,-0.9252,-0.2569,87,8.521,164,0.1296,-1.4844,-12.5091,0.8646,1.8781,1.0346,86,8.772,169,6.2016,-1.5491,-14.1053,-1.3419,0.7463,-1.4873,51
9.286,179,8.2948,-0.9078,-14.4521,-1.5249,0.355,-1.8375,91,9.02,174,5.3091,6.2907,-6.9124,0.9827,-0.9249,-0.2749,87,8.573,165,0.7139,-1.7776,-11.4825,1.1384,2.0491,1.4328,86,8.824,170,9.6435,-6.4274,-8.7817,-1.6564,0.6776,-0.5822,51
9.337,180,6.8756,-2.5853,-14.089,-1.6189,0.4034,-2.0162,91,9.072,175,7.2882,6.3747,-7.6281,0.0682,-0.8935,0.407,87,8.625,166,5.7868,-2.3998,-11.5459,0.5437,2.1739,1.7235,86,8.876,171,10.5882,-4.3986,-14.3904,-1.5047,-0.075,0.2487,51
9.389,181,7.4051,-2.5231,-13.1912,-0.53,-0.318,-2.1466,91,9.124,176,8.1274,8.1705,-7.6936,-0.6302,-1.3177,0.9624,87,8.676,167,8.9863,-0.0608,-16.4316,0.2952,2.2453,1.798,86,8.927,172,12.8451,2.0819,-12.4233,-1.5675,-0.4493,0.2003,51
9.441,182,9.8499,-2.929,-12.7945,0.2876,-0.8911,-2.2418,91,9.176,177,10.2742,5.2491,-9.938,-1.14,-1.2332,1.3678,87,8.728,168,11.8243,-5.2814,-9.4085,-0.4598,1.3179,1.7854,86,8.979,173,8.5577,-0.4909,-11.8517,-1.3969,-0.3569,0.1363,51
9.493,183,10.2094,-3.2025,-10.6552,0.6468,-0.7274,-2.1086,91,9.228,178,10.7799,1.895,-11.1227,-1.104,-1.5143,1.4861,87,8.78,169,12.2704,-2.295,-14.8716,-1.0108,0.2885,1.0325,86,9.031,174,7.8829,-0.8155,-11.8659,-0.9814,-0.5683,-0.4361,51
9.544,184,11.1549,-2.939,-9.654,1.0257,-0.3518,-1.1852,91,9.279,179,10.2739,0.4713,-12.6337,-1.0125,-1.7778,1.75,87,8.832,170,14.2212,-2.8822,-15.6223,-0.6192,-0.1688,0.4147,86,9.083,175,7.7486,-0.0705,-11.4763,-0.7597,-0.651,-0.6639,51
9.596,185,10.8661,2.1259,-10.4139,1.2531,0.4256,-0.1884,91,9.331,180,9.7266,0.325,-12.531,-1.2655,-1.9702,1.9426,87,8.883,171,14.1448,-2.651,-14.8797,-0.7835,-0.3592,0.2145,86,9.135,176,8.3609,-0.042,-11.9359,-0.7012,-0.7297,-0.676,51
9.648,186,12.987,3.3751,-13.3389,0.6067,0.3923,0.5391,91,9.383,181,9.2157,1.2882,-9.8842,-1.6036,-2.1106,2.0832,87,8.935,172,12.8073,-2.5158,-14.3143,-1.0744,-0.2847,0.21,86,9.186,177,8.8113,0.0501,-11.9324,-0.5543,-0.7671,-0.671,51
