right_hand_timestamp,right_hand_index,right_hand_accel_x,right_hand_accel_y,right_hand_accel_z,right_hand_gyro_x,right_hand_gyro_y,right_hand_gyro_z,right_hand_battery_percentage,left_hand_timestamp,left_hand_index,left_hand_accel_x,left_hand_accel_y,left_hand_accel_z,left_hand_gyro_x,left_hand_gyro_y,left_hand_gyro_z,left_hand_battery_percentage,right_leg_timestamp,right_leg_index,right_leg_accel_x,right_leg_accel_y,right_leg_accel_z,right_leg_gyro_x,right_leg_gyro_y,right_leg_gyro_z,right_leg_battery_percentage,left_leg_timestamp,left_leg_index,left_leg_accel_x,left_leg_accel_y,left_leg_accel_z,left_leg_gyro_x,left_leg_gyro_y,left_leg_gyro_z,left_leg_battery_percentage
0.026,0,7.7332,4.7886,0.8746,0.5563,-0.7601,0.1844,93,0.013,0,4.6417,3.6515,-14.6756,0.2239,0.3414,-0.5605,92,0.174,3,-0.1544,-1.1262,-4.2506,-0.7402,-0.0085,0.0023,96,0.573,11,-2.3997,4.1068,1.1809,-0.5511,0.9551,0.4785,64
0.078,1,7.5287,7.1953,3.6208,0.7496,-1.1705,0.4667,93,0.065,1,3.8282,-0.3322,-15.355,-0.0336,-0.1541,-0.7805,92,0.226,4,-1.0832,-0.5924,-3.5585,-0.1493,0.0444,0.6576,96,0.624,12,-2.126,2.6257,1.3183,-0.0962,1.4072,0.4608,64
0.129,2,7.7091,5.3866,7.0079,0.6448,-1.7122,0.8541,93,0.117,2,3.3964,-0.57,-12.2834,0.1713,-0.5163,-0.1345,92,0.278,5,-1.2691,1.5097,-3.2085,0.4084,0.0486,1.0741,96,0.676,13,-1.9107,1.7598,0.82,0.1724,1.7379,0.2301,64
0.181,3,10.6103,1.2776,-0.4041,-0.2327,-2.0349,0.3876,93,0.169,3,4.2634,2.959,-9.848,0.7953,-0.5531,0.3787,92,0.329,6,-3.758,1.2247,-2.3832,0.9259,0.2113,1.4275,96,0.728,14,-2.1969,1.0833,0.8716,0.1537,1.9058,-0.1176,64
0.233,4,7.8944,7.9754,4.7739,-0.1762,-0.9913,0.8456,93,0.221,4,-2.0945,0.0414,-10.4969,0.3584,-0.4854,0.6309,92,0.381,7,-4.9077,3.4833,-2.3916,1.1155,0.0398,1.6563,96,0.78,15,-4.1085,-0.6818,-0.8506,0.0999,2.1018,-0.2471,64
0.285,5,3.6159,3.167,-0.4454,-0.83,-1.1833,-0.0253,93,0.272,5,3.6872,4.3615,-8.5868,-0.0792,-0.1538,0.4502,92,0.433,8,-8.2936,6.349,-1.1875,1.4894,0.775,1.8647,96,0.832,16,-7.8452,4.7886,-1.8645,0.7806,1.1711,-0.4172,64
0.336,6,3.4824,0.1126,-3.2982,0.0357,-0.8858,0.145,93,0.324,6,0.2065,0.3743,-10.1886,-0.4478,0.1206,-0.0019,92,0.485,9,-3.3581,10.4087,-6.2571,1.0238,1.0987,0.6651,96,0.883,17,-13.5678,6.373,-7.0481,1.139,0.5518,0.3138,64
0.388,7,0.9679,7.8021,-6.0588,0.6675,-0.1526,-0.0261,93,0.376,7,5.3666,-0.3829,-11.1692,-0.6019,0.2127,-0.0376,92,0.537,10,0.2441,11.281,-3.8718,1.2331,0.1961,0.5277,96,0.935,18,-10.9921,3.1278,-6.7028,1.0428,0.0184,0.4683,64
0.44,8,-2.3281,9.1702,-8.243,-0.2231,-0.1868,-0.208,93,0.428,8,8.222,3.6205,-12.3155,-0.3373,0.1885,0.0888,92,0.588,11,0.6405,8.6142,-3.9579,0.6243,-0.2668,-0.3107,96,0.987,19,-8.3141,2.1886,-7.404,0.4951,-0.6274,0.1874,64
0.492,9,-1.546,11.0101,-8.189,0.4786,-0.9942,-0.4049,93,0.48,9,10.7056,5.5745,-10.9858,-0.2981,0.5459,0.3202,92,0.64,12,0.0889,8.9719,-3.77,0.4905,-0.5436,-0.9098,96,1.039,20,-5.2588,2.0574,-8.1053,0.9203,-0.9399,0.1011,64
0.544,10,-5.3904,7.2457,-3.9718,-0.3453,-0.637,-0.6054,93,0.531,10,12.2644,9.0816,-11.3946,-0.516,1.0784,0.6247,92,0.692,13,0.5797,9.1753,-4.1111,-0.2495,-0.5036,-0.9865,96,1.09,21,-1.0902,4.0534,-9.056,1.3856,-0.7002,0.2723,64
0.595,11,-8.3725,9.4193,-2.2697,-0.3846,-0.1861,-0.2423,93,0.583,11,10.7497,1.2564,-11.3673,0.1098,1.4669,-0.1442,92,0.744,14,3.1181,9.7381,-2.8112,-0.7308,-0.0146,-0.0664,96,1.142,22,1.9522,5.5381,-5.4996,1.7252,0.1999,0.6655,64
0.647,12,-1.1267,7.8613,3.4123,-0.9475,0.1746,-0.1212,93,0.635,12,8.4747,3.9063,-15.113,-0.0912,0.7089,-0.2721,92,0.796,15,4.9707,9.1115,-7.4422,-0.3357,0.5981,0.6074,96,1.194,23,-6.4173,7.4314,-4.1203,0.8596,-0.1669,1.2627,64
0.699,13,-1.7827,3.0837,4.9717,-1.3058,-0.6606,0.3119,93,0.687,13,8.1755,0.9117,-15.4137,-0.7479,1.0116,-0.8858,92,0.847,16,-1.3485,6.8068,-3.258,0.0447,1.1825,-0.2525,96,1.246,24,-7.6907,5.7222,-3.138,0.4978,-0.0449,1.0689,64
0.751,14,1.9513,1.2261,5.793,-0.7955,-0.763,0.2271,93,0.739,14,3.7442,-3.65,-18.0053,0.1245,1.1391,-0.8141,92,0.899,17,-3.4273,2.4909,-2.1747,0.1621,0.2573,-0.3176,96,1.298,25,-8.6407,5.2757,-2.3437,-0.2604,0.5027,0.5183,64
0.803,15,6.1621,-0.9284,5.487,0.034,-1.2662,-0.0594,93,0.79,15,5.9239,0.5929,-12.7655,0.7612,0.6341,-0.2126,92,0.951,18,-3.9793,-0.1261,-1.6387,0.0457,0.8791,0.4211,96,1.349,26,-7.186,2.8991,0.409,0.4055,1.0778,0.1746,64
0.855,16,8.8828,-1.458,6.1023,-0.4454,-1.7048,-0.71,93,0.842,16,5.7311,-1.2898,-12.1887,1.1866,1.1342,0.5093,92,1.003,19,-3.9048,-1.4095,-1.8663,-0.6199,0.7454,0.9633,96,1.401,27,-7.9652,1.5631,-4.8238,1.0099,1.4975,-0.1767,64
0.906,17,11.467,-3.0449,6.0591,-0.2181,-2.1021,-1.1849,93,0.894,17,2.0354,-0.5546,-11.9044,1.5364,1.5077,1.0363,92,1.055,20,-2.8,-2.3642,0.6087,-0.3773,0.4092,1.359,96,1.453,28,-3.0655,-4.1619,1.381,0.1197,0.4521,0.5032,64
0.958,18,12.1983,0.911,1.2509,0.4822,-1.8523,-1.5315,93,0.946,18,1.2751,2.9061,-16.4775,0.4399,1.1736,0.6782,92,1.106,21,0.6514,4.0494,-4.9462,0.3464,0.7591,0.3246,96,1.505,29,0.5105,0.0752,-1.4961,0.2633,-0.3109,0.5458,64
1.01,19,6.1784,4.8456,-2.0096,-0.2648,-0.858,-0.4613,93,0.998,19,6.1465,5.4361,-13.4252,0.922,0.5036,0.8702,92,1.158,22,3.1704,-1.8587,-2.5191,-0.0626,0.6325,-0.1171,96,1.557,30,1.275,0.7666,-2.1689,0.8306,-0.5814,-0.0849,64
1.062,20,5.2264,4.5039,-4.4774,-0.7358,-0.8332,-0.5569,93,1.049,20,9.7018,-0.6758,-12.328,1.0886,1.0474,0.1894,92,1.21,23,0.475,1.504,-4.2795,0.199,-0.1441,-0.517,96,1.608,31,2.421,3.8699,1.1986,1.3201,0.0715,-0.6367,64
1.114,21,2.3972,7.2663,-4.6397,0.1044,-0.5716,-0.3979,93,1.101,21,9.4887,-1.0532,-12.4636,1.4649,1.4444,-0.549,92,1.262,24,3.0417,-1.1508,0.1198,0.7897,-0.2738,-1.0732,96,1.66,32,2.2511,2.1773,2.7997,1.6774,0.763,-1.0395,64
1.165,22,0.5799,8.6048,-3.8144,-0.5893,-0.9578,0.1434,93,1.153,22,8.3707,-2.0887,-13.7588,1.7395,1.7341,-1.0339,92,1.314,25,0.7016,-0.8873,0.1065,1.2748,0.5128,-1.4791,96,1.712,33,0.7898,-1.4653,2.9434,1.9381,1.2678,-1.3334,64
1.217,23,-0.5433,8.6983,-3.2876,-0.3395,-0.5851,0.491,93,1.205,23,8.4695,0.9707,-13.2264,1.9399,1.9455,-1.4418,92,1.365,26,1.1685,-0.9927,0.0842,1.6289,0.7774,-1.7753,96,1.764,34,-1.9002,-6.3722,-3.5391,1.6248,1.6362,-0.8691,64
1.269,24,-3.5065,11.8666,-6.8704,-0.9581,-1.1644,0.1298,93,1.257,24,7.3112,-0.3632,-13.3817,1.7878,2.0998,-1.6808,92,1.417,27,2.6041,1.1286,2.2817,1.368,0.7756,-1.9916,96,1.815,35,1.361,-0.9683,2.3187,1.8858,0.8949,-0.6432,64
1.321,25,2.4247,6.007,-5.6569,-1.4095,-0.6939,0.7798,93,1.309,25,8.6829,0.7164,-15.1395,1.9751,2.2124,-0.9741,92,1.469,28,0.7834,-2.4187,0.4204,0.3451,1.3121,-0.936,96,1.867,36,-3.5592,4.5795,-2.638,2.0902,0.5765,0.2488,64
1.373,26,5.8163,5.104,-9.6475,-1.5505,-0.5561,1.2542,93,1.36,26,7.5576,3.9645,-14.3138,2.1119,2.2946,-0.0487,92,1.521,29,1.3511,-2.325,-1.0988,0.5413,1.7036,-0.0272,96,1.919,37,-2.1535,1.8342,-2.5539,1.2587,0.4464,0.9586,64
1.424,27,6.296,4.6129,-12.3127,-0.4905,-0.6583,0.2487,93,1.412,27,6.4423,4.8389,-13.9583,1.2743,2.3546,0.629,92,1.573,30,1.2456,-0.8332,-5.5395,1.0812,1.417,0.636,96,1.971,38,-1.6929,3.2815,-3.0235,1.6325,0.1674,1.3205,64
1.476,28,6.7221,3.3192,-12.2763,0.2835,-1.16,-0.4852,93,1.464,28,5.778,4.3791,-13.9963,0.6312,2.3956,1.1094,92,1.624,31,-0.5129,3.8692,-4.5747,0.4596,1.0728,1.0524,96,2.022,39,-0.6299,4.1308,-3.7938,1.9054,-0.0156,0.971,64
1.528,29,4.2584,2.9917,-11.0541,0.8483,-0.3527,-1.0208,93,1.516,29,8.7556,5.3856,-13.9027,0.6319,1.7805,1.4742,92,1.676,32,-1.2649,2.8269,1.0651,0.9277,0.2289,0.46,96,2.074,40,-2.181,5.1358,-3.7635,2.1045,0.4093,0.778,64
1.58,30,-0.4188,4.1458,-11.7651,1.2606,0.2364,-0.5168,93,1.568,30,8.6354,6.4766,-12.934,0.3227,1.3681,1.7405,92,1.728,33,-0.7847,2.7162,0.2549,0.9984,0.1979,0.1945,96,2.126,41,-1.6107,4.2029,-3.446,2.2499,0.603,-0.0069,64
1.631,31,-0.3216,5.4556,-12.4261,1.5615,-0.6853,-0.3181,93,1.619,31,7.641,7.1336,-11.5947,-0.4459,0.736,1.9348,92,1.78,34,-0.1348,2.652,0.1495,1.1046,0.2953,0.2656,96,2.178,42,-1.2386,2.3524,-1.5932,2.2341,0.2856,-0.2952,64
1.683,32,4.7492,7.2449,-14.5879,1.4134,-0.0064,-0.8634,93,1.671,32,7.1189,7.9813,-9.9344,-0.2509,0.2124,2.0766,92,1.832,35,-0.435,2.2518,0.7864,1.5046,0.229,-0.1727,96,2.23,43,-0.9946,0.1033,-0.122,1.416,-0.1029,-0.3261,64
1.735,33,7.2521,5.6104,-13.0877,1.6676,-0.8445,-0.4653,93,1.723,33,6.0829,10.0334,-8.3427,-0.8646,-0.1005,1.7652,92,1.883,36,-1.401,2.4303,0.3269,1.7966,0.2142,-0.639,96,2.281,44,-0.6994,-1.0917,0.6336,1.3348,-0.1532,-0.28,64
1.787,34,8.7376,7.9601,-12.0759,1.8585,-0.6317,0.3455,93,1.775,34,6.4426,8.0542,-8.4776,-1.3124,-0.2626,1.1969,92,1.935,37,-1.7087,2.9251,-1.8772,1.8329,0.0372,-0.7213,96,2.333,45,-0.1268,-1.9323,0.7372,1.6672,0.1569,-0.1942,64
1.839,35,8.1848,9.1668,-9.6321,1.752,-0.2895,0.9372,93,1.827,35,8.1435,7.4789,-9.0668,-1.3914,-0.3517,0.667,92,1.987,38,-0.1421,2.5463,-3.336,1.4171,-0.2416,-0.6493,96,2.385,46,1.0274,-1.823,0.4011,1.815,0.572,0.0153,64
1.89,36,7.9172,9.8689,-7.8132,1.2971,-0.4305,1.266,93,1.878,36,9.6068,6.2775,-9.4879,-1.3566,-0.3801,0.1282,92,2.039,39,0.0388,2.1241,-3.3884,1.1032,-0.353,-0.6618,96,2.437,47,1.3305,-0.7484,-0.2506,1.8295,0.7667,0.2926,64
1.942,37,7.2312,8.8634,-6.8453,0.5997,-0.2951,0.2677,93,1.93,37,9.1804,6.0745,-9.4659,-0.6606,-0.5732,-0.5936,92,2.091,40,1.0233,2.1049,-3.4865,0.731,-0.0487,-0.642,96,2.488,48,0.0994,0.3308,-1.2137,1.705,0.9801,0.3542,64
1.994,38,6.977,7.1422,-5.9056,0.6553,-0.1376,-0.4713,93,1.982,38,9.7496,5.5062,-9.6077,-0.9659,-0.898,-1.1205,92,2.142,41,0.8141,2.1847,-3.1498,0.4999,0.1598,-0.7855,96,2.54,49,-3.3654,0.2409,-3.1982,1.5084,1.3269,-0.002,64
2.046,39,6.3747,6.6827,-5.0473,1.1197,-0.2027,-1.0107,93,2.034,39,10.234,4.5329,-9.3753,-1.0388,-1.0852,-1.4623,92,2.194,42,1.0117,1.9794,-3.188,0.3927,0.357,-1.1545,96,2.592,50,0.2917,0.6786,-5.3984,1.2917,0.6944,-0.1341,64
2.098,40,6.3923,6.9342,-4.198,1.1082,-0.2752,-1.3736,93,2.086,40,11.0705,4.7648,-8.8619,-1.386,-1.3339,-1.2493,92,2.246,43,2.4154,1.3321,-4.0482,0.2694,0.5546,-1.5384,96,2.644,51,2.9607,-1.8296,-3.9553,0.7912,-0.1341,0.1088,64
2.149,41,6.8392,7.2652,-4.18,0.3216,-0.0333,-0.8895,93,2.137,41,11.3012,3.7036,-8.7525,-1.5965,-1.1909,-1.0007,92,2.298,44,3.6103,-0.5425,-4.8819,0.1121,0.8414,-1.8186,96,2.696,52,2.3052,-1.7433,-3.9323,0.6802,-0.1536,0.0745,64
2.201,42,8.0149,7.1736,-4.6157,-0.4756,0.0637,0.0359,93,2.189,42,10.3308,3.6981,-8.1553,-1.159,-0.8246,-0.8026,92,2.35,45,0.7766,-0.6767,-6.131,0.7802,1.1887,-2.0231,96,2.747,53,1.8075,-0.6862,-3.73,0.5957,-0.0842,0.0843,64
2.253,43,8.8586,6.1158,-4.2038,-0.6879,-0.2253,0.2583,93,2.241,43,8.7883,3.4513,-7.4456,-0.7922,-0.3216,-0.5051,92,2.401,46,-0.6558,-0.348,-5.0109,0.9288,1.5746,-1.4539,96,2.799,54,1.1069,-0.0165,-3.3454,0.5527,-0.089,0.1696,64
2.305,44,8.2621,6.1574,-3.5553,0.1394,-0.787,-0.3356,93,2.293,44,7.1912,3.7132,-6.765,-0.6282,0.1316,-0.218,92,2.453,47,-0.4085,-0.1406,-5.2647,0.889,1.5844,-0.4053,96,2.851,55,0.8113,0.3962,-2.9284,0.5813,-0.3036,0.2542,64
2.357,45,7.6027,7.1335,-2.8665,0.7432,-1.1962,-0.8292,93,2.345,45,7.2468,3.6924,-7.1991,-0.3488,0.6234,0.2886,92,2.505,48,-0.0674,-0.3668,-6.0155,1.3473,1.1602,0.3601,96,2.903,56,0.762,0.7042,-2.9275,0.5315,-0.6091,0.3058,64
2.408,46,6.9951,7.8999,-1.6099,0.8342,-1.6191,-1.1394,93,2.396,46,8.31,3.1045,-8.3993,0.4147,1.1341,0.8603,92,2.557,49,0.4327,-0.3552,-7.1886,1.6817,0.7922,0.9187,96,2.955,57,0.9752,0.7075,-3.0462,0.4926,-0.9545,0.3702,64
2.46,47,7.9823,8.7694,-2.5665,0.5557,-1.4027,-1.3453,93,2.448,47,8.6909,3.3921,-9.441,0.973,1.4501,1.128,92,2.609,50,1.1555,4.7121,-9.0193,1.9258,0.5814,1.3265,96,3.006,58,2.0689,0.5558,-1.9928,0.4993,-1.3375,0.4328,64
2.512,48,9.3335,8.27,-2.6673,-0.1331,-1.1723,-1.0451,93,2.5,48,9.4938,2.9177,-9.7569,0.2357,1.2068,1.2349,92,2.66,51,3.5383,5.3627,-7.0825,2.104,1.1583,1.548,96,3.058,59,4.2578,-0.3883,-0.9715,0.7439,-1.617,0.2746,64
2.564,49,7.8371,8.5425,-1.9738,-0.1553,-1.068,-0.4943,93,2.552,49,9.5013,1.7098,-10.0505,0.5504,0.8951,1.4818,92,2.712,52,2.4605,7.8502,-8.8391,1.4051,0.7038,0.434,96,3.11,60,5.8554,1.119,-2.8464,0.8547,-1.821,0.209,64
2.616,50,7.2172,8.3793,-1.9991,-0.1891,-1.1306,-0.1665,93,2.604,50,10.1745,1.1173,-9.9915,0.7974,0.4927,1.5759,92,2.764,53,1.1933,5.7817,-7.3054,0.5418,0.6746,-0.3791,96,3.162,61,7.0214,0.9907,0.2286,0.4466,-1.1032,0.0847,64
2.667,51,7.266,8.9187,-2.4622,0.2548,-0.9697,-0.1127,93,2.656,51,10.7044,1.2059,-9.9589,1.2523,0.1195,1.3938,92,2.816,54,1.5781,2.3329,-0.1333,0.1338,0.4825,-0.9725,96,3.213,62,4.8879,0.896,-0.5052,0.4698,-0.0942,-0.0615,64
2.719,52,7.201,9.3604,-2.2551,0.2607,-0.7958,0.1369,93,2.707,52,10.018,1.3855,-9.7359,1.5844,-0.0245,1.1819,92,2.868,55,0.9466,2.8358,-1.2492,-0.2405,0.0325,-1.3926,96,3.265,63,4.1146,0.4723,-1.7479,0.722,0.6421,-0.3985,64
2.771,53,8.0801,9.2152,-2.2896,0.5906,-0.9088,0.191,93,2.759,53,8.9142,2.1494,-9.6526,1.8267,0.0499,1.0043,92,2.919,56,-1.5169,6.3345,-5.7098,-0.3691,0.6537,-0.3621,96,3.317,64,5.5518,1.0286,-3.9391,1.2408,1.1795,-0.8656,64
2.823,54,8.1769,9.3998,-2.5402,0.783,-0.7144,0.3344,93,2.811,54,7.7645,3.2758,-9.4599,2.0035,0.0925,1.1831,92,2.971,57,-0.1902,6.0517,-5.2277,-0.6317,-0.0471,-0.714,96,3.369,65,4.6452,-4.175,-8.5622,1.6195,1.5718,-1.1884,64
2.874,55,8.1661,9.3166,-2.6296,0.5665,-0.5598,0.4769,93,2.863,55,7.3855,4.281,-8.8861,0.9812,-0.1542,1.503,92,3.023,58,2.5562,5.2073,-5.1626,-1.0039,-0.3191,-1.2135,96,3.421,66,6.1381,-3.2863,-5.1071,0.6098,0.5072,-0.3544,64
2.926,56,7.9722,8.1803,-2.245,-0.0841,-0.7739,0.4703,93,2.915,56,10.5599,3.5673,-9.6593,1.0237,-0.4068,0.4744,92,3.075,59,4.5606,3.8596,-6.372,-1.0727,-0.1798,-1.5815,96,3.472,67,0.5239,0.6427,-5.6539,1.031,-0.2594,0.3081,64
2.978,57,10.1417,6.1473,-4.3381,0.2861,-0.7446,0.181,93,2.967,57,11.9359,3.5149,-10.0828,1.4175,-0.3872,-0.341,92,3.127,60,0.9038,0.9128,-7.6319,-0.2078,0.6147,-1.8194,96,3.524,68,-3.0074,2.914,-5.5983,1.2133,-0.3115,0.5448,64
3.03,58,9.9887,5.6893,-5.0833,0.7729,-0.6083,0.5869,93,3.018,58,12.1781,5.2356,-9.7318,0.7779,-0.7294,-0.9361,92,3.178,61,-0.5833,0.1126,-7.1514,-0.3121,1.1947,-0.7033,96,3.576,69,-2.586,3.6713,-5.3057,1.1775,-0.3403,0.6498,64
3.082,59,9.8207,5.0573,-5.7672,1.2028,-0.9148,1.1134,93,3.07,59,11.9287,3.732,-8.959,-0.1137,-0.5945,-1.0044,92,3.23,62,-1.28,0.8069,-5.9006,-0.0717,1.6179,0.1426,96,3.628,70,-1.8777,3.2284,-4.7448,1.5126,-0.198,0.8887,64
3.133,60,9.2275,6.422,-5.713,1.5193,-0.9744,1.3796,93,3.122,60,10.5943,0.6477,-9.7537,0.4154,0.2443,-0.4345,92,3.282,63,-0.9984,-0.0396,-6.7122,0.6461,1.9268,0.76,96,3.68,71,-1.0034,4.0423,-2.9312,1.8178,0.1066,0.6026,64
3.185,61,8.0482,8.5804,-5.0336,1.6206,-0.9186,1.3532,93,3.174,61,9.1174,2.9184,-10.4662,0.9735,0.8207,-0.2396,92,3.334,64,0.858,5.7459,-10.2893,1.17,2.1523,0.4922,96,3.731,72,-1.6213,5.7086,-3.8562,2.0406,0.7618,-0.1114,64
3.237,62,7.5559,8.6517,-4.6805,1.7349,-0.7861,0.8873,93,3.226,62,9.0557,1.7403,-13.7438,1.2344,0.7428,0.0784,92,3.386,65,-2.0672,1.5849,-12.9001,1.2869,1.1214,-0.2839,96,3.783,73,-0.0161,2.8596,-5.2127,2.2033,1.0916,-0.5618,64
3.289,63,6.563,10.2301,-5.4664,1.7667,-0.6249,0.4551,93,3.277,63,9.6924,2.5929,-14.6268,1.5713,0.7806,0.4119,92,3.437,66,-3.7628,2.3825,-12.6582,1.2749,0.9877,-0.3279,96,3.835,74,0.8881,1.9536,-3.971,2.3219,1.013,-0.1973,64
3.341,64,8.3179,8.6513,-6.6842,1.2857,-1.3127,-0.307,93,3.329,64,8.3533,7.1084,-11.1024,1.4777,1.2494,-0.0788,92,3.489,67,-3.7712,2.8614,-9.419,1.6289,0.7252,-0.6822,96,3.887,75,0.7873,1.2895,-3.3741,2.0629,0.3476,0.1911,64
3.392,65,8.5493,8.4331,-7.7394,1.5798,-1.8159,-0.8908,93,3.381,65,6.2834,6.1039,-10.6554,0.8373,0.8606,-0.4339,92,3.541,68,-3.7575,-0.7409,-12.2649,1.8873,0.2228,-1.1938,96,3.938,76,0.0982,1.4892,-3.4735,1.5283,-0.3872,0.3918,64
3.444,66,7.2283,7.628,-6.6525,1.5199,-2.1832,-1.2317,93,3.433,66,5.1749,2.724,-10.7203,0.7566,0.4965,-0.3205,92,3.593,69,-2.8484,-1.926,-7.5755,2.031,0.1088,-1.5428,96,3.99,77,-1.4903,1.1146,-2.5695,1.7684,-0.9234,0.5368,64
3.496,67,4.569,7.5458,-3.7563,1.7507,-1.1115,-1.4383,93,3.485,67,5.5497,2.7988,-11.055,1.11,0.6295,-0.1928,92,3.645,70,-4.1176,-0.0595,-9.2323,1.2688,0.1643,-1.2993,96,4.042,78,-2.8485,-0.2193,-2.3706,1.9578,-0.8801,0.6857,64
3.548,68,4.4983,7.9607,-5.0356,1.9192,-1.4233,-1.5927,93,3.536,68,5.1903,5.0523,-12.1137,1.0819,-0.1322,0.1248,92,3.696,71,-2.8908,0.0982,-7.8932,1.1662,0.3382,-1.5294,96,4.094,79,-5.7111,-5.0756,1.625,1.034,-0.1497,0.7303,64
3.6,69,5.123,8.9459,-6.6412,1.8923,-1.7623,-1.5163,93,3.588,69,8.0676,-0.3312,-13.8959,0.666,0.5833,-0.4025,92,3.748,72,-1.6965,1.8849,-7.553,0.8666,0.2029,-1.0776,96,4.146,80,-3.5712,-3.6436,0.064,0.7577,-0.2401,0.4237,64
3.651,70,5.3952,8.2261,-9.5318,2.0225,-1.4868,-1.6418,93,3.64,70,4.6744,4.9742,-13.6313,0.518,0.9684,-0.5049,92,3.8,73,-1.9179,1.5884,-7.7842,0.5503,-0.0729,-1.0419,96,4.197,81,-2.0351,-3.0863,-2.0417,0.8411,-0.0215,0.3279,64
3.703,71,5.0756,9.2329,-9.5332,2.1176,-1.541,-1.5507,93,3.692,71,8.5369,6.9812,-12.8849,-0.3033,0.5195,0.1711,92,3.852,74,-1.1445,2.4789,-6.8628,0.4015,-0.3415,-0.8963,96,4.249,82,0.2555,-2.0295,-4.1033,1.323,0.6952,0.2157,64
3.755,72,3.7453,9.4219,-8.9331,2.1869,-1.6548,-1.32,93,3.744,72,11.4465,5.3729,-10.0129,-0.9028,0.1412,0.7894,92,3.904,75,-0.3735,4.8334,-7.1439,-0.0372,-0.4025,-0.0374,96,4.301,83,2.9343,-2.7886,-3.1237,1.6795,1.2183,0.5801,64
3.807,73,3.6101,9.7802,-9.0629,2.2376,-1.7394,-1.2027,93,3.795,73,10.8689,-1.3054,-11.2404,0.0114,0.783,0.4856,92,3.955,76,2.4224,-0.539,-9.4815,-0.0446,-0.1219,0.6286,96,4.353,84,-0.2453,-1.2718,-7.9671,1.9397,1.6,0.8359,64
3.859,74,3.9174,10.1546,-7.9684,2.2745,-1.6295,-0.8391,93,3.847,74,9.594,-0.0426,-12.9767,0.6787,1.2513,0.106,92,4.008,77,-0.4763,4.2232,-8.0789,0.3759,0.4209,1.0623,96,4.405,85,-0.6915,-0.4139,-4.0255,1.7305,1.4103,0.9431,64
3.91,75,6.1544,9.0413,-5.5953,2.2376,-0.8013,-0.7123,93,3.899,75,5.2874,2.0704,-15.3907,0.527,1.5932,0.3391,92,4.059,78,-4.4068,-1.6688,-6.1418,0.6219,0.031,0.0795,96,4.456,86,-2.2392,-0.7222,-5.2625,0.6251,1.7401,0.5312,64
3.962,76,9.4756,6.0388,-4.9367,1.9038,-0.3143,-0.5141,93,3.951,76,5.7766,3.5326,-15.4816,0.8963,1.2681,0.1972,92,4.111,79,-5.5146,0.2845,-5.8853,1.1523,0.7687,0.0343,96,4.508,87,-5.5137,0.7113,-3.7377,0.4872,1.1484,0.4237,64
4.014,77,8.0094,2.3925,-0.8161,1.1674,-0.5469,-0.1425,93,4.003,77,3.0006,2.3995,-15.1204,1.2888,1.3885,-0.2607,92,4.163,80,-7.3053,0.8666,-7.0215,0.1929,1.307,0.2917,96,4.56,88,-6.4368,0.3701,-3.4726,0.9049,0.8234,0.532,64
4.065,78,10.8295,2.5847,-2.2147,0.6275,-1.0766,-0.5668,93,4.055,78,-0.3675,2.8063,-12.8137,1.5838,0.9684,-0.4925,92,4.215,81,-9.0444,0.0616,-7.4662,0.5036,0.791,0.3233,96,4.612,89,-6.5339,0.3359,-3.7872,0.0938,0.4448,0.6894,64
4.117,79,12.8878,0.8433,-4.5682,-0.2523,-1.6436,-0.6417,93,4.106,79,-0.1851,2.8051,-10.7504,0.8114,0.215,-0.5242,92,4.267,82,-8.5964,1.915,-6.9899,1.066,0.1455,0.1048,96,4.663,90,-3.0261,0.586,-2.4369,-0.5694,-0.3115,0.4967,64
4.169,80,10.5217,4.1862,-6.692,0.4573,-0.7059,-1.1351,93,4.158,80,2.3483,2.3986,-11.4824,0.792,0.2519,-0.005,92,4.318,83,-8.4405,-3.3076,-2.5051,1.3855,0.4242,0.2788,96,4.715,91,0.5393,5.231,-6.8508,-0.7843,-0.4766,0.219,64
4.221,81,6.0475,5.2002,-6.2472,-0.3765,-0.8384,-0.1959,93,4.21,81,6.9298,6.9666,-8.9437,1.2484,-0.4331,0.6525,92,4.37,84,-13.1456,3.3608,-7.2188,0.9442,1.0556,0.5215,96,4.767,92,3.1415,-1.4849,-2.2167,0.0192,-0.4081,-0.1177,64
4.273,82,3.5265,7.2604,-4.32,0.3666,-0.1687,-0.1918,93,4.262,82,10.2735,4.9155,-4.8099,0.2297,-0.4457,0.7551,92,4.422,85,-9.3794,2.974,-7.7995,0.0634,0.1647,-0.2899,96,4.819,93,3.9459,-1.2982,-0.7824,0.365,-0.7344,-0.3379,64
4.324,83,0.5555,8.7582,-4.0774,-0.4427,0.1398,0.4264,93,4.314,83,7.7138,3.8198,-5.1445,0.838,0.3538,-0.1311,92,4.474,86,-8.8613,4.1091,-6.2422,0.0858,0.3721,0.1365,96,4.87,94,1.573,-1.5847,-0.823,-0.3628,-0.7894,-0.0563,64
4.376,84,-0.2172,8.1055,-4.7184,0.3142,-0.5833,0.0135,93,4.365,84,5.7823,4.6006,-6.145,0.3441,0.3112,-0.3382,92,4.526,87,-6.2615,3.0964,-5.9672,0.0252,0.5126,0.3842,96,4.922,95,-0.0299,-2.3745,-0.6738,-0.3124,-0.6034,0.0841,64
4.428,85,1.3329,9.5347,-6.5956,0.3591,-0.6088,-0.6496,93,4.417,85,4.3693,3.925,-8.1437,-0.0594,-0.2274,-0.0378,92,4.577,88,-3.5657,2.149,-4.7362,0.0976,0.3256,0.278,96,4.974,96,-1.011,-0.6309,-3.9831,-0.0251,-0.0914,-0.047,64
4.48,86,1.1353,9.4169,-0.6601,0.9036,-1.3022,-0.5497,93,4.469,86,5.6401,4.7183,-10.9094,0.1162,-0.7475,0.1179,92,4.629,89,-2.6569,1.4685,-4.6302,0.1889,0.3494,-0.029,96,5.026,97,2.0099,-3.5803,1.9946,-0.1848,-0.3623,0.1628,64
4.531,87,2.0507,12.5037,-5.0219,0.085,-1.4704,-0.5999,93,4.521,87,7.1606,4.3273,-12.1534,-0.5773,-1.2174,0.1073,92,4.681,90,-2.1299,-1.0787,-6.8806,-0.0142,0.3946,-0.354,96,5.078,98,-3.4854,-2.5964,-0.4897,-0.4229,0.1806,0.1676,64
4.583,88,2.709,11.3557,-9.1841,0.2114,-0.5793,0.2473,93,4.573,88,7.3144,5.2488,-12.559,-1.0323,-1.5483,0.4758,92,4.733,91,-1.98,-0.2883,-6.642,-0.4761,0.3921,-0.4762,96,5.129,99,-2.9787,-0.7902,-0.906,-0.4328,0.1029,0.2319,64
4.635,89,3.0944,10.3442,-7.9023,-0.2487,-0.9821,0.253,93,4.624,89,9.9441,3.9146,-10.9491,-0.8258,-1.4334,0.1069,92,4.785,92,-2.6976,-0.311,-5.8002,-0.0771,-0.1427,-0.1596,96,5.181,100,-2.0977,-0.5986,-1.089,-0.4039,-0.1715,0.3357,64
4.687,90,3.7386,9.1666,-5.3159,0.0324,-0.6881,-0.027,93,4.676,90,9.673,2.3657,-10.6884,-0.4496,-1.1585,-0.195,92,4.836,93,-3.2078,1.5275,-5.1859,-0.0553,-0.171,0.2278,96,5.233,101,-1.5667,-0.6231,-1.9379,-0.1866,-0.4436,0.3503,64
4.739,91,3.9776,8.6343,-4.7134,-0.4418,-0.6563,-0.1073,93,4.728,91,7.1719,4.1548,-11.5123,-0.3681,-0.9904,-0.2505,92,4.888,94,0.3538,2.6646,1.4136,0.0307,0.6212,-0.1149,96,5.285,102,-1.1904,-0.5459,-2.6043,0.0072,-0.6673,0.2535,64
4.79,92,4.2696,7.5625,-4.2933,-0.5992,-0.3988,-0.1488,93,4.78,92,8.2758,4.3752,-11.2019,-0.5459,-1.1676,-0.0755,92,4.94,95,2.9532,3.3037,2.8965,-0.3683,-0.1524,-0.5079,96,5.336,103,-1.0952,-0.3955,-3.1743,0.0216,-0.8144,0.1845,64
4.842,93,5.2333,6.5085,-4.2985,-1.0248,-0.514,-0.0822,93,4.831,93,9.1766,6.8869,-10.5341,-0.2584,-0.8005,0.1423,92,4.991,96,-0.0052,3.1332,-0.1212,-0.3684,0.0119,-0.5375,96,5.388,104,-0.7109,-0.2804,-3.9281,0.0629,-0.8983,0.205,64
4.894,94,5.499,5.3727,-4.7805,-0.3238,-0.6285,0.0074,93,4.883,94,10.2908,7.9045,-9.7654,-0.2454,-0.5957,-0.1814,92,5.044,97,0.1786,2.9769,-0.9267,-0.2907,0.3099,-0.7759,96,5.44,105,-0.6545,-0.1683,-4.8784,0.1354,-0.922,0.2032,64
4.946,95,5.2029,6.013,-4.8025,0.4051,-0.9518,-0.0061,93,4.935,95,11.4628,8.7291,-9.7896,0.3679,-0.1689,0.2051,92,5.095,98,0.7981,3.7499,-1.1069,-0.3712,0.9255,-1.0079,96,5.492,106,0.4432,-0.1119,-5.7686,0.3536,-0.5747,0.0033,64
4.997,96,4.4086,8.2347,-4.6863,0.9371,-1.0519,-0.3773,93,4.987,96,12.068,9.0221,-10.2101,0.0235,0.0234,0.7768,92,5.147,99,-0.6904,4.418,-0.4886,-0.0529,0.8017,-0.985,96,5.544,107,3.0713,-0.8635,-7.09,0.5589,0.0939,0.0487,64
5.049,97,6.261,7.9998,-4.341,0.0161,-0.5038,-0.0182,93,5.039,97,14.0236,7.2787,-10.669,-0.3779,0.1416,1.2315,92,5.199,100,2.1911,5.1301,0.8462,0.2834,0.0243,-0.1558,96,5.595,108,4.9894,0.3905,-4.5144,0.2217,0.7794,0.3247,64
5.101,98,7.1846,3.1848,0.7029,-0.4145,-0.4265,0.5552,93,5.091,98,9.5362,2.2865,-13.533,0.1283,0.7833,0.4201,92,5.251,101,4.2941,-0.5568,-0.282,-0.3292,0.2968,0.5422,96,5.647,109,-0.9154,5.5712,-8.9821,0.8757,1.2797,0.7257,64
5.153,99,10.1894,5.1345,-2.6186,-0.2893,-0.7802,0.6211,93,5.142,99,8.4408,5.6028,-12.3645,0.764,0.5814,-0.3085,92,5.303,102,0.1054,3.807,-4.6653,-0.0047,0.9626,0.4351,96,5.699,110,2.0798,4.3946,-4.6131,0.0013,0.2931,0.5569,64
5.205,100,8.5197,4.3158,-0.6056,-0.0066,-0.6601,0.5667,93,5.194,100,3.9621,6.5898,-11.5735,1.067,0.4164,-0.4593,92,5.355,103,-0.9799,1.9379,-2.1295,-0.3609,0.0968,-0.3783,96,5.751,111,-2.3033,0.1111,-7.6923,-0.6369,0.8272,0.3444,64
5.256,101,9.1443,3.2973,0.773,-0.0004,-1.1568,1.0006,93,5.246,101,2.2727,5.6612,-10.8752,0.0973,-0.0491,-0.7741,92,5.406,104,-3.7641,0.9169,-1.9753,-0.7772,0.644,-0.3229,96,5.803,112,-3.7994,-1.7871,-5.4998,0.1239,0.8151,0.2545,64
5.308,102,10.2402,3.3487,0.4165,-0.5083,-1.4837,0.4713,93,5.298,102,2.1924,2.5122,-10.9789,-0.0165,-0.0618,-0.6696,92,5.458,105,-6.6844,0.5031,-1.4688,-0.1218,0.2768,0.1348,96,5.854,113,-5.2571,-0.9404,-3.5943,0.8044,0.5877,0.2411,64
5.36,103,11.5743,3.4111,-2.1622,-1.0813,-1.6325,-0.3227,93,5.35,103,2.6701,1.576,-11.2367,0.1866,-0.139,-0.4532,92,5.51,106,-7.71,0.2133,-0.4559,-0.7423,-0.0845,0.5808,96,5.906,114,-5.6195,-0.2096,-3.3931,1.07,0.412,0.1679,64
5.412,104,13.4314,3.7296,-5.996,-0.4404,-2.0245,-0.9022,93,5.402,104,2.6302,0.2503,-10.8551,0.0294,-0.1994,-0.3911,92,5.562,107,-8.0651,-0.2993,1.0878,0.0986,0.1852,1.0448,96,5.958,115,-7.9417,0.1355,-2.5559,0.5249,0.1601,0.5608,64
5.464,105,10.1537,4.9069,-5.1463,0.32,-1.0079,-0.0186,93,5.454,105,2.2724,3.5651,-10.4037,0.6757,0.3429,-0.4632,92,5.613,108,-3.1913,5.5564,-4.5965,0.7658,-0.2441,0.404,96,6.01,116,-3.0483,1.7455,-3.186,0.8161,0.3562,0.2775,64
5.515,106,5.5496,9.4013,-2.0103,-0.4541,-0.5025,0.6715,93,5.505,106,6.8743,7.8179,-10.672,1.1533,-0.4216,-0.6296,92,5.665,109,-7.9913,7.8196,-8.7452,0.251,0.475,0.1657,96,6.061,117,-2.7725,3.7548,-4.9849,0.1239,0.3068,0.9776,64
5.567,107,5.9427,7.5044,1.592,-0.9903,-0.1539,1.1376,93,5.557,107,9.1679,6.1104,-11.8178,0.1955,-0.9596,-0.6955,92,5.717,110,-4.9658,7.1686,-7.2062,0.2747,0.6969,-0.2958,96,6.113,118,-2.1094,1.389,-5.0952,0.0223,0.3151,0.9999,64
5.619,108,3.3472,7.5371,-0.8103,-0.0813,0.3814,0.8668,93,5.609,108,10.473,4.0795,-11.4585,0.7306,-0.1936,-0.3148,92,5.769,111,-5.1925,7.9994,-6.011,0.4732,0.4317,-0.247,96,6.165,119,-1.4238,0.8206,-5.5443,0.0314,0.4215,0.5243,64
5.671,109,1.1724,9.5028,-1.436,0.245,-0.1981,0.5438,93,5.661,109,9.1248,6.8714,-12.0886,1.2036,0.323,-0.036,92,5.821,112,-1.8485,5.7943,-6.12,0.1827,-0.2686,0.1239,96,6.217,120,-0.1736,0.6054,-5.5494,0.1035,0.5647,0.205,64
5.723,110,0.8338,9.18,-1.8784,0.3258,-1.0025,0.0611,93,5.713,110,8.0535,7.2233,-13.0836,0.5213,0.2256,0.1315,92,5.872,113,-2.1986,4.4068,-6.2662,-0.298,-0.0239,0.5409,96,6.269,121,-0.2388,0.4861,-4.9948,0.2586,0.811,0.1109,64
5.774,111,0.6036,9.5893,-1.3128,0.6174,-0.7822,0.006,93,5.764,111,7.4251,4.3921,-12.8742,0.1557,-0.0467,0.221,92,5.924,114,-4.2853,1.3676,-3.9051,-0.4856,0.4131,0.9993,96,6.32,122,-1.5763,1.0148,-5.1625,0.4467,1.0221,0.0848,64
5.826,112,4.6156,7.6972,3.2255,0.548,-0.1941,0.3392,93,5.816,112,6.7193,2.9261,-11.9502,0.1542,-0.3852,0.2275,92,5.976,115,-2.709,5.7277,-5.951,-0.2909,-0.3012,1.3852,96,6.372,123,-1.6798,1.0646,-4.7211,0.2318,1.1568,0.1861,64
5.878,113,8.3526,8.0314,2.3432,-0.2353,-0.5376,0.7623,93,5.868,113,6.872,3.411,-11.8996,0.3463,-0.5245,0.4802,92,6.028,116,-5.2107,4.182,-6.2408,-0.1637,0.5262,1.1475,96,6.424,124,-1.0305,0.1277,-3.3493,0.2065,1.0525,0.2424,64
5.93,114,11.08,5.8389,-0.3801,-0.3111,-0.5063,0.6933,93,5.92,114,7.6377,3.3372,-12.1368,0.2907,-0.4103,0.3912,92,6.08,117,-1.108,4.6867,-2.4686,-0.1969,-0.2217,1.4564,96,6.476,125,-0.5389,-0.0686,-2.3951,0.1746,0.8138,0.2353,64
5.981,115,10.9831,9.6809,-0.2052,-0.4679,0.1072,0.4637,93,5.972,115,8.112,3.1409,-12.5947,0.2256,-0.0438,0.1839,92,6.132,118,-1.9284,2.3799,-3.5089,-0.456,-0.1306,1.3619,96,6.527,126,-1.4593,-0.366,-3.0226,0.0957,0.7097,0.2503,64
6.033,116,8.6755,6.1378,0.953,-1.0013,0.3659,0.3098,93,6.023,116,8.0959,2.8746,-12.3692,0.0674,0.1189,0.3014,92,6.183,119,-1.3866,1.2928,-3.3535,-0.4088,-0.0519,1.0834,96,6.579,127,-0.7501,-0.1872,-2.904,0.4476,0.7052,0.1507,64
6.085,117,9.0816,5.724,0.5382,-0.9942,-0.4526,0.3729,93,6.075,117,8.3916,2.8804,-12.1759,0.3652,0.316,0.4524,92,6.235,120,-0.8194,0.4038,-3.3775,-0.3869,-0.0073,0.8646,96,6.631,128,-0.6384,-0.0619,-3.0795,0.6353,0.5365,0.142,64
6.137,118,8.3484,6.6918,-0.803,-0.4996,-0.9224,-0.1178,93,6.127,118,8.2054,3.4016,-11.9094,0.5539,0.5251,0.3646,92,6.287,121,-0.9693,-0.0628,-3.6117,-0.3434,0.0366,0.7339,96,6.683,129,-0.3054,0.0779,-4.0763,0.61,0.0168,0.2981,64
6.189,119,6.4901,7.9995,-1.0438,-0.8801,-0.7257,-0.1315,93,6.179,119,7.4513,3.3773,-11.9225,0.4451,0.377,0.226,92,6.339,122,-0.8135,-0.2904,-3.6843,-0.312,0.08,0.5863,96,6.735,130,-0.413,-0.3782,-4.4182,0.4954,-0.4269,0.5309,64
6.24,120,4.9076,8.8545,-2.3425,-1.3527,-1.1458,0.2046,93,6.231,120,8.0114,3.5464,-12.0155,0.0695,0.0942,0.1905,92,6.391,123,-1.033,-0.5404,-3.6898,-0.2597,0.1473,0.5285,96,6.786,131,-0.8114,-0.3586,-3.6269,0.3735,-0.444,0.7262,64
6.292,121,8.1455,6.4115,-1.1439,-1.6975,-0.8164,0.4624,93,6.282,121,8.1422,3.5255,-12.1149,-0.11,-0.1288,0.0734,92,6.442,124,-0.9578,-1.1456,-3.9949,-0.1972,0.2193,0.4691,96,6.838,132,0.1947,-0.4499,-6.1834,-0.1556,0.2065,0.3801,64
6.344,122,6.7854,7.368,-2.656,-1.9483,-0.7055,0.5661,93,6.334,122,8.0117,3.2442,-12.4908,-0.7464,-0.5952,-0.0188,92,6.494,125,-0.7718,-0.932,-3.42,0.136,0.2135,0.2469,96,6.89,133,0.2271,-0.7522,-5.0722,-0.3122,0.0692,0.3555,64
6.395,123,5.9855,6.6393,-4.2938,-1.8342,-1.0043,0.201,93,6.386,123,8.5886,2.5654,-12.7394,-1.0555,-0.5898,-0.0686,92,6.546,126,-1.468,1.3825,-5.5652,0.7977,0.2003,-0.4675,96,6.942,134,0.3532,-0.5393,-3.9706,0.0402,-0.1962,0.4158,64
6.447,124,7.3279,5.3304,-5.5276,-1.5951,-0.8823,0.3253,93,6.438,124,7.7935,2.7287,-12.1943,-1.2389,-0.4361,-0.1697,92,6.598,127,-1.6106,4.4223,-5.1634,0.4868,0.2308,-1.037,96,6.993,135,0.2311,-0.2467,-3.6553,0.1105,-0.3808,0.5726,64
6.499,125,7.3993,6.4696,-6.3309,-0.6097,-0.6788,0.1952,93,6.49,125,6.7727,2.4295,-12.3674,-0.8327,-0.3149,-0.1391,92,6.649,128,0.2009,3.3371,-3.214,-0.0339,0.7574,-1.4215,96,7.045,136,0.1505,-0.2502,-3.8975,-0.0832,-0.5828,0.6793,64
6.551,126,7.3862,7.128,-5.6305,-0.1295,-0.6521,0.2596,93,6.541,126,6.3735,4.091,-11.6954,-0.4831,-0.2251,-0.4524,92,6.701,129,2.1173,-2.3785,-2.4638,0.144,0.264,-1.6164,96,7.097,137,-0.5966,-0.5067,-4.3618,-0.269,-0.7098,0.7627,64
6.603,127,7.2754,7.6028,-5.5235,0.0339,-0.5116,0.2834,93,6.593,127,8.7088,5.7868,-10.162,0.206,-0.6307,-0.5154,92,6.753,130,0.8608,1.2513,0.6124,0.7875,-0.0169,-0.9541,96,7.149,138,-0.3893,-0.9343,-4.5941,-0.0896,-0.832,0.7971,64
6.655,128,7.2067,6.7873,-5.6522,0.4135,-0.3515,0.2361,93,6.645,128,10.8686,3.2679,-9.4379,0.7688,-0.3034,-0.2924,92,6.805,131,0.4524,3.4427,3.359,-0.0017,-0.2481,-1.1848,96,7.201,139,0.3117,-1.0612,-5.4008,0.1415,-0.7408,0.6562,64
6.707,129,7.0261,6.1842,-5.591,0.9432,-0.1014,0.1342,93,6.697,129,11.5847,7.601,-11.6175,0.2911,-0.221,0.3032,92,6.857,132,0.2598,3.4025,1.2922,-0.3793,-0.1491,-0.7124,96,7.253,140,0.6837,-1.4943,-6.3767,0.3004,-0.2241,0.1461,64
6.758,130,5.665,6.1514,-5.5086,1.3298,-0.2219,0.1938,93,6.749,130,12.1872,8.8242,-13.5034,0.7111,0.5186,0.8008,92,6.908,133,-0.5498,4.7338,-1.6221,-0.6954,-0.6889,0.132,96,7.305,141,2.5246,-1.7731,-7.8966,0.5038,0.5439,-0.1956,64
6.81,131,5.0734,6.3785,-4.3209,1.612,-0.5964,0.1146,93,6.801,131,14.1106,6.349,-17.206,-0.1624,0.3863,0.9772,92,6.96,134,2.2937,3.7227,-3.6019,-1.1608,-0.4257,0.7523,96,7.356,142,4.5904,-3.7856,-5.0122,1.0316,1.1078,0.0561,64
6.862,132,3.5477,8.8744,-4.2043,1.818,-1.202,0.014,93,6.852,132,8.4595,-0.738,-15.8847,0.2402,0.8047,0.037,92,7.012,135,4.369,8.0439,-8.0193,-1.3217,0.4353,1.205,96,7.408,143,-4.4918,2.5233,1.2435,1.4668,1.3663,0.818,64
6.913,133,4.124,11.0992,-3.2498,1.5836,-1.7352,-0.0477,93,6.904,133,7.0384,-0.5266,-15.3454,0.8456,1.2672,0.3082,92,7.064,136,-0.1138,5.5551,-5.5592,-1.6179,1.0637,0.1836,96,7.46,144,-5.7334,1.1042,4.8381,0.4327,0.6306,1.164,64
6.965,134,1.6957,12.4971,-5.6674,1.0884,-0.7725,0.0875,93,6.956,134,5.1162,3.4445,-15.6155,-0.0191,0.9016,0.0291,92,7.116,137,-0.4797,3.5822,-1.3533,-0.576,0.2455,-0.3063,96,7.512,145,-7.3738,0.69,1.6839,-0.3221,0.7386,0.9671,64
7.017,135,1.7805,9.7186,-4.1177,1.3391,-0.3637,-0.2293,93,7.008,135,3.6575,0.2441,-15.1818,0.4011,1.2443,-0.5637,92,7.168,138,-2.6401,3.8694,-2.7702,0.278,0.7999,0.1251,96,7.564,146,-8.1015,0.2064,0.9275,-0.5617,0.4445,0.7318,64
7.069,136,4.6618,7.7928,-2.0486,0.6877,-0.8865,-0.4593,93,7.06,136,1.6396,0.2126,-14.6292,0.4207,0.9731,-0.28,92,7.219,139,-6.0665,4.8228,-0.6239,0.4508,0.4646,0.4435,96,7.615,147,-8.069,-0.2114,0.5475,0.1567,0.3122,0.701,64
7.121,137,8.3863,3.9886,-6.7227,0.0812,-1.5049,-1.0019,93,7.111,137,1.6363,0.9792,-12.8476,0.3874,0.5478,-0.2261,92,7.271,140,-6.723,3.8325,-0.8469,0.2694,-0.1099,0.0238,96,7.667,148,-8.1469,0.0973,0.8423,0.2476,0.1149,0.6616,64
7.172,138,10.8942,3.1486,-8.9305,0.7007,-1.7143,-1.124,93,7.163,138,1.8557,2.3594,-11.7795,0.2276,0.364,-0.5174,92,7.323,141,-6.2672,1.8969,0.3428,0.4127,-0.4128,-0.4217,96,7.719,149,-10.0164,5.3573,-5.0725,-0.4017,-0.2191,0.3109,64
7.224,139,5.0127,10.2245,-6.5625,0.558,-0.7573,-0.1353,93,7.215,139,6.5702,6.9129,-12.1001,-0.4203,-0.4062,-1.041,92,7.375,142,-1.8791,-3.4296,-5.1402,0.0183,0.2541,-0.1693,96,7.771,150,-15.1525,8.809,-9.3895,-0.1671,0.55,1.0039,64
7.276,140,2.5019,10.1894,-5.3804,1.0456,-1.3198,-0.1141,93,7.267,140,8.6545,4.6049,-12.4549,-0.963,-0.1557,-1.281,92,7.427,143,-4.4125,0.9372,-5.9166,0.7118,0.3962,0.5324,96,7.823,151,-15.174,6.6703,-9.441,0.0379,1.1123,1.5097,64
7.328,141,3.4966,12.738,-3.3092,1.2457,-0.9571,-0.5259,93,7.319,141,10.4956,1.5813,-10.9754,-0.8462,-0.646,-0.8219,92,7.478,144,-0.5255,2.0088,-0.2117,0.403,-0.3166,-0.2244,96,7.874,152,-11.5877,4.0969,-8.1152,0.1386,1.1058,1.2275,64
7.38,142,1.9589,11.1197,-2.2603,0.4796,-0.6947,-0.0899,93,7.37,142,10.2606,6.37,-10.9035,-0.9274,-1.1068,-0.4418,92,7.53,145,0.4769,3.8524,-1.2426,0.3363,-0.3774,-0.0037,96,7.926,153,-8.6906,2.6846,-7.135,0.122,0.88,0.9158,64
7.431,143,0.6159,11.2695,-1.8578,0.8969,-0.4618,-0.174,93,7.422,143,9.4779,5.7985,-11.2886,-1.0139,-1.2802,-0.2431,92,7.582,146,1.076,3.2825,-1.5941,0.1643,-0.2155,0.1959,96,7.978,154,-6.4472,1.4902,-6.3356,0.0973,0.7154,0.823,64
7.483,144,0.0478,10.324,-2.6046,0.8351,-0.2328,-0.3196,93,7.474,144,8.8156,5.7246,-10.6552,-0.7386,-1.106,-0.0955,92,7.634,147,1.5977,3.203,-0.7133,0.1636,-0.1847,0.1591,96,8.03,155,-4.8824,0.5713,-5.8916,0.0742,0.534,0.7447,64
7.535,145,1.3331,9.8676,-2.7483,0.9606,-0.4727,-0.2255,93,7.526,145,9.0113,6.1879,-11.2965,-0.5644,-0.7709,0.0485,92,7.686,148,-0.7687,3.5933,-1.7013,0.1833,-0.1624,-0.1486,96,8.082,156,-3.7392,-0.1767,-5.6826,0.0484,0.4017,0.6909,64
7.587,146,3.9378,13.8439,-2.9085,-0.0072,-0.1642,-0.2482,93,7.578,146,8.9743,6.1366,-11.5434,-0.3973,-0.5232,0.1714,92,7.737,149,-0.6922,4.1365,-1.887,0.2368,-0.0552,-0.0925,96,8.133,157,-2.7636,-0.7927,-5.453,0.0709,0.3737,0.5818,64
7.638,147,7.8579,12.9442,-7.303,-0.3038,-0.0948,-0.2603,93,7.629,147,8.778,5.8113,-11.4759,-0.2107,-0.3436,0.3263,92,7.789,150,-0.7439,4.202,-2.3797,0.1806,0.0025,-0.0341,96,8.185,158,-2.0892,-1.1555,-5.2227,0.0781,0.3643,0.4487,64
7.69,148,6.383,12.1967,-3.2327,0.1534,0.3768,-0.1641,93,7.681,148,8.829,5.6174,-11.5628,-0.1087,-0.1597,0.4986,92,7.841,151,-0.382,4.737,-2.6198,0.1655,0.1373,0.0772,96,8.237,159,-1.6082,-1.3303,-4.9627,0.117,0.3688,0.3263,64
7.742,149,7.5068,9.9852,-1.9923,-0.4973,0.2792,-0.1012,93,7.733,149,8.719,5.4556,-11.2887,0.0071,0.1301,0.5967,92,7.893,152,-0.37,4.4771,-2.957,0.1464,0.2466,0.1087,96,8.289,160,-1.2072,-1.3654,-4.7619,0.1525,0.3624,0.222,64
7.794,150,7.6879,6.3395,-1.3277,-0.5501,0.2448,0.1529,93,7.785,150,8.5302,5.1794,-11.3252,0.2072,0.4382,0.5261,92,7.944,153,-0.4031,4.3839,-3.0119,0.1487,0.2907,0.1469,96,8.341,161,-0.9033,-1.3999,-4.6369,0.1879,0.3968,0.1574,64
7.846,151,6.9368,5.5125,0.3314,-0.2843,0.1714,0.0462,93,7.837,151,8.4924,4.43,-11.1225,0.5374,0.6138,0.3357,92,7.996,154,-0.355,4.3431,-3.026,0.0777,0.325,0.252,96,8.392,162,-0.5812,-1.4123,-4.3958,0.1504,0.4811,0.1291,64
7.897,152,6.8404,5.9265,1.7669,-0.0615,-0.0701,-0.1924,93,7.888,152,8.6411,4.0366,-10.591,1.0625,0.7669,0.194,92,8.048,155,-0.2063,3.9511,-2.835,0.0857,0.2771,0.3703,96,8.444,163,-0.4303,-1.2756,-4.1774,0.0939,0.5509,0.1254,64
7.949,153,6.9226,5.4895,2.3054,-0.3381,-0.3655,-0.2844,93,7.94,153,8.4542,3.3966,-10.6851,0.8951,0.8347,0.2113,92,8.1,156,-0.2985,3.7324,-2.893,0.0754,0.2646,0.4356,96,8.496,164,-0.2934,-1.2937,-3.9388,0.092,0.6065,0.0903,64
8.001,154,6.4127,5.5738,2.6459,-0.4935,-0.8914,-0.3479,93,7.992,154,8.4885,3.4792,-10.2911,0.921,0.9861,0.1433,92,8.152,157,-0.2188,3.3103,-3.0804,0.0418,0.1895,0.6087,96,8.548,165,-0.2068,-1.1876,-3.7024,0.1099,0.6376,0.0471,64
8.053,155,7.0069,5.3464,2.1822,-0.7456,-1.3544,-0.4746,93,8.044,155,8.453,3.1844,-9.9141,1.3081,1.1585,0.0285,92,8.204,158,-0.306,3.0242,-3.2416,0.0383,0.1585,0.6334,96,8.599,166,-0.1526,-0.9194,-3.3267,0.135,0.6439,0.047,64
8.105,156,7.6402,5.4501,1.6763,-0.7391,-1.5028,-0.5284,93,8.096,156,8.3638,3.1842,-9.6807,1.6251,1.2031,-0.075,92,8.255,159,-0.1801,2.5286,-3.3119,0.0792,0.2148,0.6034,96,8.651,167,-0.0727,-0.7139,-3.0096,0.1377,0.6076,0.0819,64
8.156,157,8.0028,5.9269,1.434,-0.9773,-1.3677,-0.2782,93,8.147,157,8.2989,3.3908,-9.7303,1.7488,1.1227,-0.0903,92,8.307,160,-0.1982,2.2307,-3.296,0.1144,0.2589,0.5531,96,8.703,168,0.0101,-0.591,-2.7863,0.1136,0.571,0.1234,64
8.208,158,7.9636,6.5223,0.9628,-1.3175,-1.2757,-0.1726,93,8.199,158,8.2292,3.4371,-9.8058,1.2423,0.9769,-0.0069,92,8.359,161,-0.2488,1.9662,-3.258,0.1131,0.2743,0.4953,96,8.755,169,0.0641,-0.5097,-2.598,0.1166,0.5222,0.1513,64
8.26,159,8.0132,6.8438,0.3303,-1.6629,-1.1425,-0.1842,93,8.251,159,8.2846,3.4055,-9.895,0.8538,0.836,0.0867,92,8.411,162,-0.2818,1.6939,-3.2646,0.0941,0.283,0.4468,96,8.807,170,0.1157,-0.4032,-2.4191,0.1199,0.4993,0.1796,64
8.312,160,8.0814,7.0053,-0.7535,-1.9183,-1.0743,-0.1596,93,8.303,160,8.2485,3.3525,-10.0346,0.6005,0.7033,0.1414,92,8.463,163,-0.2936,1.3984,-3.2138,0.0901,0.3043,0.4021,96,8.858,171,0.1277,-0.3887,-2.1981,0.1083,0.4813,0.1905,64
8.364,161,8.4266,6.7144,-0.8698,-1.968,-0.6055,-0.1288,93,8.355,161,8.1312,3.2581,-10.0624,0.5141,0.5293,0.1141,92,8.514,164,-0.2885,1.2211,-3.1575,0.1018,0.3063,0.3576,96,8.91,172,0.1293,-0.246,-1.9873,0.137,0.4608,0.1952,64
8.415,162,8.6058,7.2077,-0.9054,-2.1466,-0.0269,0.5729,93,8.407,162,8.2832,3.4187,-10.0317,0.3376,0.2946,0.099,92,8.566,165,-0.3081,0.944,-3.0834,0.1209,0.2944,0.3091,96,8.962,173,0.1201,-0.0783,-1.7356,0.1305,0.4018,0.2183,64
8.467,163,8.2088,6.4085,-2.3452,-2.277,0.462,1.1032,93,8.458,163,8.3205,3.4405,-9.8784,0.0405,0.0443,0.0802,92,8.618,166,-0.3075,0.8101,-3.0468,0.1362,0.28,0.2432,96,9.013,174,0.1958,-0.0692,-1.6123,0.1494,0.3555,0.2288,64
8.519,164,6.0503,5.0568,-3.4009,-2.3722,0.6851,1.4902,93,8.51,164,8.4848,3.4309,-9.7283,-0.2456,-0.1823,0.0116,92,8.67,167,-0.2802,0.7334,-3.0383,0.1484,0.2678,0.2128,96,9.065,175,0.1418,-0.069,-1.4828,0.2009,0.3424,0.2401,64
8.571,165,5.1164,4.8407,-3.7694,-2.4351,0.4862,1.7727,93,8.562,165,8.6343,3.5202,-9.6338,-0.3736,-0.3714,-0.0876,92,8.721,168,-0.3474,0.4715,-3.0083,0.1231,0.2618,0.1673,96,9.117,176,0.1592,0.0327,-1.2772,0.173,0.2868,0.2653,64
8.622,166,4.2008,4.7452,-4.4325,-2.3322,0.3003,1.9512,93,8.614,166,8.9211,3.625,-9.605,-0.4886,-0.5551,-0.1798,92,8.773,169,-0.2725,0.491,-3.0325,0.1224,0.259,0.1396,96,9.169,177,0.1815,0.1342,-1.1849,0.1865,0.2479,0.2823,64
8.674,167,3.6794,5.2315,-4.8499,-1.689,0.1605,1.6422,93,8.666,167,9.0949,3.7472,-9.5386,-0.6702,-0.7041,-0.2367,92,8.825,170,-0.2935,0.4192,-3.0876,0.1262,0.2573,0.1509,96,9.221,178,0.2574,0.1151,-1.2204,0.1571,0.2374,0.28,64
8.726,168,3.2395,5.118,-5.3082,-1.3323,0.2063,1.1703,93,8.717,168,8.8627,3.7964,-9.6866,-0.7852,-0.819,-0.246,92,8.877,171,-0.2496,0.402,-3.0636,0.1004,0.2683,0.1789,96,9.272,179,0.2668,0.2707,-1.0883,0.1032,0.2391,0.2664,64
8.778,169,3.136,5.1923,-5.6592,-0.8509,0.2187,0.5114,93,8.769,169,8.8837,3.6362,-10.1655,-0.7429,-0.9512,-0.3348,92,8.929,172,-0.4409,0.0692,-3.0698,0.0753,0.2596,0.1002,96,9.324,180,0.2498,-0.0897,-1.01,0.0125,0.226,0.2537,64
8.83,170,3.1029,4.2582,-5.8232,-0.5152,0.2796,-0.1446,93,8.821,170,8.4766,3.9689,-10.6491,-0.8215,-1.1225,-0.4033,92,8.98,173,-0.2986,0.2213,-3.1313,0.0253,0.2349,-0.0176,96,9.376,181,0.1481,0.223,-0.9418,-0.0113,0.1705,0.2945,64
8.881,171,3.4123,3.5974,-5.8644,0.2611,0.1282,-0.7722,93,8.873,171,7.8911,3.8249,-11.1307,-0.9809,-1.1953,-0.3121,92,9.032,174,-0.2231,0.1352,-3.0672,-0.0765,0.1705,-0.3065,96,9.428,182,0.2774,0.2652,-0.9021,0.0924,0.1272,0.3402,64
8.933,172,3.8069,2.9551,-5.6297,0.832,-0.0855,-1.2303,93,8.925,172,7.7434,3.4177,-11.3781,-1.0138,-1.1883,-0.1115,92,9.084,175,0.5091,1.3443,-3.2659,-0.2764,0.105,-0.6343,96,9.479,183,0.0585,0.588,-0.234,0.2487,-0.2809,0.6435,64
8.985,173,4.1179,2.8189,-5.4053,1.2487,-0.4747,-1.5646,93,8.976,173,6.6838,2.7397,-11.4162,-0.8746,-0.87,-0.1641,92,9.136,176,-0.3221,0.9628,-2.2417,-0.0275,0.239,-1.157,96,9.531,184,-0.8458,0.7493,-0.5175,-0.3776,-0.79,0.8854,64
9.037,174,4.7628,2.7406,-4.57,1.5528,-0.8434,-1.7065,93,9.028,174,3.5629,4.9677,-9.5871,-0.5463,-0.3868,-0.0555,92,9.188,177,-3.0738,0.2312,-1.0556,0.267,0.751,-1.5054,96,9.583,185,-1.2001,1.1941,-0.9968,-0.8639,-1.1708,1.0451,64
9.089,175,5.2322,2.9158,-3.9253,1.6056,-1.1779,-1.4572,93,9.08,175,6.0417,4.5429,-8.8284,-0.9014,-0.409,-0.2565,92,9.239,178,0.4516,0.3576,4.4281,-0.325,0.8743,-1.0141,96,9.635,186,-0.6811,0.0956,-2.5363,-0.4316,-0.9029,1.4678,64
9.14,176,5.5425,2.6797,-3.6492,1.8086,-1.3235,-1.2375,93,9.132,176,9.3329,8.5316,-11.6479,-0.3695,0.1176,-0.0967,92,9.291,179,-0.1015,1.0674,2.8874,-0.2301,0.2627,-0.7835,96,9.687,187,0.2135,-1.3813,-4.5716,0.0289,-0.6722,0.9668,64
9.192,177,5.5735,3.115,-3.5964,1.9614,-1.4702,-1.0349,93,9.184,177,11.5318,7.2979,-12.8218,-0.7872,0.014,0.201,92,9.343,180,-0.7836,4.5588,-0.9567,-0.3224,-0.1392,-0.2221,96,9.738,188,2.9037,-2.4177,-5.0218,0.4518,0.1464,0.1309,64
9.244,178,5.6085,4.1934,-3.4243,2.073,-1.7167,-0.8471,93,9.236,178,11.2577,3.3285,-11.862,-0.1214,0.1609,0.3906,92,9.395,181,2.1231,2.7685,-2.863,-0.6258,-0.1931,0.4938,96,9.79,189,2.5103,-2.2327,-3.6815,1.0436,0.8177,-0.3876,64
9.296,179,5.4859,5.1183,-3.4073,2.1544,-2.0551,-0.9357,93,9.287,179,7.5725,1.3294,-12.8547,0.5817,0.6122,0.6736,92,9.447,182,4.2445,7.7337,-5.6753,-1.0396,0.5222,1.0163,96,9.842,190,-6.0099,1.0189,-2.161,1.4756,1.3077,0.4928,64
9.347,180,4.8727,6.8758,-3.4908,2.2114,-2.3573,-1.1594,93,9.339,180,5.5414,1.7169,-11.6827,1.0949,1.1267,0.3636,92,9.499,183,-0.4841,7.1736,-3.5588,-1.3421,1.1271,0.4434,96,9.894,191,-4.4664,1.9368,0.7317,0.5529,0.3136,0.8151,64
9.399,181,0.2059,8.6779,-5.053,2.2554,-1.7008,-1.5128,93,9.391,181,3.5958,1.8717,-10.131,1.4694,1.426,0.3308,92,9.55,184,-3.4157,3.4879,-2.7771,-0.9153,0.2169,-0.3722,96,9.945,192,-6.1487,2.1893,0.949,-0.2343,0.0251,0.8582,64
9.451,182,3.826,4.6182,-7.3845,1.3574,-1.2106,-0.6294,93,9.443,182,3.3398,0.0693,-10.1123,1.7428,1.7206,0.07,92,9.602,185,-4.501,3.3211,-2.5052,0.0304,0.2496,-0.7896,96,9.997,193,-5.9249,1.3016,0.8741,-0.8089,-0.4269,0.8018,64
9.503,183,7.7763,0.7168,-6.9764,0.658,-0.8243,-0.3281,93,9.495,183,3.2253,3.0181,-8.9278,1.9423,1.9357,-0.2984,92,9.654,186,-5.9315,2.1606,-2.2587,0.4761,0.3995,-0.8991,96,10.049,194,-6.1603,0.038,0.1993,-0.6612,-0.7072,0.7851,64
9.555,184,10.6594,5.1771,-6.4176,0.8003,-1.2164,-0.7716,93,9.546,184,4.1116,1.086,-7.4532,1.1508,2.0925,-0.454,92,9.706,187,-7.3781,1.6369,-1.4922,0.0843,0.6833,-0.3488,96,10.101,195,-4.4923,-1.0144,-0.4649,-1.0778,-0.982,0.6322,64
9.607,185,9.3252,5.4001,-5.7775,0.2954,-1.0558,-0.2659,93,9.598,185,8.2167,3.6373,-9.3805,1.5102,2.1999,0.1597,92,9.758,188,-2.6899,-3.281,3.9164,-0.5889,0.9068,-0.5657,96,10.153,196,-6.2264,-3.109,-5.6929,-0.8275,-0.0058,1.2282,64
9.658,186,4.5611,6.0741,-5.0183,0.2818,-0.5493,0.189,93,9.65,186,11.2128,6.205,-6.8193,0.6737,1.7918,0.7811,92,9.809,189,-5.5379,0.8404,4.0603,-0.2379,0.2039,0.0831,96,10.205,197,-1.7965,-4.7123,-5.3855,-0.557,0.5868,0.4216,64
9.71,187,3.8188,6.7465,-3.4734,0.4282,-0.9739,0.8042,93,9.702,187,7.2649,7.6198,-7.1133,-0.1897,1.3917,1.1576,92,9.861,190,-1.3468,2.0919,-2.4271,0.0024,-0.3852,0.4467,96,10.256,198,1.176,-4.8448,-6.1963,0.2518,1.1391,-0.2635,64
9.762,188,1.6717,7.6756,-3.1568,0.2669,-0.5592,0.646,93,9.754,188,3.044,5.4991,-7.5886,-0.8199,0.4303,0.7197,92,9.913,191,1.712,7.3016,-5.9503,-0.6516,-0.1938,0.9799,96,10.308,199,-6.9837,-0.5252,-3.9937,0.8976,1.445,0.5842,64
9.814,189,0.2313,8.6973,-3.342,0.0461,-0.8301,0.3843,93,9.806,189,3.3021,2.9829,-8.0135,-1.2776,0.2733,0.2108,92,9.965,192,-2.8533,6.8767,-4.2876,-0.9304,0.6046,0.5668,96,10.36,200,-4.4336,1.0201,0.4345,0.0897,0.4137,1.0181,64
9.865,190,-1.0078,8.9325,-3.7167,0.5479,-1.4221,-0.3756,93,9.857,190,2.111,0.0713,-8.1465,-1.1469,0.2299,-0.1032,92,10.016,193,-5.2082,3.8286,-2.5624,-1.0532,-0.1645,-0.2813,96,10.412,201,-5.4751,0.879,0.232,-0.5724,0.3155,1.0615,64
9.917,191,4.2483,9.9438,-0.9389,1.0413,-1.8554,-0.8967,93,9.909,191,0.9493,0.4035,-8.2135,-0.7237,0.284,0.0343,92,10.068,194,-5.8287,2.892,-1.7083,-0.0772,0.1848,-0.4314,96,10.464,202,-5.9965,0.828,0.137,-1.0556,0.3494,1.0433,64
9.969,192,8.0845,14.8605,-6.2041,0.0626,-0.8603,-0.2463,93,9.961,192,2.0627,-1.2736,-8.663,-0.9203,0.1112,0.2546,92,10.12,195,-6.7146,3.6314,-1.2232,0.6421,0.1773,-0.5922,96,10.515,203,-7.0313,-0.2246,-0.4751,-0.2568,0.2686,0.973,64
10.021,193,10.8844,9.83,-8.9918,-0.6646,-0.983,0.1314,93,10.013,193,0.8462,-1.4913,-7.3437,-0.0013,0.3395,0.1205,92,10.172,196,-7.4946,3.5509,-0.6511,0.166,0.3582,-0.779,96,10.567,204,-2.3839,5.1223,1.8431,-0.3453,-0.4448,0.2405,64
10.073,194,9.3705,8.013,-6.2951,-1.1954,-0.4439,0.578,93,10.065,194,5.8335,-0.4007,-8.1261,0.1816,-0.3713,-0.2556,92,10.224,197,-2.775,8.343,-2.2995,-0.1943,-0.3443,-0.2505,96,10.619,205,-9.5111,2.2799,-4.3421,0.1758,0.3862,0.5537,64
10.124,195,2.4995,6.629,-3.2452,-0.9783,0.0518,0.4467,93,10.117,195,9.0118,1.2941,-6.2031,-0.1857,-0.6705,-0.0899,92,10.275,198,-3.649,11.864,-7.0687,0.0478,0.4434,0.2224,96,10.671,206,-4.1938,4.2439,-1.7992,0.8362,0.8429,-0.1707,64
10.176,196,3.8699,6.4796,-2.9385,-0.2086,-0.8201,0.3763,93,10.168,196,2.3039,1.8516,-6.8069,-0.817,0.0023,-0.1687,92,10.327,199,0.0317,3.8448,-5.2977,0.0719,0.804,0.8183,96,10.722,207,-5.5704,2.1775,-4.5115,1.3242,1.326,-0.6114,64
10.228,197,2.9787,8.3802,-3.1801,-0.1737,-0.1046,0.801,93,10.22,197,4.6609,-1.6083,-7.2169,-1.2777,-0.448,-0.2796,92,10.379,200,-3.161,6.9233,-5.4567,-0.6008,1.3328,1.235,96,10.774,208,-5.7703,4.7934,-7.4521,0.5852,0.3269,-0.6173,64
10.28,198,0.6604,12.458,-3.9601,-0.8371,0.2698,1.2697,93,10.272,198,1.9738,-2.1399,-7.3436,-0.2622,-0.1858,-0.2381,92,10.431,201,-5.3988,0.5618,-0.5401,-0.3692,0.4433,0.2055,96,10.826,209,-6.733,2.1492,-4.5906,-0.2107,-0.069,-0.0531,64
10.332,199,-0.2543,12.6483,-4.3264,-1.3212,0.2317,0.5918,93,10.324,199,1.473,-2.1981,-8.7814,-0.8727,-0.0935,0.1932,92,10.483,202,-6.5791,1.0939,-0.4656,0.429,0.7807,0.1592,96,10.878,210,-6.9747,2.4207,-3.5936,-0.6007,-0.0725,0.2549,64
10.383,200,2.498,11.7936,-3.8503,-0.9799,-0.6536,0.0127,93,10.376,200,1.2035,-2.9815,-9.4122,-0.3111,0.0799,0.601,92,10.535,203,-7.3327,1.7736,-0.5821,1.0115,0.7822,0.0255,96,10.93,211,-7.6091,1.0657,-1.5696,-0.7251,0.1294,0.3615,64
10.435,201,6.8071,8.9852,-8.3289,-1.4255,-0.1392,-0.4332,93,10.427,201,1.025,-1.196,-8.8349,0.4433,0.1402,0.5749,92,10.586,204,-7.8302,2.8106,-1.4659,0.1202,0.575,0.0203,96,10.981,212,-10.2261,-0.6003,0.5803,-0.8498,0.7494,0.3615,64
10.487,202,9.952,5.2216,-8.6729,-0.4676,-0.4625,-0.9829,93,10.479,202,4.7112,-1.7865,-8.4071,0.1659,-0.1485,0.5646,92,10.638,205,-7.0541,7.8262,-3.3188,-0.5656,0.9092,-0.0778,96,11.033,213,-4.7156,-5.7408,5.3252,0.0031,0.0152,0.697,64
10.539,203,6.1419,5.8542,-4.4357,-0.3839,0.1563,-1.384,93,10.531,203,8.6543,-1.1353,-6.7424,0.6525,0.1528,0.0272,92,10.69,206,-10.0796,8.2025,-5.9356,-1.0661,1.4096,-0.1353,96,11.085,214,-4.2708,-5.4034,0.9343,-0.0312,0.5535,0.0999,64
10.591,204,-1.1216,3.1602,-6.2246,-0.2239,0.4381,-0.6758,93,10.583,204,7.8989,-2.9746,-5.0012,0.1778,0.4357,-0.2505,92,10.742,207,-8.1465,5.8823,-3.7784,-0.7128,0.5822,0.2158,96,11.137,215,-0.3692,-0.9171,2.5033,0.6908,1.1149,-0.5018,64
10.642,205,0.0808,4.3519,-4.6461,0.4136,-0.5381,-0.3571,93,10.635,205,5.1926,-0.025,-5.602,0.7153,0.4379,-0.3644,92,10.793,208,-5.6296,10.068,-8.1481,-1.1447,0.52,0.8134,96,11.188,216,-7.7556,1.1593,0.0191,1.2181,1.5246,0.1616,64
10.694,206,0.4805,7.4214,-3.6462,0.4944,-0.2793,0.3138,93,10.686,206,3.3495,-1.0467,-7.0251,0.12,0.6621,-0.5648,92,10.845,209,-8.3583,8.5683,-5.0856,-1.3762,1.1255,0.5935,96,11.24,217,-5.434,1.4416,1.7293,0.2512,0.4718,0.3154,64
10.746,207,-0.0297,7.5903,-2.9962,-0.316,-0.0774,0.4769,93,10.738,207,2.9081,-2.2129,-8.3113,0.4225,0.6198,-0.7315,92,10.897,210,-7.008,5.3313,-2.9818,-0.4223,0.2157,-0.1105,96,11.292,218,-7.0349,-0.2086,0.1156,-0.4545,0.402,0.4669,64
10.798,208,-0.1048,7.6597,-2.1311,0.4108,-0.1942,0.1057,93,10.79,208,2.0227,-3.1786,-8.4218,0.9706,0.8276,-0.6078,92,10.949,211,-7.6359,4.6786,-2.4972,0.3903,0.5079,-0.3921,96,11.344,219,-7.7364,-0.5456,-0.4508,-0.4945,0.2836,0.4929,64
10.85,209,4.2975,9.4923,-4.2707,0.9413,-0.9996,0.5038,93,10.842,209,1.3963,-3.3699,-8.9646,1.3788,1.0746,-0.4285,92,11.001,212,-8.7406,4.6997,-1.3605,0.7757,0.7586,-0.5011,96,11.396,220,-9.0095,-1.9274,-0.3964,0.3343,0.2815,0.5535,64
10.901,210,8.1204,11.2487,-8.6358,-0.0233,-0.6169,1.0528,93,10.894,210,1.8988,-2.0787,-9.799,1.6766,1.1076,-0.1754,92,11.053,213,-9.5952,5.1332,-0.5471,0.5551,0.6802,-0.5726,96,11.447,221,-8.3039,-6.7094,-5.9766,0.6589,0.3562,0.9801,64
10.953,211,8.67,10.7814,-6.8476,-0.2147,-0.4295,0.9225,93,10.945,211,6.6017,0.5982,-11.3973,0.8255,0.1365,0.4933,92,11.104,214,-9.144,3.6155,-0.7144,1.1036,-0.1093,-1.0556,96,11.499,222,-3.3127,-9.4737,-4.435,0.7027,0.633,1.3988,64
11.005,212,5.1401,10.3906,-4.0389,0.1486,0.1804,0.6268,93,10.997,212,10.0341,2.3085,-6.7489,-0.0789,-0.5722,0.0144,92,11.156,215,-13.6997,8.4136,-5.9119,1.234,0.6662,-0.4465,96,11.551,223,0.3301,-6.6981,-4.7034,0.6875,1.0467,0.5006,64
11.057,213,0.2393,11.9763,-4.4561,0.6857,-0.2544,0.389,93,11.049,213,6.8433,3.2006,-3.6044,0.6127,0.2623,-0.4168,92,11.208,216,-10.7938,7.2304,-7.293,0.3703,-0.1195,-0.4604,96,11.603,224,0.808,-6.5071,-5.9834,1.2073,1.4748,-0.0129,64
11.109,214,0.3777,12.2692,-3.7788,0.7249,-1.0436,-0.3828,93,11.101,214,6.8336,0.1516,-5.5936,-0.2342,0.0485,-0.4808,92,11.26,217,-8.8754,11.0519,-10.7132,-0.3277,-0.1401,0.2913,96,11.655,225,-6.843,-0.6476,-4.1519,1.5883,0.7735,0.7343,64
11.16,215,0.6102,12.9475,-3.1347,-0.1812,-0.9143,-0.0502,93,11.153,215,3.8353,-1.5166,-7.9798,-0.1715,0.2745,-0.3183,92,11.312,218,-10.3108,8.395,-8.1459,-0.8925,0.5686,-0.2219,96,11.706,226,-5.7753,0.1423,-4.8742,0.5214,0.2177,0.9419,64
11.212,216,-0.1381,10.932,-2.6795,-0.1327,-0.4372,-0.4837,93,11.205,216,2.6994,-1.703,-9.6981,0.5391,0.3858,-0.1782,92,11.364,219,-8.8818,4.5907,-3.6387,-0.7341,-0.1886,-0.8578,96,11.758,227,-6.3438,-1.1281,-4.2665,-0.2573,-0.1792,0.9593,64
11.264,217,0.5604,11.7425,-2.6661,0.5446,-1.177,-0.7732,93,11.256,217,1.5799,-0.6506,-9.657,0.6825,0.1673,-0.0327,92,11.415,220,-8.9288,3.8025,-3.0778,0.1627,-0.0911,-0.9043,96,11.81,228,-7.3222,-2.2324,-3.0117,-0.1439,-0.0826,0.8658,64
11.316,218,3.8875,12.2527,-5.5546,0.0477,-1.6386,-0.2983,93,11.308,218,2.0862,-0.4479,-8.451,0.0809,0.0307,0.1737,92,11.467,221,-9.2102,3.7834,-2.192,0.8171,0.2998,-0.4989,96,11.862,229,-10.106,-2.6819,-1.3463,0.1548,0.1557,0.9987,64
11.368,219,7.8212,12.1914,-6.6545,0.0287,-0.704,-0.0002,93,11.36,219,4.0459,-0.9381,-6.2702,0.1944,0.335,0.3934,92,11.519,222,-10.8757,3.1706,0.6257,0.8367,0.5132,-0.7324,96,11.914,230,-12.3241,1.4291,-6.3331,-0.3063,-0.2622,1.2627,64
11.419,220,8.8534,12.5518,-1.7285,0.6048,-0.6369,-0.2177,93,11.412,220,8.1687,0.1223,-7.679,0.8122,-0.381,0.466,92,11.571,223,-5.2426,-2.5,-4.9338,0.2952,-0.2312,-1.0412,96,11.965,231,-16.8367,0.4866,-10.3095,0.0019,0.5085,1.694,64
11.471,221,4.9454,12.9603,-3.6938,-0.1528,0.0291,0.305,93,11.464,221,11.1778,1.9655,-6.6287,0.5945,-0.8848,0.1304,92,11.623,224,-7.0026,3.9502,-8.9913,0.4353,0.5161,-0.183,96,12.017,232,-9.5403,-0.0919,-10.4124,0.3461,1.0773,0.6621,64
11.523,222,1.7748,11.8179,-2.6743,-0.8218,0.5151,0.7299,93,11.515,222,6.0503,3.1526,-6.8734,1.1042,0.0342,-0.242,92,11.674,225,-2.4158,-0.1524,-10.5547,-0.0365,-0.1699,0.5224,96,12.069,233,-4.4831,-1.2405,-9.4884,0.5316,1.4972,-0.0907,64
11.574,223,1.2552,12.5819,-1.6666,-1.3101,-0.4819,1.1365,93,11.567,223,4.2731,1.2724,-8.8367,1.2689,0.0857,-0.0702,92,11.726,226,0.9318,5.6637,-12.1258,-0.3675,0.0645,1.0362,96,12.12,234,-9.2267,2.0075,-7.0948,0.7617,1.4578,0.6834,64
11.626,224,2.8217,11.453,-0.4974,-0.362,-0.5087,0.3992,93,11.619,224,2.7984,1.8219,-8.0141,1.2964,-0.5767,-0.4181,92,11.778,227,-2.8198,5.2926,-10.3322,-0.7463,0.7771,0.1221,96,12.172,235,-4.8269,0.2487,-4.0371,-0.0819,0.4231,1.2301,64
11.678,225,1.4956,12.7807,-0.8798,0.3772,-0.1759,-0.3753,93,11.671,225,1.7896,0.5116,-6.7684,0.2648,-0.5731,-0.3095,92,11.83,228,-3.8825,3.2067,-7.0401,-0.8769,-0.0386,-0.4547,96,12.224,236,-8.4301,0.1807,-3.0103,0.0351,0.3347,1.2226,64
11.73,226,4.434,15.427,-0.246,-0.0553,-0.9862,-0.9097,93,11.723,226,2.3794,-0.6222,-7.0418,0.8636,0.2584,-0.1642,92,11.882,229,-5.8956,2.1632,-5.2265,-0.2407,0.7178,-0.6996,96,12.276,237,-12.362,-2.4151,-2.8408,0.6598,0.9552,0.8308,64
11.782,227,8.22,13.8913,-5.6966,-0.7426,-1.5706,-1.1025,93,11.775,227,2.4743,-2.6333,-10.6336,0.8876,0.8685,0.3557,92,11.933,230,-8.4692,6.9346,-5.7697,-0.0177,0.6667,0.1453,96,12.328,238,-12.2892,-3.6123,-4.1299,0.4192,0.7354,0.8544,64
11.833,228,10.9832,18.0724,-6.8879,0.0995,-1.4057,-0.2799,93,11.826,228,2.5064,-0.75,-15.5683,0.727,0.6806,0.9241,92,11.985,231,-7.1953,6.3556,-2.1307,0.0513,0.8364,-0.5898,96,12.379,239,-6.2214,2.6498,1.8874,0.6972,-0.1041,0.2439,64
11.885,229,10.095,14.9047,-4.4043,-0.6377,-0.6099,0.1154,93,11.878,229,7.0451,4.6685,-15.6869,-0.1508,-0.1751,1.1019,92,12.037,232,-2.5565,-0.1755,-1.9268,-0.6159,1.0186,-0.7884,96,12.431,240,-5.6982,-0.1965,-1.6506,0.4247,-0.7169,-0.2833,64
11.937,230,3.967,9.6155,-3.2737,-1.1155,0.0487,-0.5825,93,11.93,230,10.3577,-1.2189,-19.3995,-0.7915,-0.7997,0.117,92,12.089,233,-8.2383,5.6468,-0.8204,-0.6545,0.4755,0.0805,96,12.483,241,-3.1389,1.0387,-3.0989,0.0486,0.1877,-0.6482,64
11.989,231,2.6017,10.0328,-2.2248,-0.1927,-0.8223,-0.5893,93,11.982,231,9.0674,-4.3627,-17.5865,-1.2591,-0.995,-0.6018,92,12.14,234,-4.0577,-0.6928,-5.534,-0.1172,0.7552,0.3189,96,12.535,242,-1.1726,-2.897,-7.949,0.7494,0.2223,-0.9836,64
12.041,232,2.0055,11.911,-2.8687,0.4146,-0.826,-0.0406,93,12.034,232,9.4617,-8.5558,-17.1359,-0.2486,-0.4911,-0.7063,92,12.192,235,-5.9518,2.7192,-5.2117,-0.2964,1.2206,-0.173,96,12.587,243,-2.4129,1.2852,-4.9163,0.732,-0.4786,-0.2522,64
12.092,233,1.6472,13.5162,-1.9622,-0.1132,-0.4607,-0.1653,93,12.085,233,10.4493,-3.063,-14.9888,-0.017,-0.5445,-0.3218,92,12.244,236,-2.7994,-2.8295,0.1004,-0.0971,0.2851,-0.8131,96,12.638,244,-7.411,0.6127,-3.2447,-0.1036,0.3616,-0.2326,64
12.144,234,1.6623,13.3518,-1.42,-0.5028,-0.541,-0.5273,93,12.137,234,7.2399,-0.3555,-12.9759,0.6528,-0.5173,-0.2467,92,12.296,237,-6.6353,-2.1605,1.5751,-0.7194,0.9541,-0.9928,96,12.69,245,-7.3162,0.4187,-2.2535,0.5048,-0.0798,-0.7445,64
12.196,235,0.6037,13.9088,-0.8818,-0.9767,-0.2281,-0.8503,93,12.189,235,5.1251,1.1021,-11.2715,-0.205,-0.7131,-0.4434,92,12.348,238,-7.6535,0.829,-0.5621,-0.2623,0.8292,-0.0687,96,12.742,246,-8.1835,0.1154,-2.693,0.7456,-0.1073,-0.2319,64
12.248,236,5.4245,11.6082,-6.1624,-1.4231,-0.0844,0.0645,93,12.241,236,4.9989,1.3698,-10.3899,-0.2078,-0.1928,-1.0108,92,12.4,239,-8.554,2.9586,-1.1621,-0.4984,1.165,-0.6342,96,12.794,247,-8.0867,-5.2185,-7.6528,-0.0937,-0.1114,0.6078,64
12.3,237,8.943,16.406,-5.1072,-0.5772,-0.9195,0.6519,93,12.293,237,8.5517,6.2157,-12.241,-0.5297,0.0689,-1.425,92,12.451,240,-7.4872,6.4004,-3.729,-0.0637,0.6264,-1.1587,96,12.845,248,-3.1541,-7.6392,-0.6837,0.6106,-0.7221,0.8884,64
12.351,238,11.5109,13.2984,0.5378,-0.5758,-0.9888,-0.1905,93,12.344,238,8.1559,9.7524,-14.0064,0.2837,0.5805,-0.6157,92,12.503,241,-7.8681,2.5987,-7.4344,-0.1411,1.2032,-1.5333,96,12.897,249,0.4458,-8.5939,0.5087,0.0025,-1.1599,0.0903,64
12.403,239,6.4556,14.7874,1.5848,-0.1202,-0.2278,-0.532,93,12.396,239,3.0822,9.1776,-12.1547,-0.4219,1.1033,-0.1664,92,12.555,242,-3.0475,-0.4319,-0.2567,0.0342,0.9728,-0.6354,96,12.949,250,-0.9777,-3.8153,0.9113,0.5008,-0.1357,-0.5088,64
12.455,240,4.9395,11.1516,-1.896,-0.798,0.3276,0.2968,93,12.448,240,0.3376,3.166,-9.9947,-0.3058,0.6474,0.0686,92,12.607,243,0.4707,5.4597,-3.1136,-0.6283,0.7534,0.0775,96,13.001,251,-5.1864,-2.6611,-3.2982,0.7579,0.6119,0.1742,64
12.507,241,1.8752,10.1864,-2.6177,-1.2927,0.3834,0.9017,93,12.5,241,-0.3867,-0.103,-10.8181,-0.9046,0.5515,0.6232,92,12.659,244,-2.7332,0.7562,-4.8449,-0.6142,0.2747,-0.6393,96,13.053,252,-1.6835,-0.3982,0.0075,0.1501,-0.147,0.6897,64
12.559,242,1.7317,9.8729,-2.0473,-0.4092,-0.4308,0.4418,93,12.552,242,1.8101,2.4015,-10.0206,-1.0107,0.6182,1.1194,92,12.71,245,-5.297,-1.6913,-3.4538,0.2502,0.0376,-1.1131,96,13.104,253,-6.3607,-2.3849,0.6146,-0.5283,0.541,0.274,64
12.61,243,0.3739,11.7415,-2.4486,0.3428,-0.4981,0.1346,93,12.604,243,2.6837,4.2268,-7.8305,-1.417,0.7736,1.3735,92,12.762,246,-6.4261,-0.9579,-3.9718,0.881,0.4741,-0.1565,96,13.156,254,-6.0815,-3.1853,-0.7969,-0.6648,1.0366,-0.1874,64
12.662,244,2.8682,13.7339,-4.4234,-0.4,-1.2212,-0.1754,93,12.656,244,4.4615,3.2845,-6.5442,-1.7156,1.2445,0.7865,92,12.814,247,-5.3082,5.0757,0.7171,0.9861,-0.0346,0.5386,96,13.208,255,-7.9501,-5.2006,-3.6067,-0.9361,0.1627,0.6402,64
12.714,245,7.0773,11.9991,-6.0204,0.3102,-1.7421,-0.45,93,12.707,245,7.0153,4.62,-7.3057,-0.8466,1.5882,-0.1132,92,12.866,248,-5.622,9.4793,-1.9216,0.1535,-0.1767,-0.3027,96,13.26,256,-3.0545,1.4906,2.2693,0.0297,-0.5221,0.6662,64
12.766,246,10.1492,13.9154,-5.1959,0.8678,-2.1294,-0.7108,93,12.759,246,4.002,7.2552,-10.7755,0.0524,1.839,-0.7655,92,12.918,249,-2.6588,2.1839,3.796,-0.5413,0.4286,-0.5833,96,13.312,257,-10.0714,-2.3972,-4.031,0.3526,0.3298,1.2624,64
12.818,247,7.2049,14.8622,-1.2647,1.2748,-1.0602,-0.2856,93,12.811,247,2.8888,10.5111,-9.1033,0.0955,1.5543,0.0091,92,12.969,250,-9.8354,7.3688,7.969,-0.2947,0.0449,0.2302,96,13.363,258,-4.6027,-0.5648,-4.9008,0.8481,0.8584,0.3466,64
12.869,248,5.3471,14.4628,0.1246,0.5731,-0.2996,-0.0949,93,12.863,248,-2.9811,6.3152,-9.2698,-0.6117,1.8143,0.3303,92,13.021,251,-4.4834,0.6905,0.4257,-0.6432,-0.1746,0.5127,96,13.415,259,-2.8954,-1.6836,-9.2641,0.7996,0.9265,-0.3052,64
12.921,249,4.2746,13.2557,1.1763,0.4445,0.0943,-0.1161,93,12.915,249,-3.5771,6.2475,-9.2882,0.2239,1.1868,-0.1162,92,13.073,252,-0.5772,6.2788,-1.3064,-0.2304,0.0037,0.2708,96,13.467,260,-6.0976,-1.392,-8.9308,0.9551,0.1714,0.5387,64
12.973,250,4.7851,12.6866,1.0811,0.296,0.5627,-0.2916,93,12.966,250,-1.6124,2.3715,-11.0675,-0.518,0.5015,-0.204,92,13.125,253,-3.3104,5.6016,-1.9792,-0.1731,0.5123,-0.4659,96,13.519,261,-8.1253,-0.4735,-4.9949,0.775,0.1589,0.8865,64
13.025,251,2.9439,14.3379,-2.7079,-0.4942,0.9045,0.2083,93,13.018,251,0.9583,2.131,-12.1412,0.2914,0.0214,-0.1385,92,13.177,254,-2.1265,4.2266,-0.1867,0.19,-0.2318,-1.0359,96,13.571,262,-7.0768,0.0334,-2.5722,0.6654,0.0465,0.705,64
13.077,252,3.5511,13.3421,-4.1712,-1.071,0.6848,0.8371,93,13.07,252,2.1461,1.7733,-10.2554,-0.3555,-0.6473,0.3189,92,13.228,255,-5.5162,0.6324,-0.165,-0.5147,0.5768,-1.4297,96,13.622,263,-7.7281,-0.1046,0.4884,0.6056,0.3723,0.3493,64
13.128,253,7.1511,10.8263,-8.5632,-1.492,0.4642,0.8784,93,13.122,253,2.544,3.9828,-6.3479,-0.9409,-0.5924,0.2566,92,13.28,256,-6.7517,2.3526,0.8809,0.1635,0.2311,-0.4587,96,13.674,264,-8.6816,-1.1717,-5.3308,-0.0158,-0.3596,0.4528,64
13.18,254,10.2031,5.2477,-6.5756,-0.4957,-0.5191,-0.0256,93,13.174,254,-0.1462,8.1227,-7.0534,-0.0164,0.2475,0.0718,92,13.332,257,-2.8795,-3.097,-4.7475,0.8178,-0.2631,-0.5797,96,13.726,265,-5.1619,-2.4992,-6.8183,-0.1171,0.4485,1.1075,64
13.232,255,9.9442,6.0098,-1.5131,-0.2844,-0.4187,-0.6854,93,13.225,255,-0.5743,11.1443,-8.4026,-0.4752,-0.4912,0.4906,92,13.384,258,-3.5095,1.235,-8.8554,0.6046,0.3642,-0.0708,96,13.778,266,-1.0196,-4.8667,-3.3353,-0.1331,0.2874,0.3184,64
13.284,256,5.536,2.4954,1.1307,0.3302,-1.1635,-0.6924,93,13.277,256,-0.8174,7.2956,-7.3369,-1.0282,-1.0304,-0.3292,92,13.436,259,0.1335,-0.2739,-9.4341,-0.0137,-0.0444,0.6043,96,13.829,267,-2.7141,-4.2661,-6.5261,0.6167,0.6523,-0.0726,64
13.336,257,3.9464,5.403,1.2549,0.8825,-1.0453,-0.2699,93,13.329,257,1.9977,2.9301,-10.443,-0.5992,-0.9593,-0.9275,92,13.487,260,-0.927,0.9932,-7.4701,-0.033,-0.1131,-0.238,96,13.881,268,-3.506,-1.0581,-3.0433,0.597,-0.1003,0.6706,64
13.387,258,3.3871,8.247,-0.1839,0.0056,-0.8335,0.46,93,13.381,258,5.3433,-1.8498,-12.9697,-0.9154,-1.087,-0.3231,92,13.539,261,-1.9958,-0.2941,-5.1212,0.6744,-0.434,-0.8695,96,13.933,269,-5.2554,-0.4398,-1.5449,-0.1465,0.1197,0.5138,64
13.439,259,3.9006,9.1848,-1.6933,-0.7062,-0.3669,1.0208,93,13.433,259,6.0698,-0.9279,-9.3917,-0.611,-1.2377,0.4287,92,13.591,262,-4.9927,-0.4261,-2.2297,-0.1329,0.4252,-0.4311,96,13.985,270,-8.1368,-2.7182,-2.6436,-0.7378,0.7983,0.1986,64
13.491,260,5.2182,9.8544,-0.5525,-1.1918,-0.9214,0.9476,93,13.484,260,5.8694,4.5387,-4.2173,-1.1273,-0.6791,0.9774,92,13.643,263,-8.7477,1.3314,-0.4162,-0.7165,0.7544,0.3413,96,14.037,271,-10.4813,-5.3876,-3.33,-0.5256,0.4616,0.481,64
13.543,261,8.7923,12.689,-5.922,-0.7998,-1.0953,0.0249,93,13.536,261,3.8247,7.3439,-6.3391,-0.1933,0.1842,0.0313,92,13.695,264,-7.8394,6.7465,-5.6942,-0.1452,0.1479,-0.2172,96,14.088,272,-4.9018,0.7766,-8.1177,-0.6836,-0.304,-0.0941,64
13.594,262,11.401,6.6072,-9.5251,-1.294,-0.3055,-0.6485,93,13.588,262,-1.8151,10.5758,-6.1479,0.4138,-0.4256,-0.0071,92,13.746,265,-8.6797,4.5139,-3.9826,0.074,0.854,-0.8543,96,14.14,273,-11.4196,-3.1119,-11.6119,-0.5523,-0.0641,-0.2099,64
13.646,263,8.7274,7.1485,-7.6387,-0.303,-1.0809,-0.4226,93,13.64,263,-5.4504,10.8227,-2.9008,-0.3662,-0.0785,0.0817,92,13.798,266,-7.4193,7.245,-3.2336,0.1693,0.0175,-0.1272,96,14.192,274,-5.5867,0.7638,-8.6605,0.1229,0.6474,-0.7279,64
13.698,264,4.6864,4.7519,-5.4991,-0.3114,-0.295,-0.9751,93,13.692,264,-5.608,6.5842,-6.7189,0.1601,-0.3836,-0.4528,92,13.85,267,-7.3778,4.8707,-1.5575,0.3383,0.7588,0.5631,96,14.244,275,-2.9683,-4.7453,-12.0081,0.5468,1.0256,-0.8852,64
13.75,265,1.6692,6.2945,-4.4024,0.4142,-0.8822,-0.3658,93,13.743,265,-2.5946,3.2917,-10.0967,-0.0784,-0.9518,-0.8911,92,13.902,268,-7.7222,8.2049,-1.7561,0.1422,1.2514,0.9131,96,14.296,276,-3.3319,-1.4723,-9.4985,0.1461,0.1077,0.0017,64
13.802,266,6.2022,12.5279,-1.368,0.9437,-1.5018,-0.2751,93,13.795,266,0.3364,3.3532,-8.9602,0.5942,-1.3619,-0.6222,92,13.954,269,-8.0768,6.1387,-2.6541,-0.165,0.5625,-0.0294,96,14.347,277,-5.1476,-0.9782,-4.4535,0.2925,0.1392,0.7782,64
13.854,267,3.7711,13.9104,-2.5716,-0.0215,-0.8605,-0.7059,93,13.847,267,1.0475,3.7822,-6.2625,-0.2354,-1.2157,-0.2028,92,14.006,270,-5.2578,1.0782,-1.3407,-0.2327,0.4031,-0.7047,96,14.399,278,-7.6048,-0.393,-2.8925,-0.3248,0.1937,0.6537,64
13.905,268,6.6945,15.6081,-3.5197,0.0622,-0.6754,-1.1819,93,13.899,268,1.8692,6.0996,-3.9454,-0.8533,-0.2438,0.0227,92,14.057,271,-11.0928,-2.1431,0.8016,-0.5297,1.0402,-0.9107,96,14.451,279,-9.0432,-5.5896,-7.7984,-0.8518,-0.2217,1.0014,64
13.957,269,9.8699,13.7524,-8.0876,-0.6623,-0.2024,-1.414,93,13.951,269,-2.5272,6.6858,-5.1336,-0.591,0.502,0.3534,92,14.109,272,-10.3226,-1.5299,-2.6023,0.3118,0.1535,-0.9782,96,14.503,280,-9.334,-4.3698,-11.3789,-1.1381,0.5491,1.5079,64
14.009,270,12.1604,14.7241,-8.0127,0.1581,-0.9658,-1.3333,93,14.003,270,-3.2835,10.0955,-1.1096,-0.0004,-0.3055,0.9225,92,14.161,273,-7.9555,2.658,-7.2898,0.565,0.858,-0.4126,96,14.555,281,-4.0645,-3.3518,-4.8688,-0.1339,-0.2401,0.5258,64
14.061,271,10.3034,12.535,-3.1075,-0.2124,-0.4642,-0.3049,93,14.055,271,-4.2985,3.555,-0.7864,-0.6817,0.0238,0.9917,92,14.213,274,-6.3227,2.6125,-6.9266,-0.0189,0.0205,-0.5082,96,14.607,282,-6.2759,-6.8566,-9.2407,-0.1865,0.5357,-0.0773,64
14.113,272,8.8053,12.5306,-0.661,-0.005,-0.9804,-0.4972,93,14.106,272,-4.6632,3.0832,-4.0398,0.1728,0.6973,0.8047,92,14.265,275,-6.7144,7.6816,-3.6899,0.6148,0.6241,-0.4553,96,14.659,283,-6.1479,-4.5169,-8.4883,0.1507,-0.2499,0.72,64
14.164,273,7.5005,14.9152,-2.2258,0.6378,-0.2217,-1.0251,93,14.158,273,-2.1259,6.6109,-7.2667,0.7965,1.1888,0.2526,92,14.316,276,-7.5661,6.073,-3.6192,0.0432,-0.1485,-0.9696,96,14.71,284,-6.0685,-4.2207,-6.1523,-0.3613,-0.8233,1.3025,64
14.216,274,6.6743,16.2793,-5.0807,-0.2448,0.3321,-0.7818,93,14.21,274,1.1601,7.3679,-9.2824,0.396,0.7864,-0.5029,92,14.368,277,-6.676,3.899,-2.6107,-0.3303,-0.1378,-1.3268,96,14.762,285,-5.1776,-2.9446,-3.1108,0.1397,-1.2394,1.7276,64
14.268,275,3.2823,16.9577,-7.4959,-0.889,0.4126,-0.3515,93,14.262,275,0.249,7.5276,-8.7623,-0.3924,0.3737,-1.0543,92,14.42,278,-6.2135,1.2424,1.5278,-0.3321,-0.0543,-1.6321,96,14.814,286,-10.4515,-0.8072,-1.5232,-0.2316,-0.1937,1.7016,64
14.32,276,3.4618,13.6858,-10.6182,-0.7373,0.795,-0.9232,93,14.314,276,0.4951,2.7481,-8.4333,-0.9678,0.9391,-1.4567,92,14.472,279,-6.1154,6.6816,-4.2754,0.1181,-0.3313,-0.9698,96,14.866,287,-4.8801,0.0826,-6.799,0.2527,-0.7822,0.6672,64
14.371,277,5.3312,9.5488,-13.2684,0.1033,-0.2776,-1.3405,93,14.365,277,-2.7168,-0.3709,-5.9762,-0.036,0.5314,-0.4377,92,14.524,280,-4.0718,6.2182,-2.3605,0.5308,-0.7637,-1.4034,96,14.918,288,-2.4293,0.4533,-8.9163,0.7774,-0.5327,-0.0621,64
14.423,278,7.5752,14.7975,-12.8831,0.6309,0.2912,-0.2933,93,14.417,278,0.1399,-0.8068,-9.5167,0.6441,0.2548,0.3451,92,14.575,281,-0.2768,-0.2758,-1.506,-0.0667,-1.1631,-0.7647,96,14.969,289,-0.0955,0.7205,-7.2245,0.8231,0.3221,-0.5531,64
14.475,279,5.1533,14.0944,-9.2744,-0.1722,0.7064,0.471,93,14.469,279,1.9693,4.6271,-11.317,-0.2113,-0.3645,0.9164,92,14.627,282,-2.0586,1.2242,-4.7478,0.0216,-0.1675,0.0912,96,15.021,290,-3.0228,0.1533,-7.4649,0.7392,0.576,-0.1907,64
14.527,280,3.7977,13.6851,-12.2877,0.5157,0.3215,-0.3218,93,14.521,280,-0.984,6.3529,-9.8743,-0.3108,-0.9353,1.3333,92,14.679,283,-4.4475,2.0494,-5.3261,0.4969,-0.0633,-0.1245,96,15.073,291,-4.7655,0.946,-3.117,1.2534,0.8692,-0.2582,64
14.579,281,0.5487,14.1612,-9.2077,0.9958,0.6603,-0.5345,93,14.573,281,-0.4269,5.3434,-7.3862,-0.9082,-1.3545,1.6376,92,14.731,284,-6.4958,-0.1025,-3.9688,0.247,0.6173,0.2608,96,15.125,292,-4.8458,0.9558,-1.9216,0.9405,0.7582,-0.7632,64
14.63,282,5.3844,9.723,-5.8076,0.3061,0.6924,-0.7277,93,14.624,282,-0.3295,2.275,-5.9082,-1.3443,-1.6084,1.8597,92,14.783,285,-7.1338,1.2264,-3.1896,0.5666,0.7807,0.8463,96,15.176,293,-6.5941,-0.5157,-2.7662,0.653,0.6318,-0.5597,64
14.682,283,7.2371,7.8887,-5.0277,-0.1419,0.9992,0.1496,93,14.676,283,4.837,-3.7113,-6.6103,-0.5818,-1.102,2.0218,92,14.834,286,-8.1003,4.2348,-3.4511,0.8798,0.7822,-0.0044,96,15.228,294,-6.8092,-5.6791,-7.7062,-0.1613,-0.1214,0.3685,64
14.734,284,8.0184,3.1037,-2.0008,-0.424,1.1171,0.0836,93,14.728,284,8.7461,2.5073,-7.9519,0.1522,-1.3115,2.1401,92,14.886,287,-3.217,-1.7233,-2.2684,1.3405,0.0347,-0.4288,96,15.28,295,-2.2218,-5.0145,-2.4721,0.3799,-0.1185,0.8739,64
14.786,285,7.9304,6.5755,-1.3891,-0.5215,0.5045,0.7461,93,14.78,285,11.5992,7.0459,-8.3593,0.7815,-1.3965,1.99,92,14.938,288,-2.1109,0.7555,-5.0552,1.4709,-0.4826,-0.2428,96,15.332,296,1.1263,-4.6719,-2.9689,0.5127,0.6244,0.1563,64
14.838,286,9.024,12.733,0.6905,-0.2646,0.1006,0.5254,93,14.832,286,8.1026,8.1448,-6.9512,-0.1081,-1.691,1.8588,92,14.99,289,1.1543,-3.2848,-4.3461,1.03,0.1823,0.4787,96,15.384,297,0.588,-6.4259,-5.3254,1.0827,1.042,-0.4231,64
14.889,287,3.5596,13.8179,0.0569,-0.9034,0.5673,0.5975,93,14.883,287,3.2662,5.3536,-5.8852,0.3932,-1.7572,1.5062,92,15.042,290,-1.283,-0.7768,-3.3353,0.1059,0.6307,0.663,96,15.435,298,-3.134,-3.5407,-4.8226,1.0426,0.293,0.2873,64
14.941,288,4.9951,12.607,-1.5775,-0.5283,0.0224,-0.2306,93,14.935,288,1.7588,5.0699,-6.6287,0.2857,-1.319,1.2352,92,15.093,291,-3.3703,-0.9147,-2.4815,-0.0881,-0.041,-0.2118,96,15.487,299,-3.5081,-3.7675,-3.8851,0.5429,-0.2361,0.9236,64
14.993,289,3.5211,12.8171,-3.5296,-0.6569,-0.0359,-0.835,93,14.987,289,3.4133,4.427,-8.4948,0.1747,-1.285,0.9198,92,15.145,292,-4.4946,0.5711,-0.929,0.5125,-0.195,-0.8504,96,15.539,300,-5.1802,-1.9673,-1.6664,0.5017,-0.5066,1.1244,64
15.045,290,6.5104,11.62,-4.1223,-1.1897,-0.8841,-1.1734,93,15.039,290,3.6862,0.3935,-7.8987,-0.1082,-1.5317,0.9693,92,15.197,293,-7.4029,-1.5667,1.2718,0.1494,0.5055,-1.3158,96,15.591,301,-9.2979,-0.5948,0.0283,1.0781,0.2267,0.5702,64
15.096,291,9.7355,8.425,-3.3375,-1.4919,-1.5031,-1.4404,93,15.091,291,4.4764,1.0472,-7.9719,0.3496,-1.6701,0.3705,92,15.249,294,-4.9943,4.6314,-4.4622,0.6929,1.1149,-0.3756,96,15.642,302,-4.0382,-5.7369,-5.6667,1.1628,-0.4754,-0.0718,64
15.148,292,12.0893,3.4952,-7.089,-1.7992,-0.6032,-0.3662,93,15.143,292,8.4829,-0.976,-13.7687,0.6087,-1.8702,0.5016,92,15.301,295,-0.9501,9.1551,0.5863,0.2582,0.2979,0.2621,96,15.694,303,-3.9839,-4.8659,-9.8231,1.0006,0.3437,-0.3567,64
15.2,293,9.56,-0.1028,-6.8278,-2.0135,-0.528,0.3092,93,15.194,293,11.4071,-3.8139,-10.6311,0.7217,-1.0595,0.2793,92,15.353,296,0.5228,7.3238,-1.8058,0.3477,0.2979,0.7889,96,15.746,304,-0.1598,-4.4081,-5.8909,1.3841,0.9246,-0.8351,64
15.252,294,3.6092,4.6947,-4.9968,-0.8281,0.1085,-0.3263,93,15.246,294,7.9494,-2.785,-9.8772,-0.0889,-0.6258,-0.0066,92,15.405,297,1.3956,6.6821,-0.8132,0.2757,0.9634,1.2317,96,15.798,305,-1.7314,-2.6679,-6.9915,1.6794,1.3062,-0.1918,64
15.304,295,0.4829,8.5365,-4.571,-1.3026,-0.7523,-0.9048,93,15.298,295,3.4597,-3.0121,-9.9095,-0.4695,-0.3691,-0.196,92,15.456,298,-2.3122,7.9343,-3.9451,-0.0602,1.4491,0.6226,96,15.85,306,-0.5655,-1.2569,-5.5884,0.5878,0.3125,0.5434,64
15.356,296,1.395,10.2345,-5.5926,-1.661,-0.4224,-1.3271,93,15.35,296,1.5895,-2.5859,-10.2386,-0.3293,-0.2317,-0.2153,92,15.508,299,-3.9425,3.9942,-3.3966,-0.6972,0.5018,-0.2414,96,15.901,307,-3.6565,-1.9659,-2.9005,-0.2086,-0.2177,0.9819,64
15.407,297,3.2129,10.0643,-7.189,-1.9225,-1.0347,-1.5462,93,15.402,297,2.2573,-2.6108,-10.7718,0.0699,-0.0648,-0.3492,92,15.56,300,-5.9644,3.3189,-1.6656,-0.297,0.8189,-0.4357,96,15.953,308,-6.8867,-1.6751,-1.0966,0.5617,-0.0286,0.4119,64
15.459,298,3.1331,8.9209,-7.8559,-2.1135,-1.6131,-1.1391,93,15.453,298,0.2408,-1.5782,-10.8033,0.4891,0.289,-0.1306,92,15.612,301,-7.4794,2.2249,-1.0091,-0.2873,1.2176,-0.0219,96,16.005,309,-8.1961,-3.7345,-0.5885,1.0254,0.4441,-0.14,64
15.511,299,7.2706,4.163,-2.6589,-2.0179,-2.033,-0.1739,93,15.505,299,1.2391,1.5268,-14.7321,0.8672,-0.1096,0.4001,92,15.664,302,-7.1614,7.3987,-5.7134,0.3716,0.2829,-0.7085,96,16.057,310,-3.2341,-8.0283,-6.1168,1.1562,-0.0913,-0.3417,64
15.563,300,10.2903,6.9248,-4.0372,-1.088,-1.4249,-0.1232,93,15.557,300,6.1202,1.738,-18.3558,-0.0485,-0.1924,0.3668,92,15.715,303,-7.7732,5.346,-8.2156,0.6907,-0.1116,-0.7879,96,16.109,311,0.3875,-7.6552,-2.8517,0.9622,-0.2403,-0.7471,64
15.615,301,5.5111,9.4265,-3.961,-1.1211,-0.5461,-0.4488,93,15.609,301,1.1775,-2.6737,-17.5289,0.1468,0.5394,0.0423,92,15.767,304,-2.9783,3.5104,-7.9913,-0.1492,-0.3708,0.0809,96,16.16,312,-2.1987,-4.7692,-3.3061,0.8602,0.5355,-0.9565,64
15.666,302,-1.0441,6.968,-1.9615,-0.9182,-1.0161,-0.403,93,15.661,302,-1.1601,-2.201,-15.1564,0.6379,0.9089,-0.0714,92,15.819,305,-0.1814,8.3369,-7.8661,-0.7622,-0.2249,0.3812,96,16.212,313,-5.4993,-4.7763,-4.3169,1.2212,1.0076,-0.182,64
15.718,303,0.0712,6.8497,-2.6529,-0.1113,-1.5995,-0.3428,93,15.712,303,-0.9559,-0.0144,-12.6444,0.57,0.9275,-0.0756,92,15.871,306,-3.3795,6.3196,-7.6315,-1.2096,0.3962,-0.3441,96,16.264,314,-3.6571,-1.7696,-3.3384,0.2926,0.0945,0.6441,64
15.77,304,0.1114,9.1975,-2.3668,0.4707,-1.1711,-0.8347,93,15.764,304,0.7734,1.0359,-9.0726,-0.2654,1.1906,0.2638,92,15.923,307,-3.9766,3.6688,-6.494,-0.2606,-0.3151,-0.947,96,16.316,315,-4.3088,-2.402,-2.4166,-0.1906,-0.4615,1.2471,64
15.822,305,0.3317,8.8137,-2.5591,0.0386,-0.9686,-0.6989,93,15.816,305,1.7957,-3.9951,-9.297,0.1614,1.5488,0.8571,92,15.974,308,-5.2626,3.2322,-3.0873,0.5082,-0.3547,-1.387,96,16.367,316,-7.3773,-0.9135,1.0064,0.574,-0.031,1.6872,64
15.873,306,-0.5582,8.9122,-3.1162,-0.0221,-1.1488,0.1516,93,15.868,306,6.5265,-1.3016,-12.7607,-0.29,1.8103,1.2449,92,16.026,309,-5.4981,8.1339,-7.6437,0.7316,-0.5225,-0.3571,96,16.419,317,-2.6364,4.6195,5.6362,0.7949,-0.6635,0.9121,64
15.925,307,4.5765,14.4384,-7.7932,0.6253,-0.4643,-0.3294,93,15.92,307,9.9792,-0.5443,-10.504,-0.6456,1.8658,0.6698,92,16.078,310,-5.9241,5.9225,-10.9692,0.9429,0.0268,-0.7323,96,16.471,318,-8.5828,-0.3892,-1.5738,0.0866,0.2266,0.3785,64
15.977,308,3.4682,16.0298,-7.7222,0.4584,0.1452,-0.0497,93,15.971,308,11.6977,-2.7737,-8.4965,-0.2062,1.4139,-0.1984,92,16.13,311,-6.3427,7.8604,-6.6664,0.483,-0.4574,0.1166,96,16.523,319,-3.5162,-1.1814,-1.9398,0.6479,0.6942,-0.2985,64
16.029,309,-0.2007,11.0956,-4.4694,-0.3758,0.5998,-0.2465,93,16.023,309,7.6264,-2.49,-8.9489,0.5199,0.6837,-0.7805,92,16.182,312,-2.6741,2.651,-10.027,0.5009,0.0858,0.4905,96,16.575,320,-3.2644,-1.2118,-6.88,1.0811,1.2044,-0.5983,64
16.081,310,0.1281,8.8082,-2.182,0.3672,-0.0535,0.1012,93,16.075,310,5.4052,-1.171,-9.3072,0.025,-0.0222,-1.0288,92,16.233,313,-4.5389,5.4814,-9.1745,-0.2878,0.8087,0.6106,96,16.626,321,-6.2102,-1.047,-7.1007,0.4643,0.3418,-0.0018,64
16.132,311,-0.048,9.379,-1.2579,0.9094,0.2976,-0.4101,93,16.127,311,4.7913,-1.0828,-9.6793,-0.6622,-0.2969,-1.0112,92,16.285,314,-6.4665,3.8258,-9.1348,-0.8633,0.6435,0.0845,96,16.678,322,-4.4848,-0.5578,-4.5277,-0.2926,-0.3914,0.7027,64
16.184,312,-0.4062,11.4047,0.0065,1.3052,0.1848,-0.9492,93,16.179,312,4.2898,-1.4813,-9.0467,-1.1647,-0.8519,-1.0689,92,16.337,315,-7.3865,1.8096,-6.4761,-0.9929,0.5807,-0.1436,96,16.73,323,-6.8003,-0.8444,-2.8227,0.1175,-0.4157,0.5117,64
16.236,313,4.384,12.3107,-4.6115,0.2423,-0.723,-0.6044,93,16.231,313,3.5952,-5.2581,-9.546,-0.2613,-0.5053,-0.9696,92,16.389,316,-9.2877,-0.2272,-4.7332,-0.2093,0.5144,-0.0021,96,16.782,324,-8.8456,-0.953,0.6861,0.4536,0.0575,0.1703,64
16.288,314,8.1835,10.9357,-8.8845,-0.5335,-0.2455,0.244,93,16.283,314,6.4661,-4.9832,-9.4133,0.4326,-0.2908,-0.56,92,16.441,317,-8.2515,5.609,-7.1034,-0.3264,0.543,0.6505,96,16.833,325,-3.7081,3.9921,5.4024,0.707,-0.5979,0.4158,64
16.34,315,9.4014,9.6046,-6.4055,-0.1395,-0.9177,-0.134,93,16.334,315,9.9351,1.579,-11.0926,0.5932,0.2758,0.2527,92,16.492,318,-8.7424,-0.7204,-0.6567,-0.8915,1.1423,-0.086,96,16.885,326,-3.6792,-0.374,-0.5451,0.4444,-0.4045,-0.2385,64
16.391,316,5.5576,11.4266,-1.9457,0.5245,-0.8584,-0.0793,93,16.386,316,10.8056,-1.5596,-10.7695,-0.0467,-0.0672,-0.1473,92,16.544,319,-7.1819,1.3427,0.8305,-0.1655,0.228,0.5702,96,16.937,327,-1.0101,-0.6549,0.6186,0.8624,0.4157,-0.7488,64
16.443,317,3.1333,11.4238,-1.3071,-0.3275,-1.0267,-0.3612,93,16.438,317,7.1408,0.1065,-8.7686,0.6363,0.1936,-0.4388,92,16.596,320,-6.6666,1.1006,1.9364,0.0818,0.9124,1.0185,96,16.989,328,-1.4868,-2.3192,-3.8623,1.3433,0.9853,-1.0093,64
16.495,318,3.4574,9.8306,-2.0767,-0.2149,-0.4682,-0.8048,93,16.49,318,3.4428,-0.2259,-8.6887,-0.2014,-0.1539,0.0024,92,16.648,321,-7.7408,3.2537,-0.9535,0.1912,1.4119,0.3743,96,17.04,329,-2.1385,-1.8963,-4.1125,0.6955,0.0782,-0.0935,64
16.547,319,1.9313,10.2239,-2.2507,0.4846,0.1522,-0.8651,93,16.542,319,2.9387,0.8723,-8.7767,-0.2301,-0.3023,0.1638,92,16.7,322,-7.8077,2.3656,-0.9955,0.0525,0.4247,-0.4227,96,17.092,330,-4.1109,-1.3932,-3.0362,-0.1297,-0.3587,0.705,64
16.598,320,1.6791,11.4552,-2.5033,0.1903,-0.7468,-1.0107,93,16.593,320,3.829,-0.1856,-9.1959,-0.2607,-0.2604,-0.0183,92,16.752,323,-8.3492,1.3108,0.2378,0.2982,0.7067,-0.9776,96,17.144,331,-5.5707,-2.0198,-1.2361,-0.3113,-0.5275,1.1156,64
16.65,321,2.872,13.4965,-4.2093,-0.5714,-1.2499,-0.5184,93,16.645,321,3.7868,0.2905,-10.0661,0.4801,0.0967,-0.6521,92,16.803,324,-10.6615,-0.3364,0.919,0.4456,1.0342,-1.1906,96,17.196,332,-7.4894,-6.7768,-6.5894,-0.37,-0.291,1.02,64
16.702,322,7.08,13.9858,-8.591,-1.1274,-0.4184,0.3067,93,16.697,322,7.9796,0.9361,-11.5506,1.0207,-0.0557,-1.1632,92,16.855,325,-11.8016,4.4126,5.8692,1.0236,0.5639,-1.4488,96,17.247,333,-2.7183,-5.8299,0.0924,-0.1284,0.1606,1.3884,64
16.754,323,10.1512,7.7576,-7.7883,-1.5331,-1.1632,-0.1827,93,16.749,323,11.0398,5.8991,-11.0616,0.0636,-0.4032,-0.1844,92,16.907,326,-10.3554,5.269,1.1045,0.9632,0.1723,-1.0487,96,17.299,334,-3.6014,-4.834,-2.5121,0.0572,0.0287,0.4976,64
16.806,324,8.447,3.5823,-0.6154,-0.5414,-0.7677,-0.4752,93,16.801,324,7.3098,4.3717,-10.2858,-0.635,-0.2324,-0.6429,92,16.959,327,-4.8628,0.5348,2.0712,0.2597,-0.3521,-0.1094,96,17.351,335,-3.3305,-3.1418,-3.6953,0.1103,0.7318,-0.2116,64
16.857,325,3.9334,6.6982,-1.4245,-0.3829,-0.0664,-0.2706,93,16.853,325,5.6014,-0.2794,-10.5331,-0.2227,-0.4279,-0.9361,92,17.011,328,-1.4001,6.1652,-2.1481,-0.3858,-0.0049,0.5722,96,17.403,336,-7.5612,-2.1222,-4.5929,0.3743,1.245,0.4553,64
16.909,326,3.4399,7.1666,-1.574,-0.0654,-0.4083,-0.1004,93,16.904,326,4.1172,-0.0884,-11.5521,0.4431,-0.1465,-0.6273,92,17.062,329,-5.2785,6.1038,-1.1308,-0.8069,0.7424,-0.1549,96,17.455,337,-4.4239,-1.3957,-1.2067,0.1528,0.2678,1.0755,64
16.961,327,1.2913,8.1446,-1.7531,0.5938,-0.7124,-0.7399,93,16.956,327,2.9609,0.1637,-11.2682,-0.005,-0.3095,-0.2001,92,17.114,330,-4.1933,4.8628,1.2525,-0.4009,-0.0639,-0.8089,96,17.507,338,-6.4515,-1.0191,0.4177,-0.0619,-0.0042,1.3458,64
17.013,328,3.3661,13.8782,-2.4252,1.0748,-1.3778,-1.2067,93,17.008,328,2.4842,-0.877,-11.3116,0.5913,-0.3138,0.138,92,17.166,331,-4.574,2.9134,1.8588,0.0256,-0.1985,-1.2862,96,17.558,339,-8.1496,-0.2524,1.1925,-0.1493,0.5099,1.3398,64
17.065,329,5.8868,16.2656,-7.2431,0.0741,-1.7987,-1.1214,93,17.06,329,2.7028,0.4422,-11.6393,-0.2413,-0.7049,0.2659,92,17.218,332,-7.2136,1.2904,2.7957,0.2247,0.4189,-1.5378,96,17.61,340,-8.9372,-2.0713,-2.9955,-0.7304,1.083,0.5144,64
17.116,330,9.2803,13.6797,-10.8052,0.5507,-0.8429,-1.2057,93,17.112,330,7.1883,-0.8607,-13.9147,-0.4021,-1.1863,0.8144,92,17.269,333,-5.3561,6.7167,-3.35,0.5245,0.0379,-0.594,96,17.662,341,-6.5888,-3.0593,-2.3376,-0.6374,1.4284,1.1524,64
17.168,331,9.0416,15.8605,-8.3272,0.0626,-1.4731,-0.1949,93,17.163,331,10.4622,4.5878,-16.6062,-0.2291,-0.2291,1.1026,92,17.321,334,-3.8667,5.5687,-1.6722,-0.0464,0.7734,-0.7277,96,17.714,342,-2.5321,-3.9944,-2.3935,-0.5997,0.4079,0.2894,64
17.22,332,4.4364,14.4339,-3.9826,-0.5467,-1.8399,0.5428,93,17.215,332,9.5563,2.662,-14.9661,-0.8486,0.2111,0.5018,92,17.373,335,-2.565,5.6645,-1.2888,0.3764,0.6398,0.0157,96,17.765,343,-2.0791,-2.5214,-2.2979,0.1353,1.0086,-0.3636,64
17.272,333,2.5233,13.9114,-2.5467,-0.2052,-1.0085,0.285,93,17.267,333,4.6616,0.3644,-13.2738,-0.7836,0.4107,-0.1749,92,17.425,336,-1.4697,6.2958,-1.6508,0.5061,0.8824,0.6674,96,17.817,344,-4.7762,-1.7638,-4.2347,0.8127,1.139,-0.1504,64
17.324,334,2.0264,11.8685,-2.3057,0.1379,-0.8633,0.0852,93,17.319,334,3.2129,-2.2019,-13.134,-0.6877,0.196,-0.0148,92,17.477,337,-3.6655,6.0999,-3.5894,0.3601,1.3474,0.7103,96,17.869,345,-3.0982,-0.5378,-2.7621,0.4013,0.1905,0.619,64
17.375,335,1.3119,11.4079,-3.0394,-0.4606,-0.8895,0.7198,93,17.371,335,3.3249,-0.6403,-12.6505,-0.023,0.1874,0.0949,92,17.528,338,-5.128,4.8256,-2.9552,-0.3905,0.7152,-0.0319,96,17.921,346,-5.2723,-1.6925,-1.6404,-0.3449,-0.2475,1.2288,64
17.427,336,3.6029,10.9064,-2.2342,-0.4889,-1.049,0.7485,93,17.422,336,2.4028,-0.0245,-11.4744,0.4509,0.2568,0.0762,92,17.58,339,-3.889,2.4223,-0.068,-0.9383,0.0019,-0.2669,96,17.973,347,-7.5221,-0.8414,0.5941,-0.0473,-0.1548,1.5187,64
17.479,337,4.7826,9.1352,-6.7167,-0.6429,-1.3341,1.2264,93,17.474,337,2.375,0.1875,-11.4552,-0.0587,0.0118,0.2822,92,17.632,340,-5.8624,1.2537,2.2158,-0.7984,0.3613,-0.5617,96,18.024,348,-8.0385,-5.9168,-5.2537,-0.0902,0.5979,0.6054,64
17.531,338,8.4744,7.0264,-9.1701,0.1697,-0.8165,0.8477,93,17.526,338,5.2695,0.4019,-12.807,-0.2962,-0.5397,0.6301,92,17.684,341,-1.5837,6.6899,-3.7733,-1.236,1.0097,-0.092,96,18.076,349,-3.119,-3.3655,1.0673,0.5552,0.8093,0.882,64
17.583,339,10.273,8.0522,-8.1822,-0.0679,-0.2467,0.483,93,17.578,339,9.0618,5.5093,-15.3543,-0.1543,0.0282,1.0641,92,17.736,342,-3.1973,6.2095,-1.046,-1.4923,1.1899,-0.6191,96,18.128,350,0.4715,-5.4435,1.413,0.1617,-0.0502,0.0746,64
17.634,340,4.6925,10.4005,-5.453,0.5031,0.3138,0.6188,93,17.63,340,7.8939,3.5312,-13.6147,-0.7803,0.1047,0.2599,92,17.788,343,-4.5033,6.0709,1.0276,-0.8038,0.4855,0.1203,96,18.18,351,-0.9657,-4.0203,2.0187,0.3681,0.6743,-0.5203,64
17.686,341,2.8915,9.9562,-4.9539,0.0118,-0.3413,0.5049,93,17.681,341,4.4548,1.5389,-13.266,-0.8425,-0.1136,-0.235,92,17.839,344,-3.9676,4.1751,2.0585,-0.5582,1.1004,0.6995,96,18.232,352,-2.152,-3.9273,-2.9547,0.9826,1.1009,-0.6517,64
17.738,342,0.3673,10.1548,-5.5081,0.5613,0.1311,-0.0853,93,17.733,342,2.1733,0.8423,-13.3988,-0.5628,-0.1431,-0.0825,92,17.891,345,-5.7739,5.5861,-0.2541,0.2747,1.5249,0.1252,96,18.283,353,-2.0823,-1.9383,-1.7664,1.431,0.1626,0.0443,64
17.79,343,0.1707,12.1125,-6.264,1.0511,-0.7622,-0.7289,93,17.785,343,0.6149,0.3109,-12.7636,-0.4912,-0.0878,0.0399,92,17.943,346,-5.8764,4.6403,-0.3453,0.5251,0.5179,-0.6045,96,18.335,354,-4.0295,-2.9657,-1.3251,0.4688,-0.472,0.7854,64
17.842,344,-0.2684,13.7834,-6.1384,0.5658,-1.4141,-1.1128,93,17.837,344,0.8891,0.4306,-11.9963,0.3119,-0.0618,-0.2495,92,17.995,347,-6.4145,3.7294,-0.1487,0.7364,0.2969,-1.137,96,18.387,355,-4.7984,-2.1697,-0.5082,0.0948,-0.9294,1.3502,64
17.893,345,3.0409,8.0668,-9.9989,-0.2973,-1.89,-0.1271,93,17.889,345,2.4681,1.7335,-10.9528,0.2639,-0.2554,-0.067,92,18.046,348,-8.2359,0.5317,2.4318,-0.0784,0.7165,-1.5257,96,18.439,356,-9.581,-6.1128,-6.0582,-0.5586,-0.0295,1.4847,64
17.945,346,7.2033,11.2397,-12.8165,0.388,-1.2345,0.0082,93,17.94,346,7.0172,2.0749,-15.3525,-0.4888,-0.7644,0.6156,92,18.098,349,-10.9725,2.1452,6.9733,0.6412,0.7646,-0.4905,96,18.49,357,-4.2448,-7.3427,-2.3784,0.073,0.3515,1.6217,64
17.997,347,6.8296,13.8571,-11.0374,0.5145,-0.4071,-0.0988,93,17.992,347,10.3373,0.46,-12.0585,-1.0382,-0.4391,0.3489,92,18.15,350,-9.4534,4.129,0.6483,0.4677,0.7059,-0.7041,96,18.542,358,-2.8525,-5.6726,-3.6907,0.1965,0.709,0.9065,64
18.048,348,1.7308,12.5868,-6.9215,-0.1963,0.1968,-0.1469,93,18.044,348,6.8737,1.1202,-12.0009,-0.8267,0.3594,-0.3775,92,18.202,351,-4.3369,3.5091,1.3007,-0.2527,0.2501,-0.055,96,18.594,359,-2.0292,-2.8892,-4.1964,0.2368,1.2283,0.0874,64
18.1,349,-0.4264,11.6599,-4.7544,0.0948,-0.7143,-0.1222,93,18.096,349,2.7724,1.2158,-12.1616,-1.2848,0.3218,-0.9574,92,18.254,352,-3.3862,6.6775,-3.6743,-0.7648,0.9238,0.6036,96,18.646,360,-4.8656,-1.8697,-5.0084,0.8325,1.539,-0.0691,64
18.153,350,1.4811,10.036,-3.4301,0.6352,-1.0693,-0.0856,93,18.148,350,3.2241,-0.6817,-12.537,-1.0745,0.0545,-0.7732,92,18.306,353,-7.3351,5.9458,-2.1171,-1.2115,1.4109,0.14,96,18.698,361,-3.5737,-0.7256,-0.5939,-0.0264,0.4824,0.4607,64
18.204,351,0.7376,9.6445,-2.8367,1.0638,-0.9291,-0.2584,93,18.2,351,2.3073,-0.5911,-12.4179,-0.3258,0.3468,-0.7876,92,18.357,354,-6.8959,1.742,2.2354,-1.249,0.424,-0.5937,96,18.749,362,-4.8351,-1.9209,0.7833,-0.1747,0.393,0.7359,64
18.256,352,0.5022,9.3,-3.8085,0.8453,-0.6728,0.1065,93,18.251,352,2.1943,-0.8359,-11.6375,0.0486,0.1986,-0.4525,92,18.409,355,-7.619,0.5145,0.6964,-1.4509,1.0555,-0.2131,96,18.801,363,-6.5692,-0.9283,0.8188,0.1673,0.54,0.0294,64
18.308,353,5.3504,14.7215,-8.2985,0.7112,-1.3489,0.3245,93,18.303,353,2.2585,-0.4614,-11.1283,0.4906,-0.0009,0.0523,92,18.461,356,-8.3236,-0.7013,0.1505,-1.0592,0.1646,0.0415,96,18.853,364,-6.3606,-5.9802,-5.0897,-0.4062,1.0954,-0.5223,64
18.36,354,8.8889,11.7789,-11.5337,-0.1913,-0.7698,0.9219,93,18.355,354,6.8642,2.8987,-15.7644,1.0284,-0.6725,0.3825,92,18.513,357,-7.3661,1.9657,-2.6897,-0.0788,0.3614,-0.6655,96,18.905,365,-2.364,-5.9074,-9.4019,-0.5445,1.2005,0.3901,64
18.411,355,8.3716,11.6313,-9.3481,0.5019,-0.5459,0.2114,93,18.407,355,10.2257,4.1916,-10.9707,1.4209,0.1891,0.1903,92,18.565,358,-8.0603,1.0241,-1.6172,-0.6728,-0.0038,-0.9826,96,18.957,366,1.0225,-6.0585,-4.271,-0.1186,0.2355,-0.29,64
18.463,356,1.4794,12.2027,-5.1542,-0.344,0.0955,0.64,93,18.459,356,5.4297,2.4306,-10.2809,0.5082,0.6804,0.1836,92,18.616,359,-3.1878,-0.7808,-4.9928,-1.1443,-0.4338,-0.0612,96,19.008,367,-2.8219,-5.1671,-5.3688,0.3954,0.8828,-0.5475,64
18.515,357,0.1216,11.5962,-6.4009,-0.6232,-0.7882,0.7761,93,18.511,357,5.027,0.7653,-12.4905,-0.3105,0.1514,0.414,92,18.668,360,-4.2501,3.3211,-8.4809,-0.9172,0.1237,0.1551,96,19.06,368,-4.962,-3.0861,-4.8082,0.2926,0.0599,0.1375,64
18.567,358,-0.8781,11.0492,-5.9901,-0.1262,-0.1857,0.5466,93,18.562,358,2.4734,-1.0258,-11.7859,0.2576,0.3024,0.2185,92,18.72,361,-5.4042,2.7938,-6.6086,-0.231,-0.2878,-0.5826,96,19.112,369,-5.3145,-2.4418,-3.0599,-0.0903,-0.4602,0.8718,64
18.619,359,2.0569,13.8223,-3.139,0.3797,-0.7117,0.1042,93,18.614,359,1.7725,0.9167,-10.9705,0.4259,0.0415,0.1424,92,18.772,362,-5.1481,2.3352,-4.4448,0.5298,-0.3933,-1.1211,96,19.164,370,-5.2313,-1.7537,-3.0113,0.4723,-0.6066,1.4133,64
18.67,360,0.3634,12.613,-3.7759,-0.4009,-0.2222,0.2255,93,18.666,360,2.2275,-0.0144,-9.5797,0.0542,-0.0118,0.0864,92,18.824,363,-7.945,1.0715,-2.4144,-0.1025,0.404,-1.3531,96,19.216,371,-8.7081,1.0204,1.745,0.1732,-0.1286,1.8081,64
18.722,361,4.134,10.0971,-7.4504,-0.3591,-1.02,0.4544,93,18.718,361,6.8066,0.7929,-10.6086,0.0709,-0.584,0.3145,92,18.876,364,-6.2661,6.5569,-5.8701,0.306,0.0781,-1.2602,96,19.267,372,-3.6077,5.7489,-4.4137,0.1211,-0.7347,0.794,64
18.774,362,8.0011,13.0337,-9.6121,-0.1201,-0.5699,0.1217,93,18.77,362,10.1836,3.419,-11.2778,0.2583,-0.2033,0.2461,92,18.927,365,-7.4671,8.1854,-2.8816,0.5034,-0.2108,-1.1311,96,19.319,373,-6.1552,2.0585,-8.9086,-0.0179,-0.4606,0.019,64
18.826,363,6.5198,13.2993,-7.3494,0.4213,0.0779,-0.3803,93,18.821,363,7.712,1.6622,-11.4634,-0.1818,0.5129,-0.0718,92,18.979,366,-2.7549,4.4956,-1.1865,0.048,-0.7596,-0.1721,96,19.371,374,-3.1335,2.5621,-5.863,0.7008,0.3747,-0.5609,64
18.877,364,0.1825,11.8692,-4.9519,-0.0808,0.5264,-0.4617,93,18.873,364,5.2438,0.5189,-12.018,0.5121,0.4845,-0.3776,92,19.031,367,-3.3863,4.2057,-2.5194,-0.0553,-0.1195,0.5303,96,19.423,375,-3.9741,0.9822,-6.7064,0.9406,0.8466,-0.4946,64
18.929,365,-0.2454,10.241,-3.7536,0.1455,-0.4329,-0.4055,93,18.925,365,3.7825,-0.7703,-11.6,-0.1887,-0.0205,-0.2473,92,19.083,368,-5.4296,4.9066,-3.6345,-0.1967,0.6588,0.3438,96,19.474,376,-4.9679,0.3668,-5.7251,0.3104,-0.023,-0.0608,64
18.981,366,0.3567,10.2888,-2.9555,0.2828,-0.601,-0.2258,93,18.977,366,2.3667,-0.7983,-10.5458,0.4358,0.1079,-0.0001,92,19.134,369,-6.5907,3.3672,-3.3136,-0.6548,-0.0024,-0.4365,96,19.526,377,-6.864,-0.1325,-4.5903,-0.4113,-0.1688,0.4778,64
19.033,367,0.6516,9.8535,-2.2586,0.0667,-0.6816,-0.2037,93,19.029,367,1.5675,-0.5544,-11.2829,0.6072,0.1985,0.1924,92,19.186,370,-7.1935,2.8174,-2.4646,-0.0356,-0.408,-0.9888,96,19.578,378,-7.5141,-0.1455,-3.0648,-0.0581,-0.2469,0.7426,64
19.084,368,2.0219,8.6806,-6.045,-0.0654,-1.2408,0.0348,93,19.08,368,1.6474,-0.0298,-10.7442,0.6097,0.2747,0.1946,92,19.238,371,-8.2021,2.5316,-1.0374,0.0525,-0.0636,-1.0647,96,19.63,379,-8.7681,0.9257,0.1426,0.2131,0.0247,0.7568,64
19.136,369,6.4596,9.4224,-9.9308,-0.5708,-0.6441,0.6195,93,19.132,369,3.9493,1.9885,-10.5181,0.5008,0.015,0.3058,92,19.29,372,-11.5445,-2.4581,2.7216,-0.6135,0.6996,-0.9734,96,19.682,380,-3.6515,5.9618,-2.0806,0.533,-0.6228,-0.0045,64
19.188,370,7.3113,7.9998,-9.6815,-0.0832,-0.0908,0.04,93,19.184,370,8.0982,4.2877,-13.1511,0.9994,0.3537,0.1587,92,19.342,373,-5.7307,-6.6081,-3.4041,-0.3847,-0.0666,-0.4327,96,19.733,381,-10.5071,5.1777,-7.2058,0.6207,-0.1112,0.2321,64
19.24,371,1.134,9.4934,-6.0296,0.572,0.4276,0.142,93,19.236,371,9.7329,3.8131,-12.2197,0.7647,0.6723,-0.5714,92,19.393,374,-6.2785,-1.4706,-7.8749,-0.0658,-0.0245,0.3301,96,19.785,382,-4.9207,2.1757,-2.684,0.9815,0.6297,-0.3425,64
19.292,372,1.0413,10.4101,-5.5705,0.8612,-0.5458,-0.1591,93,19.288,372,5.4413,1.1606,-12.5134,1.215,0.7613,-1.1043,92,19.445,375,-1.8874,-4.3071,-5.5331,-0.4004,0.6319,0.8969,96,19.837,383,-4.6497,0.413,-3.9243,1.4264,0.8611,-0.4788,64
19.343,373,-0.5289,9.8294,-4.1508,0.1703,0.0955,0.1995,93,19.339,373,1.8338,-2.1799,-13.2057,0.4794,0.9993,-0.8389,92,19.497,376,-3.178,-1.7436,-4.5188,-0.7658,1.1712,0.7418,96,19.889,384,-5.1339,0.2521,-3.1301,1.5588,-0.0108,0.056,64
19.395,374,-0.6958,8.7109,-3.2048,0.2311,-0.3615,0.1628,93,19.391,374,1.067,-1.3429,-11.9946,0.9912,0.8382,0.0067,92,19.549,377,-5.2672,0.0607,-4.9197,-1.2118,1.2194,-0.1085,96,19.94,385,-6.364,1.1823,-2.0913,0.733,-0.2933,0.4747,64
19.447,375,-0.9034,9.0469,-2.2479,0.4414,-0.6347,0.1343,93,19.443,375,1.4214,-0.5798,-11.3487,0.1946,0.4015,0.4505,92,19.601,378,-5.2451,-1.3896,-2.6139,-1.5377,0.3282,-0.5107,96,19.992,386,-7.1964,0.652,-1.6085,0.557,-0.4034,0.6567,64
19.499,376,0.567,9.1348,-3.8486,0.2998,-0.8373,0.054,93,19.495,376,1.9498,0.4403,-11.2507,0.5717,0.4195,0.209,92,19.653,379,-6.7285,-0.9617,-1.3576,-1.0146,0.4133,-0.8071,96,20.044,387,-8.801,0.5943,0.5745,0.5882,-0.0621,0.8305,64
19.551,377,5.3977,5.3016,-8.3277,-0.0901,-0.2768,-0.1312,93,19.547,377,3.61,2.1673,-10.3259,0.5181,0.2073,-0.0429,92,19.704,380,-9.144,-3.3962,1.2038,-1.3438,0.8162,-0.8046,96,20.096,388,-12.046,1.9973,-5.268,-0.1937,-0.4434,1.0387,64
19.603,378,8.9234,7.29,-8.4931,-0.3934,-0.6057,-0.4706,93,19.598,378,7.8506,3.2796,-13.3603,-0.3033,-0.5206,0.6332,92,19.756,381,-3.9787,3.2962,-4.4352,-0.8882,0.0572,-0.2689,96,20.147,389,-13.1148,-1.5145,-7.2775,-0.4731,0.3873,0.9509,64
19.655,379,6.6621,7.5831,-5.7875,0.3148,-0.1395,-0.4934,93,19.651,379,10.9456,0.8401,-13.158,-0.9028,-0.2728,0.0891,92,19.808,382,-7.4681,5.5531,-2.4232,-0.2162,0.2643,0.4014,96,20.199,390,-6.8239,-2.9962,-4.7595,-0.1521,0.7695,0.1299,64
19.707,380,3.2634,8.379,-3.702,0.3085,0.3532,0.1483,93,19.702,380,2.9874,-0.1477,-12.9198,0.0115,0.4808,-0.3684,92,19.86,383,-2.7556,0.9836,-7.159,-0.1231,0.7504,0.9489,96,20.251,391,-4.3344,-3.5494,-6.0321,0.1713,1.2725,-0.4799,64
19.758,381,-0.1792,8.4967,-3.5323,-0.3572,0.7517,-0.5584,93,19.754,381,2.3036,-0.8119,-12.4015,0.2144,0.3624,-0.0134,92,19.912,384,-2.1317,5.4376,-4.9303,-0.7157,1.1546,1.275,96,20.303,392,-10.7282,-0.4906,-5.2383,0.5912,1.0241,0.4267,64
19.81,382,-0.9304,8.1367,-3.6436,-0.1942,-0.2026,-0.6278,93,19.806,382,2.1767,-0.9308,-12.097,0.0581,0.1988,0.5927,92,19.963,385,-4.2042,3.4916,-6.8131,-1.1756,1.3805,0.2347,96,20.355,393,-7.0629,-0.3606,-2.9239,-0.1189,0.1066,1.0839,64
19.862,383,0.1334,8.8818,-4.3101,-0.1601,-0.8571,-0.2534,93,19.857,383,1.9107,-0.8133,-11.378,-0.1376,0.1684,0.6774,92,20.015,386,-2.9656,1.9809,-2.9307,-1.1339,0.4018,-0.5218,96,20.406,394,-7.2901,-1.6917,-1.646,-0.3739,-0.5509,1.4417,64
19.914,384,1.0422,8.7998,-5.2994,0.4992,-1.4247,-0.113,93,19.909,384,1.5523,1.4744,-10.155,-0.5433,-0.4553,0.5717,92,20.067,387,-4.9529,1.108,-0.8954,-0.1831,0.6677,-0.9961,96,20.458,395,-10.873,-0.672,0.5805,0.424,0.1067,1.8283,64
19.965,385,5.7446,14.0996,-4.4326,-0.0784,-1.8977,0.2685,93,19.961,385,1.7037,1.6777,-8.9643,-1.078,-0.9363,0.5159,92,20.119,388,-7.0769,0.696,0.6443,0.4959,0.9102,-1.3676,96,20.51,396,-12.4576,-3.2438,-3.2124,-0.3195,-0.1064,1.4793,64
20.017,386,8.9252,8.8813,-4.2439,-0.7553,-1.236,0.6756,93,20.013,386,6.4593,0.6231,-14.493,-0.9408,-1.2874,0.8319,92,20.171,389,-5.848,6.2828,-4.9202,0.9512,0.1493,-0.8833,96,20.562,397,-13.7923,-3.2027,-8.0318,-0.5332,0.6332,1.8566,64
20.069,387,7.5382,8.9011,-2.7353,0.0902,-1.1753,-0.1736,93,20.065,387,9.9301,1.4616,-13.7738,-1.3678,-0.9855,0.5551,92,20.222,390,-8.3118,8.0073,1.6075,0.0409,0.8424,-0.5069,96,20.614,398,-7.3184,-6.0923,-7.7267,-0.1338,0.7709,0.8991,64
20.121,388,4.0893,9.9033,-3.0693,0.6795,-0.3639,0.0882,93,20.117,388,6.5156,-0.4953,-9.8363,-1.0481,-0.0458,-0.2821,92,20.274,391,-3.3713,1.8387,3.615,-0.5467,0.0091,0.286,96,20.665,399,-5.5531,-5.5394,-6.2243,0.3365,1.2735,0.0815,64
20.173,389,-0.251,10.4863,-3.8065,0.3178,-0.1044,-0.3091,93,20.169,389,4.3318,-0.4767,-11.3935,-0.682,0.0195,-0.5198,92,20.326,392,0.2344,7.1168,0.9811,-1.0523,0.4076,0.8469,96,20.717,400,-6.8615,-3.9438,-6.1455,0.7996,1.5964,-0.1714,64
20.224,390,-0.6529,11.271,-3.9266,0.5451,-0.7646,-0.3694,93,20.22,390,3.4868,-0.3614,-12.105,-0.8988,-0.3227,0.0036,92,20.378,393,-3.2504,6.5135,-2.1241,-1.4213,1.0435,0.4151,96,20.769,401,-5.9875,-3.0495,-5.0824,0.5528,0.5243,0.4141,64
20.276,391,-0.2357,12.1105,-4.1587,-0.0692,-1.3701,-0.434,93,20.272,391,3.4497,-2.6428,-10.122,-0.6951,-0.4186,-0.143,92,20.43,394,-4.0046,1.6396,3.2206,-1.275,0.9198,-0.3919,96,20.821,402,-7.0071,-2.727,-3.2518,-0.0391,0.1813,0.8609,64
20.328,392,1.123,10.2624,-5.5116,-0.7608,-1.8263,0.1343,93,20.324,392,3.0045,-2.1647,-10.5081,-0.191,-0.3183,-0.0427,92,20.481,395,-5.9539,0.2167,2.6416,-0.2321,0.8748,-0.5669,96,20.873,403,-7.5046,-1.4518,-2.4453,-0.343,0.0559,0.9666,64
20.38,393,4.5215,8.3105,-8.1131,-0.4501,-2.1132,-0.253,93,20.376,393,2.7757,-0.7302,-9.9987,0.175,-0.2175,0.1315,92,20.533,396,-7.3603,0.0463,0.7623,0.529,0.785,-0.5723,96,20.924,404,-11.2825,-1.0821,0.8732,-0.284,0.7191,0.5295,64
20.432,394,8.2839,9.4766,-6.9764,0.1202,-1.4711,-0.0334,93,20.428,394,7.2417,0.6653,-11.4277,-0.1497,-0.2897,0.7047,92,20.585,397,-7.3799,5.8086,-4.102,0.7466,0.231,-0.9875,96,20.976,405,-5.4866,-6.0925,-5.05,0.4278,-0.116,-0.1747,64
20.483,395,7.714,10.5727,-7.5541,0.2291,-1.3412,0.4163,93,20.479,395,10.5012,5.7015,-12.4707,0.561,0.4685,0.895,92,20.637,398,-8.8286,4.7398,-7.2892,-0.1084,0.194,-0.5388,96,21.028,406,-8.1404,-5.6412,-6.1509,0.3727,-0.3962,-0.5526,64
20.535,396,4.4086,10.8098,-4.7907,0.2905,-0.485,0.9888,93,20.531,396,9.5306,2.6684,-9.2825,0.0363,0.7881,-0.034,92,20.689,399,-3.7486,-0.7741,-5.7216,-0.4625,-0.4556,0.1847,96,21.08,407,-7.3572,-2.472,-2.4381,0.9765,0.4217,-0.9781,64
20.587,397,-1.6331,10.3091,-6.0588,-0.4727,-0.3843,0.2819,93,20.583,397,7.7601,-0.8149,-11.6149,-0.2101,0.2543,0.3959,92,20.74,400,-2.4957,5.2099,-9.5663,-0.9088,-0.3724,0.752,96,21.132,408,-6.8129,-1.2835,-4.8868,1.378,1.0151,-1.0454,64
20.639,398,-1.1923,9.3979,-5.7532,0.028,-1.1384,0.121,93,20.635,398,6.0784,-0.3964,-11.7776,0.517,0.3353,0.5407,92,20.792,401,-5.4718,5.1906,-9.0759,-1.3166,0.4742,-0.0557,96,21.184,409,-7.54,-0.4876,-6.0785,1.1926,0.1,-0.3269,64
20.691,399,0.8054,11.3055,-4.0697,0.4641,-1.5702,0.0612,93,20.687,399,5.0575,-1.1874,-10.0886,0.438,0.1346,0.4538,92,20.844,402,-2.978,-0.0766,-2.6359,-1.6142,0.7542,-0.5664,96,21.235,410,-8.2153,0.2558,-2.7924,0.516,0.303,0.2536,64
20.742,400,1.5189,11.8027,-2.693,-0.2642,-1.3889,-0.0065,93,20.738,400,3.9006,-0.4296,-10.0595,0.8078,0.1113,0.4402,92,20.896,403,-6.8264,-1.9354,-1.7465,-0.8206,0.5493,-0.4413,96,21.287,411,-7.8539,0.618,-0.7499,0.7802,0.2097,-0.067,64
20.794,401,2.1344,8.3724,-6.2388,-0.9031,-1.7408,0.3891,93,20.79,401,2.7504,-1.1916,-10.5467,0.1156,0.16,0.5503,92,20.948,404,-7.371,-0.5347,-1.5332,0.0995,0.0719,0.3197,96,21.339,412,-9.0181,-1.7868,-1.322,0.1399,0.4687,-0.184,64
20.846,402,6.5417,3.4568,-9.5767,-0.2508,-0.8619,-0.3676,93,20.842,402,4.9475,1.6082,-12.115,0.7547,0.0287,0.1765,92,21.0,405,-7.3271,3.4952,-5.653,0.7711,0.6634,-0.4625,96,21.391,413,-3.834,-4.5395,-6.3083,0.2581,0.0549,0.3048,64
20.897,403,7.691,7.7771,-7.5989,0.4584,-0.9319,0.2341,93,20.894,403,8.8267,1.2671,-12.8933,0.6158,0.2303,-0.1825,92,21.051,406,-9.0102,3.1812,-7.6868,1.0179,1.2302,-0.3991,96,21.443,414,-2.244,-5.4827,-6.0268,-0.0876,-0.6008,-0.3523,64
20.95,404,0.8059,10.6301,-5.4234,0.976,-0.1862,-0.4716,93,20.946,404,7.9562,3.5293,-11.8393,1.111,0.7083,-0.452,92,21.103,407,-7.3269,4.9766,-6.2063,0.1317,0.2921,0.3188,96,21.495,415,-3.7266,-3.1929,-4.1503,0.1849,0.2724,-0.8278,64
21.001,405,0.6459,10.9217,-4.8428,0.4369,-0.9938,-0.1936,93,20.997,405,2.6701,-0.0193,-11.3152,0.1294,0.1349,0.1251,92,21.155,408,-6.9237,7.6473,-7.8567,-0.0909,0.7749,0.8501,96,21.546,416,-4.7491,-3.4599,-6.3973,0.711,0.4156,-0.2343,64
21.053,406,-0.418,11.948,-4.9077,-0.387,-1.2104,0.2002,93,21.049,406,1.7138,-0.3009,-14.2556,0.6476,0.0907,0.636,92,21.207,409,-7.9243,6.7303,-8.5145,-0.7197,0.546,0.0199,96,21.598,417,-2.3032,-1.6062,-4.551,0.3408,-0.3375,0.606,64
21.105,407,1.157,11.8889,-4.0149,-0.9658,-0.6434,0.1764,93,21.101,407,1.4648,2.3501,-14.5286,0.1658,-0.3116,0.6549,92,21.259,410,-8.7969,2.057,-5.9579,0.1551,0.8893,-0.6813,96,21.65,418,-7.0308,-0.4767,-2.539,0.0492,0.2655,1.0117,64
21.157,408,1.5241,12.0605,-3.0122,-1.4152,-0.2997,0.0836,93,21.153,408,2.0965,-0.8388,-11.8388,0.1631,-0.7404,0.5715,92,21.31,411,-9.7269,0.9049,-4.5096,0.8116,1.2561,-0.5449,96,21.702,419,-9.624,-1.0689,-0.3977,0.528,0.664,0.4053,64
21.209,409,2.6971,9.9667,-3.5861,-1.6685,-1.0766,0.1508,93,21.205,409,3.2387,0.8546,-10.3971,0.3656,-0.4698,0.417,92,21.362,412,-13.2125,6.4353,1.9072,1.2908,0.604,0.2043,96,21.754,420,-9.9939,-3.5018,-1.571,-0.0257,0.8376,0.3919,64
21.26,410,6.9524,4.6204,-8.1361,-1.9252,-0.3219,0.6343,93,21.257,410,7.2643,3.5899,-12.8889,0.9322,-0.273,0.1064,92,21.414,413,-11.9305,1.1476,-1.8992,1.6405,0.4635,-0.5467,96,21.805,421,-4.5461,-6.2422,3.7551,0.2359,1.3166,1.063,64
21.312,411,5.7528,9.3082,-5.5587,-1.2257,-0.009,0.8398,93,21.308,411,10.5177,-2.5792,-16.3917,-0.0011,-0.0628,-0.3602,92,21.466,414,-12.7553,2.2698,-6.7766,1.8957,1.0843,-0.952,96,21.857,422,-0.5701,-6.6786,6.6494,0.0631,0.32,0.2011,64
21.364,412,4.2632,10.3779,-3.6847,-0.5306,0.1844,1.0977,93,21.36,412,9.207,-4.6935,-13.5712,0.6696,0.6341,-0.7436,92,21.518,415,-11.1501,4.29,-7.2163,1.1157,0.1856,-0.8959,96,21.909,423,-2.8245,-2.6491,5.303,0.5205,0.9445,-0.2371,64
21.416,413,-2.1485,12.1158,-3.9283,-0.1869,-0.1245,1.0939,93,21.412,413,5.4397,-4.0685,-12.6028,0.9882,0.8156,-0.5124,92,21.569,416,-10.1114,5.9851,-8.7596,0.2642,0.2437,0.0021,96,21.961,424,-4.4712,-3.4589,2.1003,0.9776,1.4002,-0.3296,64
21.467,414,-1.7835,11.8037,-3.8487,-0.4637,-0.9487,0.6252,93,21.464,414,2.7332,-0.9716,-13.1679,0.34,0.7554,-0.3482,92,21.621,417,-10.232,6.0505,-7.3012,-0.2199,0.9239,-0.0099,96,22.013,425,-4.5576,-3.0854,0.5261,0.3226,0.3811,0.295,64
21.519,415,-1.5957,11.8781,-3.599,-0.7462,-0.8038,0.0492,93,21.516,415,2.11,-0.4857,-13.7598,-0.2946,0.2282,-0.4852,92,21.673,418,-9.486,3.8838,-5.555,-0.1657,0.0685,-0.703,96,22.064,426,-5.7749,-2.5534,0.7667,-0.0869,0.0084,0.8665,64
21.571,416,-0.6227,10.5194,-3.4849,-1.2549,-0.7707,-0.2285,93,21.567,416,1.9305,-1.9593,-13.319,-0.2216,-0.197,-0.6692,92,21.725,419,-9.4197,2.7962,-3.3739,0.4791,0.3301,-1.1864,96,22.116,427,-7.0429,-1.9541,1.7651,0.5442,0.3072,1.1183,64
21.623,417,3.7057,9.8952,-5.9032,-1.5551,-1.1161,-0.1504,93,21.619,417,3.6874,-2.1868,-11.2079,0.4243,-0.1163,-0.4472,92,21.777,420,-10.0263,1.1567,-0.9557,0.6172,0.5849,-1.4195,96,22.168,428,-9.7145,-2.2233,-0.6017,0.2603,0.9351,0.2859,64
21.674,418,7.6885,4.5682,-8.5777,-1.2871,-1.1359,0.118,93,21.671,418,7.9071,-2.8132,-11.9952,0.1992,-0.3248,-0.2006,92,21.829,421,-9.3425,6.4604,-6.088,0.9267,0.1591,-0.4134,96,22.22,429,-4.3422,-3.5988,4.4625,0.8809,1.0555,0.6486,64
21.726,419,8.161,7.1679,-8.7382,-0.5297,-1.6747,0.6352,93,21.723,419,10.9868,-0.505,-13.0849,-0.4916,-0.1647,0.5181,92,21.881,422,-9.4344,6.4394,-2.2147,0.023,0.1062,-0.7691,96,22.272,430,-3.7469,-2.3434,6.478,0.4232,0.267,-0.1014,64
21.778,420,4.3522,8.6479,-4.6553,-0.3388,-1.3805,-0.0086,93,21.775,420,6.5892,-2.671,-10.2557,-0.919,0.229,0.3623,92,21.932,423,-7.8741,4.688,0.5196,-0.4447,-0.5065,0.0946,96,22.323,431,-4.3624,-6.6068,-0.2977,1.0209,0.9058,-0.6461,64
21.83,421,1.3084,7.3173,-3.7807,-0.1074,-1.5724,-0.0613,93,21.827,421,4.1661,-1.3217,-10.9326,-0.9138,0.074,0.4585,92,21.984,424,-3.1065,9.1964,-0.4815,-0.9779,0.2219,0.6595,96,22.375,432,-10.3851,0.4373,-3.1443,1.459,0.3581,0.3055,64
21.882,422,0.8794,8.7308,-2.6854,0.5631,-1.0993,-0.5901,93,21.878,422,2.7183,0.6962,-11.5621,-1.0272,-0.1233,0.1982,92,22.036,425,-5.6727,6.7405,-2.0955,-1.367,0.908,-0.161,96,22.427,433,-6.2097,0.9808,-0.4728,0.427,-0.0512,0.9942,64
21.933,423,0.0538,9.4154,-3.0647,0.7067,-1.0026,-0.337,93,21.93,423,2.257,-1.5202,-10.8887,-0.5844,-0.1551,0.079,92,22.088,426,-5.3399,4.56,0.2138,-1.1242,0.2024,-0.8133,96,22.479,434,-7.0015,0.8399,-0.1497,0.1729,-0.4299,0.9358,64
21.985,424,-0.0108,10.0935,-3.7071,-0.0315,-0.9727,-0.1627,93,21.982,424,2.0819,-2.5328,-10.9843,-0.3214,-0.2076,0.1589,92,22.14,427,-5.868,2.7351,1.8432,-0.4315,0.2854,-1.1541,96,22.531,435,-9.2329,-0.1348,0.3475,0.8318,0.0386,0.6431,64
22.037,425,4.976,6.5701,-3.8214,-0.6795,-0.3346,0.4744,93,22.034,425,2.8815,-1.1756,-10.4254,0.3924,-0.0551,0.2947,92,22.191,428,-7.6856,1.0375,2.586,-0.0908,0.6648,-1.224,96,22.582,436,-3.9908,5.1879,5.1553,0.9831,-0.611,0.8876,64
22.089,426,8.6156,9.7386,-3.8313,0.1455,-0.3447,-0.3204,93,22.086,426,7.3189,1.9341,-15.5594,0.8626,-0.5335,0.1066,92,22.243,429,-8.1055,4.2703,-3.0653,0.6322,-0.1204,-1.3856,96,22.634,437,-10.7547,1.7596,-1.9247,0.5069,0.265,1.0432,64
22.14,427,7.5372,8.7724,-5.1225,0.7477,-0.4245,-0.9006,93,22.137,427,10.5575,-0.5424,-10.044,0.6284,-0.0981,-0.4896,92,22.295,430,-7.4252,2.7669,2.9613,0.1935,0.5982,-1.7071,96,22.686,438,-5.1014,-0.9639,-0.5847,0.4166,-0.2315,0.5786,64
22.192,428,4.0753,9.7748,-6.0057,1.1871,0.184,-0.971,93,22.189,428,8.2735,0.5134,-8.6373,1.114,0.4109,-0.7091,92,22.346,431,-2.7243,0.8536,-0.4224,-0.0916,0.4455,-0.6124,96,22.737,439,-5.7173,-1.4303,-2.8324,0.8439,0.2999,0.0779,64
22.244,429,0.7665,11.8757,-6.7942,0.1561,-0.289,-0.602,93,22.241,429,3.875,-0.3059,-9.2779,1.3271,0.9523,-1.0189,92,22.398,432,-0.7344,3.2627,-1.7289,0.1915,0.5548,-0.2203,96,22.789,440,-7.5337,-1.6145,-2.7055,0.9588,0.0007,0.645,64
22.296,430,0.1385,11.488,-6.9517,-0.5964,-0.1259,-0.1231,93,22.293,430,2.4798,0.0354,-10.4794,1.5749,1.3749,-0.7329,92,22.45,433,-3.0908,3.0732,-1.7047,0.8382,0.4855,-0.8566,96,22.841,441,-10.0527,-0.0487,-1.6083,0.6204,0.5261,0.2069,64
22.348,431,0.3917,11.8001,-6.3942,-1.1455,-0.661,0.0685,93,22.345,431,2.3391,2.0978,-10.3355,1.7569,1.5828,-0.5068,92,22.502,434,-4.6121,1.4415,0.3073,0.4539,0.6157,-0.7023,96,22.893,442,-8.4242,0.3822,-0.5862,0.7435,0.9556,-0.419,64
22.4,432,1.9019,10.2521,-5.695,-1.099,-1.293,-0.394,93,22.396,432,2.6865,3.1729,-9.3225,0.6054,1.2103,-0.9503,92,22.554,435,-7.1992,-0.0071,-0.1049,-0.322,0.8289,-0.0059,96,22.945,443,-7.8517,-1.0986,-0.6957,0.1459,0.9347,-0.4214,64
22.451,433,6.372,10.9111,-9.6753,-0.1607,-1.8016,-0.9543,93,22.448,433,6.6211,0.7007,-9.7992,-0.2395,1.0849,-1.3808,92,22.605,436,-2.6556,5.7697,5.1219,-0.8881,0.8019,0.6516,96,22.996,444,-2.9827,4.4844,-1.8315,-0.5314,0.0413,0.2757,64
22.503,434,9.6345,6.3807,-10.8032,0.5242,-2.1727,-1.3632,93,22.5,434,10.0483,0.9817,-10.6109,0.4928,0.9696,-1.3364,92,22.657,437,-1.002,1.8244,4.8758,-1.3015,1.3312,0.7932,96,23.048,445,-4.5055,2.8474,-6.2445,-0.1347,0.1972,-0.0207,64
22.555,435,9.9961,11.3514,-8.9824,0.8498,-1.0919,-0.977,93,22.552,435,9.9273,4.7194,-8.546,1.03,0.7014,-0.8483,92,22.709,438,1.9636,3.1284,4.6682,-0.9639,0.5405,0.9866,96,23.1,446,-2.5635,3.5517,-4.5951,0.6156,0.8548,-0.4586,64
22.607,436,4.9677,12.7203,-6.9238,-0.0901,-0.303,-0.028,93,22.604,436,5.6151,2.3932,-7.3095,0.8679,0.5677,-0.505,92,22.761,439,0.3694,0.5257,3.0481,-0.6153,0.9586,1.3531,96,23.152,447,-2.8795,1.9784,-4.7763,1.1632,0.7065,-0.3255,64
22.659,437,1.1568,12.4583,-6.346,-0.776,0.2727,0.6646,93,22.656,437,4.1975,1.1351,-8.0025,-0.048,0.2393,-0.2068,92,22.813,440,-1.1358,2.7992,2.0125,-0.6137,0.9281,1.2935,96,23.204,448,-2.3382,1.3833,-3.648,0.2767,-0.1252,0.4878,64
22.71,438,0.4522,8.2326,-5.4463,-1.1383,0.1721,1.0709,93,22.707,438,3.0192,1.1186,-8.488,0.6353,0.3532,0.0549,92,22.864,441,-3.3795,3.4424,1.3576,0.1361,0.4221,0.2528,96,23.255,449,-4.299,0.9884,-2.4509,-0.243,-0.6362,0.9409,64
22.762,439,0.6102,8.1346,-4.6502,-0.1893,0.406,1.2627,93,22.759,439,2.8177,2.6219,-7.8262,0.9165,0.3274,0.2942,92,22.917,442,-4.6085,2.7756,2.3123,0.417,0.2515,-0.4857,96,23.307,450,-5.9853,1.0698,0.2275,0.3573,-0.6441,1.1726,64
22.814,440,2.3184,7.5375,-5.15,0.5033,-0.54,1.4303,93,22.811,440,6.0359,4.1522,-6.8367,-0.0125,-0.0646,0.6395,92,22.968,443,-8.3008,-0.5019,4.8772,-0.0678,0.9296,-0.7197,96,23.359,451,-7.4392,-4.5219,-5.5212,-0.252,-0.8393,1.3243,64
22.866,441,6.676,10.0796,-9.1959,0.877,0.0818,1.0362,93,22.863,441,9.6211,5.3552,-7.0596,-0.6905,-0.4485,1.1308,92,23.02,444,-3.3634,-5.1804,-1.8309,-0.4868,0.0727,-0.7257,96,23.411,452,-6.2359,-6.6909,-4.0112,-0.2605,0.0983,1.3829,64
22.918,442,9.3035,8.1633,-6.8755,-0.0703,-0.6505,0.7131,93,22.915,442,12.2378,3.78,-8.0401,0.1664,0.1474,0.8489,92,23.072,445,-3.6217,0.6173,-6.7267,-0.3663,0.4305,-0.1268,96,23.463,453,-1.8034,-4.841,-3.3341,0.4972,0.7559,0.4346,64
22.969,443,8.2603,7.5039,-3.082,-0.6232,-1.0154,0.4356,93,22.966,443,4.7825,2.4915,-6.7963,0.7918,0.7875,0.1974,92,23.124,446,-1.3377,-2.448,-4.6565,-0.2398,1.0257,0.5634,96,23.514,454,-1.4679,-7.9142,-7.7934,1.0767,1.2626,-0.2225,64
23.021,444,4.9111,6.5037,-0.587,-1.164,-0.4842,0.6715,93,23.018,444,2.0532,0.8072,-10.3404,1.0709,1.0055,0.8086,92,23.176,447,-2.4682,1.8155,-4.3194,-0.8241,1.445,1.0274,96,23.566,455,-4.1928,-4.1092,-7.3237,1.0005,0.3496,0.3945,64
23.073,445,3.1435,5.505,0.6264,-1.2157,-0.4118,0.2764,93,23.07,445,2.7697,5.8051,-11.8193,0.1019,1.0177,1.2547,92,23.227,448,-4.7083,1.5456,-3.789,-1.2541,1.5222,0.054,96,23.618,456,-3.8075,-4.278,-4.7496,0.0924,-0.3857,1.0649,64
23.125,446,2.2336,5.8629,0.2118,-0.2458,-0.0536,-0.4649,93,23.122,446,1.0328,-1.1349,-14.4824,-0.607,0.0709,0.667,92,23.279,449,-4.762,0.6315,-1.4378,-0.3922,0.7779,-0.6564,96,23.67,457,-3.9714,-3.844,-1.396,0.1658,-0.8228,1.5347,64
23.177,447,4.1292,7.2311,-2.5453,0.462,-0.2166,-1.006,93,23.174,447,1.7373,-3.4994,-7.9328,-0.6817,-0.6014,0.2545,92,23.331,450,-6.1122,-0.1877,-0.496,0.2514,0.9206,-1.1696,96,23.721,458,-9.8058,-2.6451,1.5548,0.6939,0.0586,1.5222,64
23.228,448,7.9976,8.923,-6.1924,0.285,0.3358,-0.7932,93,23.225,448,2.9501,-5.4938,-9.6595,0.1675,-0.2481,0.8503,92,23.383,451,-12.2504,-4.9511,2.0006,-0.4699,1.4179,-1.5489,96,23.773,459,-5.4928,-4.3262,6.0364,-0.1314,-0.5336,1.8749,64
23.28,449,10.8209,7.3337,-7.0948,-0.5023,-0.6128,-1.0222,93,23.277,449,7.369,-6.5511,-12.5417,0.7053,0.214,0.674,92,23.434,452,-6.2459,-8.4276,6.6586,-0.9962,0.9034,-1.0841,96,23.825,460,-6.5794,-7.0393,0.778,-0.3243,0.2748,1.3084,64
23.332,450,11.1873,7.3073,-1.7633,0.2746,-1.3051,-1.3619,93,23.329,450,9.8885,-5.0621,-11.649,1.1851,0.4165,-0.1953,92,23.486,453,-7.0318,-3.234,2.4676,-0.1559,1.2917,-0.2555,96,23.877,461,-2.0541,-8.1374,0.9887,0.1554,0.836,0.4367,64
23.384,451,4.3157,8.0268,0.513,0.4041,-1.7789,-1.6607,93,23.381,451,4.4512,-3.0334,-11.5292,1.5353,0.4311,-0.8298,92,23.538,454,-2.4372,-7.0947,4.176,-0.6133,0.3766,0.2077,96,23.929,462,-2.9531,-6.4379,-3.7704,0.8273,0.9205,0.1324,64
23.435,452,3.795,8.4431,2.698,0.9235,-1.3021,-1.8787,93,23.433,452,3.0505,-2.1334,-10.9211,1.7909,-0.2789,-1.1735,92,23.59,455,-3.3666,-1.5036,0.2845,-1.1009,1.0142,0.6387,96,23.98,463,-4.3545,-4.2997,-2.8859,1.289,0.031,0.7727,64
23.487,453,3.5054,8.7266,4.144,0.1569,-0.815,-1.9304,93,23.484,453,1.4975,-0.1441,-10.935,1.7981,-0.2054,-0.9207,92,23.641,456,-5.1709,-0.8402,-0.7732,-1.4568,0.6801,-0.0849,96,24.032,464,-8.757,-1.6702,-1.708,0.3222,0.5592,0.5918,64
23.539,454,4.1847,10.3346,-2.4944,-0.5958,-0.1009,-0.7238,93,23.536,454,2.1396,0.7947,-11.2497,1.1999,-0.574,-0.7272,92,23.693,457,-6.628,-1.9664,-1.0179,-0.4239,0.6404,-0.7127,96,24.084,465,-6.7225,-1.7843,-1.8033,-0.4027,0.7517,0.2233,64
23.591,455,2.2334,12.9477,-0.8787,-1.1451,0.0212,0.1568,93,23.588,455,4.1133,1.5629,-8.4311,0.1943,-1.0275,-0.6382,92,23.745,458,-8.8801,-2.9271,-0.7083,-0.216,0.9609,-0.4885,96,24.136,466,-6.7757,-1.6455,0.0558,-0.7101,0.8318,0.3205,64
23.643,456,6.614,17.3837,-6.1601,-0.6389,-0.7686,-0.5523,93,23.64,456,6.517,-0.9709,-10.7932,0.8122,-1.2359,-0.8985,92,23.797,459,-5.9313,3.6386,-5.803,-0.0894,1.3137,0.2855,96,24.187,467,-2.1974,3.7352,-5.6465,-0.3076,-0.0338,-0.0074,64
23.694,457,9.3667,15.065,-5.3514,-1.0661,-0.886,-0.3867,93,23.692,457,9.9723,0.8841,-10.3834,1.1487,-1.4809,-0.9128,92,23.849,460,-3.6528,1.6369,0.9632,-0.7186,1.6887,0.52,96,24.239,468,-0.4796,0.658,-8.7296,-0.5773,0.3527,-0.0327,64
23.746,458,8.3242,10.9012,-2.0829,-1.4884,-1.4302,0.2017,93,23.743,458,10.9231,2.4074,-11.4669,0.2492,-0.4014,-0.935,92,23.901,461,-1.1572,0.8336,1.7774,-0.5055,0.7434,0.9654,96,24.291,469,1.1038,0.2603,-6.6322,0.2581,0.9683,-0.5986,64
23.798,459,2.7264,8.6563,-3.2859,-0.8333,-1.1087,0.7779,93,23.796,459,6.0746,3.2455,-10.6436,-0.2045,-0.2543,-1.0417,92,23.953,462,-1.3896,-0.7061,0.6734,-0.4072,1.1582,1.3605,96,24.343,470,0.5472,-0.4528,-5.753,0.4075,1.4176,-0.7997,64
23.85,460,2.7254,6.0616,-3.7076,0.0333,-1.5374,0.8503,93,23.847,460,4.0007,-1.1623,-11.1846,-0.8307,-0.8574,-0.1444,92,24.005,463,-2.9543,3.2183,-1.6653,-0.9505,1.445,1.1622,96,24.395,471,-2.9178,-1.3648,-5.1889,-0.2356,0.5507,0.0938,64
23.902,461,2.2602,6.3679,-5.3798,0.5028,-1.9799,1.3056,93,23.899,461,4.6983,-0.9183,-11.5733,-0.1694,-0.4981,0.2031,92,24.056,464,-1.8616,2.0506,-1.3143,-1.3208,0.4489,0.1544,96,24.446,472,-4.3709,-1.9775,-3.5592,-0.8098,-0.1478,0.8454,64
23.953,462,2.7781,12.5815,0.292,0.9997,-0.9512,1.0669,93,23.951,462,3.3802,0.4952,-10.9674,0.1247,-0.4502,-0.1073,92,24.108,465,-5.1081,1.0588,1.4786,-1.1632,1.0733,-0.5831,96,24.498,473,-5.3066,-1.4793,-1.2383,-0.0126,-0.366,1.3208,64
24.005,463,2.357,9.3446,-0.9458,0.0193,-1.5521,1.0393,93,24.003,463,4.154,0.5875,-10.4627,0.6327,-0.4866,-0.5843,92,24.16,466,-8.0544,-1.9875,2.7132,-0.557,1.0698,-1.0737,96,24.55,474,-6.1653,-6.3824,-6.5911,-0.3278,0.4438,0.6792,64
24.057,464,6.7042,7.7919,-6.2091,-0.6768,-1.1936,1.4408,93,24.055,464,8.2476,0.6484,-13.5851,0.9215,-0.875,-0.6689,92,24.212,467,-3.1835,-6.2646,4.0129,-0.6902,0.3266,-0.5266,96,24.602,475,-1.7518,-8.817,-2.3302,0.1712,0.6968,1.1451,64
24.109,465,9.2222,8.7861,-6.4355,-0.5036,-0.7667,1.2177,93,24.107,465,11.2353,4.6775,-12.8456,1.3429,0.0413,-1.0982,92,24.264,468,-2.3705,-3.6597,-2.4277,-0.1284,-0.2635,-0.2825,96,24.654,476,-1.222,-9.2826,-2.2465,-0.1156,0.5759,0.3537,64
24.161,466,6.109,8.9418,-5.1605,-0.8791,-0.3277,0.7743,93,24.158,466,6.7158,4.9521,-10.7772,0.5718,0.274,-0.976,92,24.315,469,0.9648,-5.6872,-2.0414,-0.666,0.3133,0.4497,96,24.705,477,-1.6238,-5.5908,-1.0691,0.6296,1.1312,-0.3166,64
24.212,467,0.6156,7.7161,-3.1831,-0.7059,-0.1156,0.5834,93,24.21,467,4.3875,5.0409,-8.4101,-0.2641,0.3966,-0.688,92,24.367,470,2.3949,1.4779,-3.2807,-1.0789,0.7854,0.9469,96,24.757,478,-5.8766,-4.5369,-2.3065,1.0389,1.5365,0.389,64
24.264,468,0.9631,8.4966,-2.059,-0.4009,-0.9299,0.3046,93,24.262,468,1.9488,1.1443,-9.8696,-0.8741,0.9347,-0.0811,92,24.419,471,-1.6942,2.4886,-5.5023,-1.4407,1.2955,0.0537,96,24.809,479,-4.156,-1.9699,-1.2998,0.5689,0.4805,1.0331,64
24.316,469,1.9439,7.8738,-2.5937,0.0658,-0.9668,-0.0183,93,24.314,469,0.4206,1.9179,-9.5068,-0.481,1.302,0.1498,92,24.471,472,-2.1369,0.6403,-2.8769,-1.7048,0.3398,-0.4779,96,24.861,480,-5.7922,-2.3788,-0.3928,-0.2104,-0.0044,1.4479,64
24.368,470,2.5039,7.3156,-3.9073,0.6895,-0.4088,-0.4896,93,24.366,470,1.7933,1.1483,-9.6451,-1.0196,1.4903,0.1496,92,24.523,473,-6.0291,-0.0096,1.5166,-0.6279,0.9124,-1.0158,96,24.913,481,-8.5473,-0.8278,2.242,-0.0941,0.4599,1.3868,64
24.419,471,6.8113,8.7586,-6.2326,1.1447,0.1249,-0.0258,93,24.417,471,5.5056,1.9054,-9.4897,-0.7552,1.7142,0.03,92,24.574,474,-3.452,5.7678,-4.2835,-0.7737,1.4119,-0.3742,96,24.964,482,-4.5669,0.967,6.3693,-0.7065,-0.3052,1.4117,64
24.471,472,9.9551,9.0068,-5.4626,1.1519,0.5851,-0.583,93,24.469,472,9.2341,3.5352,-11.451,0.1192,0.6752,0.6864,92,24.626,475,-5.8695,1.707,-8.5168,-0.9122,1.648,-0.631,96,25.016,483,-7.1815,-1.1506,2.1,-1.0554,0.4881,1.1066,64
24.523,473,8.4823,7.0765,-4.2948,1.4594,0.7695,-0.9184,93,24.521,473,8.6617,2.2191,-9.5955,-0.3922,1.0095,1.0119,92,24.678,476,-7.0734,3.7375,-1.1727,0.0201,0.8485,0.1949,96,25.068,484,-2.4958,-1.2097,2.0699,-0.0563,1.0342,0.2329,64
24.575,474,4.485,7.5057,-3.2113,1.7066,-0.1054,-0.9413,93,24.573,474,4.0762,1.6052,-11.0399,0.2931,0.0649,0.0513,92,24.73,477,-5.6441,4.8928,-2.3178,-0.2465,1.3652,0.7008,96,25.12,485,-6.2355,-0.7313,-0.6412,0.6728,1.0954,0.6472,64
24.627,475,-0.1076,10.7752,-3.0727,1.887,0.0603,-0.2316,93,24.625,475,6.3464,-2.8405,-5.5956,0.8141,-0.5153,-0.6498,92,24.782,478,-7.0511,4.7484,-3.8444,-0.7228,1.7418,-0.1451,96,25.171,486,-2.5675,4.7525,0.2281,0.6545,0.1586,0.9014,64
24.678,476,-0.8188,11.85,-2.9125,1.4448,-0.8138,-0.0143,93,24.676,476,6.8983,-0.1314,-4.923,1.2645,-0.0482,-0.544,92,24.833,479,-7.4314,1.9344,-2.4744,-0.2516,1.3836,-0.3371,96,25.223,487,-5.6609,2.8008,-0.0387,-0.1602,0.4281,0.5461,64
24.73,477,0.622,11.6745,-3.614,0.3442,-0.5023,0.5106,93,24.728,477,6.406,0.5709,-8.0928,0.2415,0.6447,0.2345,92,24.885,480,-7.5745,3.4,-3.6364,0.5148,1.197,-0.0675,96,25.275,488,-8.393,-2.4394,0.4198,0.1452,0.3344,0.7294,64
24.782,478,1.7481,8.682,-5.2772,0.7213,-0.491,-0.015,93,24.78,478,8.2519,-3.4684,-8.382,-0.5052,1.1504,0.8357,92,24.937,481,-10.8919,7.7479,-3.9682,0.3092,1.1954,-0.1692,96,25.327,489,-7.9933,3.5058,-5.3268,0.0548,-0.2107,1.2696,64
24.834,479,6.2598,12.291,-7.9153,0.8939,-1.2163,-0.6776,93,24.832,479,11.2385,2.0795,-14.068,0.3017,1.457,-0.0607,92,24.989,482,-5.2544,0.8407,1.813,-0.4276,0.5805,0.3473,96,25.379,490,-12.2785,0.0525,-9.575,-0.4389,0.5571,1.079,64
24.886,480,9.5526,10.6818,-7.7728,0.1147,-1.7295,-1.1613,93,24.884,480,12.5583,6.7336,-13.0416,0.8905,0.3998,-0.1733,92,25.041,483,-11.1298,6.3885,4.2215,0.3104,0.6806,0.9094,96,25.43,491,-6.2135,-0.7754,-9.21,0.3335,0.8699,0.2127,64
24.937,481,7.6101,10.181,-4.8976,-0.6266,-0.7801,-0.3648,93,24.935,481,3.807,7.0544,-15.609,-0.0315,0.2553,0.1783,92,25.092,484,-6.8664,1.4872,1.8895,0.0814,0.9477,1.1387,96,25.482,492,-4.0772,-1.8635,-10.1688,0.571,1.3007,-0.2737,64
24.989,482,0.1332,9.4773,-4.0022,-1.1634,-0.0757,0.4188,93,24.987,482,3.5122,3.4431,-13.2489,-0.5402,-0.4855,-0.1051,92,25.144,485,-6.7785,5.055,2.3012,-0.2564,1.0526,1.0377,96,25.534,493,-7.0127,-0.8735,-7.8757,0.5477,0.4752,0.5353,64
25.041,483,-0.0588,9.2792,-4.2919,-1.5594,-0.9131,0.4549,93,25.039,483,5.1124,1.7293,-8.3691,-0.7845,-0.5378,0.0162,92,25.196,486,-6.0675,0.0641,2.9567,0.2534,0.2157,0.0973,96,25.586,494,-5.9718,0.1524,-4.2269,0.098,0.0243,0.9718,64
25.093,484,2.5434,8.7586,-2.9004,-1.3283,-0.9668,0.1363,93,25.091,484,5.4539,-0.9655,-7.2093,-1.1079,0.2598,0.4263,92,25.248,487,-6.933,0.7576,3.1021,0.8834,0.238,-0.0544,96,25.638,495,-8.3993,1.1454,-2.5196,-0.0167,0.0057,0.6691,64
25.145,485,5.9019,8.1338,-3.7299,-0.328,-1.5635,-0.3564,93,25.143,485,4.7305,-0.029,-7.9912,-0.1383,0.8695,0.4175,92,25.3,488,-7.6542,1.6861,2.094,0.497,0.6309,0.4744,96,25.689,496,-9.8895,-0.7309,-0.8186,0.1028,0.3556,0.2117,64
25.196,486,9.2913,11.1481,-8.2411,0.4021,-1.1946,-0.2651,93,25.194,486,6.1035,0.9435,-9.2736,0.1264,1.1706,0.4866,92,25.352,489,-8.0233,7.0054,-3.8621,0.1548,0.8949,0.3292,96,25.741,497,-10.4589,0.919,-6.2848,-0.2425,-0.2669,0.7203,64
25.248,487,11.7651,10.0697,-8.9425,-0.4168,-0.378,-0.6765,93,25.246,487,9.6705,4.6257,-14.7188,-0.1414,1.4406,1.0196,92,25.403,490,-12.0679,0.3272,-3.2502,-0.5403,1.3992,-0.4556,96,25.793,498,-11.2981,-2.2649,-7.0955,-0.4301,0.5161,1.0032,64
25.3,488,8.314,11.0445,-7.0259,-0.1788,-0.0836,0.1913,93,25.298,488,10.632,6.4586,-13.5007,-0.179,0.3796,0.7381,92,25.455,491,-11.9124,2.9549,-0.8561,-0.2867,0.7083,0.1835,96,25.845,499,-5.498,-0.0231,-4.9109,0.3772,0.9994,0.1574,64
25.352,489,2.7666,13.2045,-5.9861,-0.5859,0.4328,0.8247,93,25.35,489,4.6776,7.4765,-11.2192,-0.8121,-0.1772,0.6276,92,25.507,492,-9.5452,0.8716,3.061,0.0187,1.2629,0.7848,96,25.896,500,-4.8577,-3.0949,-6.3262,0.9372,1.3212,0.096,64
25.404,490,-0.0851,12.5032,-7.5608,0.1886,-0.0624,-0.0648,93,25.402,490,4.8966,1.452,-10.6639,-1.2741,-0.283,0.673,92,25.559,493,-9.1108,3.3488,1.0666,-0.6308,1.6063,0.8925,96,25.948,501,-5.8703,-1.1351,-5.659,0.4653,0.3234,0.6392,64
25.455,491,4.1131,13.6762,-9.7395,0.0178,-0.3253,-0.714,93,25.454,491,4.6426,1.1477,-10.6793,-1.1886,0.0774,0.3014,92,25.611,494,-9.6328,0.8824,-1.0186,-1.051,0.9052,-0.0444,96,26.0,502,-6.9621,-1.5893,-2.7181,-0.2972,0.4501,1.1211,64
25.507,492,3.1518,12.0701,-8.3836,-0.5221,-1.0953,-0.6227,93,25.505,492,4.0108,0.4254,-10.6067,-0.3066,0.6783,-0.0011,92,25.662,495,-9.928,0.4009,-1.4804,-0.1617,0.8086,-0.5952,96,26.052,503,-8.7056,-1.3389,-2.5316,0.059,-0.045,1.0206,64
25.559,493,6.0348,12.3793,-5.5266,0.2505,-1.6573,-0.6024,93,25.557,493,3.9628,0.9155,-10.4517,-0.9051,0.3017,0.3574,92,25.714,496,-10.6161,-1.0359,0.6362,0.0186,1.02,-0.8674,96,26.103,504,-14.1958,-1.1044,-0.8539,0.7569,0.6781,0.7993,64
25.611,494,9.3884,14.2058,-9.5524,-0.5275,-0.991,0.1608,93,25.609,494,8.1081,-0.4781,-12.6991,-0.1357,0.2069,0.1868,92,25.766,497,-8.5434,5.0188,-4.9261,0.3741,0.3123,-0.9034,96,26.156,505,-7.6129,-3.1186,2.8949,0.7949,0.8712,1.3603,64
25.663,495,10.0956,7.7143,-4.9921,-0.9614,-1.5553,0.8024,93,25.661,495,11.1335,1.8317,-10.4313,0.5713,0.4359,-0.3761,92,25.818,498,-8.5176,5.1933,-3.4149,0.1946,-0.1617,-1.0915,96,26.207,506,-6.7259,-4.569,-0.3635,0.6975,0.3028,0.4838,64
25.714,496,7.1263,11.2854,-5.5857,-0.0602,-1.1434,-0.0607,93,25.713,496,6.3321,2.7687,-9.4739,-0.2645,0.4017,0.1446,92,25.87,499,-3.5216,0.6036,2.7061,-0.3244,-0.7238,-0.1739,96,26.259,507,-5.3505,-2.3734,-0.6799,1.1232,0.9319,-0.2217,64
25.766,497,2.351,16.1705,-4.2519,0.5975,-0.629,-0.6559,93,25.764,497,5.8252,0.7888,-8.5315,-0.8744,-0.3787,0.77,92,25.921,500,-1.5401,6.2154,-0.0851,-0.8901,-0.1807,0.4469,96,26.311,508,-8.6508,-1.192,-1.7706,1.5337,1.391,0.3046,64
25.818,498,3.0434,14.6448,-6.0069,-0.2742,-0.5777,-0.0383,93,25.816,498,4.9153,-1.5262,-7.5203,-0.2659,-0.2636,0.6339,92,25.973,501,-4.2561,2.5269,-1.5391,-1.2863,0.5518,-0.3356,96,26.362,509,-6.137,-0.6912,-0.1156,0.4815,0.3743,0.9993,64
25.87,499,2.079,12.6777,-6.9319,-0.9104,0.0723,0.6571,93,25.868,499,3.8468,-2.0792,-6.7765,0.4331,0.2876,0.7242,92,26.025,502,-5.3393,2.2642,-0.6908,-0.2987,0.0384,-0.8327,96,26.414,510,-7.9935,-1.5344,0.002,0.0172,0.2815,1.3643,64
25.922,500,4.1468,11.2848,-6.3056,-1.3748,0.1192,1.1647,93,25.92,500,4.1685,-1.3525,-6.6247,0.6408,0.8898,1.1931,92,26.077,503,-6.4563,1.9741,-0.5845,-0.0088,0.0733,-0.8174,96,26.466,511,-10.94,-1.4709,1.6334,0.6478,0.7269,1.339,64
25.973,501,6.0173,12.5953,-6.3094,-1.644,-0.3118,1.5351,93,25.972,501,6.3778,-1.5416,-7.2559,-0.0622,1.314,1.5353,92,26.129,504,-9.5437,2.038,2.3421,-0.4486,0.7995,-0.8933,96,26.518,512,-9.5894,3.0667,-1.8772,-0.1648,-0.0107,1.3846,64
26.025,502,9.3756,8.3047,-9.8514,-1.9102,0.2663,0.4537,93,26.023,502,9.8706,-3.1387,-8.1167,0.5553,0.8742,0.7266,92,26.18,505,-8.0707,-3.3267,2.6758,-0.9153,1.182,-1.2617,96,26.57,513,-12.9402,-0.722,-4.1675,-0.5263,0.7031,1.2991,64
26.077,503,5.8539,3.4074,-6.6472,-0.8928,-0.5491,-0.3356,93,26.075,503,12.4199,-3.4358,-6.6206,0.5437,0.3785,0.0301,92,26.232,506,-10.9481,3.3469,2.0271,-0.359,0.8335,-0.2735,96,26.621,514,-6.6965,-1.8883,-3.8769,0.2229,1.0274,0.3734,64
26.129,504,4.2335,3.0814,-3.7351,-0.0101,-1.2586,-0.0228,93,26.127,504,7.6364,-2.1475,-6.2929,0.4777,0.3551,-0.1578,92,26.284,507,-6.8852,0.2718,-0.4217,-0.2281,1.019,0.4011,96,26.673,515,-4.1163,-3.5203,-5.6984,0.8172,1.4607,-0.3022,64
26.18,505,4.5012,4.8952,-2.5572,0.6339,-1.6248,0.3588,93,26.179,505,5.2417,-1.3593,-6.5373,-0.3194,0.1101,-0.3268,92,26.336,508,-3.6699,5.1497,-1.0116,-0.8198,1.1256,0.9474,96,26.725,516,-8.6981,-0.5555,-2.9911,1.2679,1.777,0.3562,64
26.232,506,2.7025,9.7444,-2.5241,0.878,-0.692,0.7924,93,26.231,506,3.8973,-0.415,-7.0696,-0.699,0.2283,-0.5182,92,26.388,509,-5.1947,2.9023,-0.6416,-0.5821,1.0923,0.0412,96,26.777,517,-6.5475,-0.2978,-2.0427,0.2875,0.6561,1.0163,64
26.284,507,1.9525,11.1842,-2.0454,0.4776,-0.3311,0.6555,93,26.282,507,2.9885,-0.7635,-7.4791,-0.8191,0.3271,-0.8441,92,26.439,510,-5.4878,1.851,0.5646,0.1023,0.3809,-0.6658,96,26.829,518,-7.5861,-1.0519,-1.9923,-0.416,0.178,1.2978,64
26.336,508,4.3569,9.9097,-2.7712,0.9749,-0.5184,0.174,93,26.334,508,2.1433,-0.2574,-7.605,-0.3523,0.551,-1.2884,92,26.491,511,-7.0257,1.5539,0.5082,0.5666,0.6155,-1.0687,96,26.88,519,-8.2148,-0.5345,-1.0131,-0.2303,-0.1193,1.3596,64
26.388,509,8.1637,9.7748,-4.3011,1.353,-0.6468,-0.4111,93,26.386,509,4.4277,2.2337,-6.8493,-0.9385,0.1504,-1.6275,92,26.543,512,-7.9061,1.5949,0.7861,0.1106,1.1881,-0.912,96,26.932,520,-9.8518,-5.6929,-6.4267,-0.806,-0.6345,1.0645,64
26.439,510,10.9422,4.4803,-3.6092,0.2806,-1.2102,-0.6844,93,26.438,510,8.4474,0.9791,-9.8667,-0.9928,-0.4794,-1.2983,92,26.595,513,-3.0753,6.2393,-3.9211,-0.2347,0.2614,-0.3476,96,26.984,521,-6.4679,-6.6532,-3.7502,-0.4787,0.2478,1.5128,64
26.491,511,9.205,5.277,-1.0123,0.8463,-1.3471,-0.5788,93,26.49,511,11.381,0.3689,-8.7064,-0.5228,-0.6128,-1.6348,92,26.647,514,-4.1174,10.1324,-8.2522,-0.491,0.2159,-0.0001,96,27.036,522,-2.287,-6.1809,-4.101,-0.1944,0.7124,0.7303,64
26.543,512,4.7704,8.2124,0.2801,-0.0026,-0.8267,0.1121,93,26.542,512,7.5901,-0.4265,-8.0497,-0.6498,-0.6684,-1.8618,92,26.698,515,-0.3101,3.9172,-7.4054,-0.047,0.8562,0.6501,96,27.087,523,-2.2822,-4.1883,-5.5957,0.572,1.2309,-0.0417,64
26.595,513,2.4154,8.7067,-0.0123,-0.7122,-0.4901,-0.1328,93,26.593,513,4.4692,-1.857,-7.9787,-0.0109,-0.4938,-1.6623,92,26.75,516,2.0431,6.0356,-5.8739,-0.2988,0.7487,1.0925,96,27.139,524,-6.7986,-1.5367,-5.6503,0.6393,1.5291,0.3942,64
