right_hand_timestamp,right_hand_index,right_hand_accel_x,right_hand_accel_y,right_hand_accel_z,right_hand_gyro_x,right_hand_gyro_y,right_hand_gyro_z,right_hand_battery_percentage,left_hand_timestamp,left_hand_index,left_hand_accel_x,left_hand_accel_y,left_hand_accel_z,left_hand_gyro_x,left_hand_gyro_y,left_hand_gyro_z,left_hand_battery_percentage,right_leg_timestamp,right_leg_index,right_leg_accel_x,right_leg_accel_y,right_leg_accel_z,right_leg_gyro_x,right_leg_gyro_y,right_leg_gyro_z,right_leg_battery_percentage,left_leg_timestamp,left_leg_index,left_leg_accel_x,left_leg_accel_y,left_leg_accel_z,left_leg_gyro_x,left_leg_gyro_y,left_leg_gyro_z,left_leg_battery_percentage
0.199,3,4.9938,11.6085,-1.3458,-0.7474,-0.0799,1.2292,93,0.05,0,10.7754,-0.4668,-16.0658,-0.0487,0.1599,0.0763,91,0.296,5,-1.4303,5.078,-7.358,0.4833,1.0059,-0.1728,96,0.718,13,-0.7425,-0.3097,-5.1423,0.9379,1.0316,0.3842,64
0.251,4,3.1061,11.7443,-1.072,-0.5872,-0.2137,0.8269,93,0.102,1,9.6011,-1.5109,-14.9254,0.1896,0.7834,-0.15,91,0.348,6,-4.3542,5.5102,-7.3979,0.3772,1.0187,-0.0712,96,0.77,14,-3.6584,-0.4184,-7.5441,0.4746,0.957,0.4114,64
0.303,5,2.4277,11.9809,-0.4193,-0.4848,-0.2195,0.4556,93,0.154,2,4.0757,-1.4285,-13.6291,0.3481,1.033,0.0212,91,0.4,7,-5.9796,4.0579,-4.5444,0.1171,0.9431,0.255,96,0.822,15,-5.3993,-0.3603,-5.8663,1.0603,0.4009,0.2533,64
0.355,6,5.0789,11.4285,-0.6304,-1.0438,-0.7738,0.1004,93,0.206,3,2.7179,-1.6392,-12.4195,-0.329,0.0821,0.232,91,0.452,8,-6.8171,4.8293,-6.8089,0.0656,0.9783,0.4582,96,0.874,16,-5.2346,1.8754,-5.831,0.9752,-0.2807,0.2217,64
0.407,7,8.6905,12.1835,-2.2199,-1.4721,-0.7388,0.1581,93,0.258,4,2.9806,-1.6145,-11.3491,-0.7042,-0.1486,0.567,91,0.503,9,-2.2805,-1.2894,-10.3352,0.1803,0.4263,0.275,96,0.925,17,-1.0726,1.3494,-5.3076,0.8145,-0.8457,-0.031,64
0.458,8,10.1173,9.7706,-0.4636,-1.3431,-0.8405,0.0405,93,0.309,5,5.1398,-2.1242,-13.0665,-0.1106,-0.6875,0.5791,91,0.555,10,1.0306,-1.2712,-8.9157,-0.0821,0.6495,0.458,96,0.977,18,-0.112,0.7681,-4.9582,0.8289,0.0874,0.2201,64
0.51,9,6.1672,8.974,-1.3632,-0.3388,-0.23,0.208,93,0.361,6,8.9667,0.0078,-15.5582,0.5896,-0.0006,-0.2645,91,0.607,11,-1.4031,-1.5216,-7.4333,-0.4498,0.9425,0.4722,96,1.029,19,-1.3423,1.1542,-4.7118,0.5764,0.6897,0.2519,64
0.562,10,3.5085,10.2346,-0.5274,0.0062,-0.3817,0.0729,93,0.413,7,8.2959,-2.0177,-14.4387,0.272,0.6795,-0.8803,91,0.659,12,-3.8988,0.0428,-8.049,-0.2264,0.5282,0.004,96,1.081,20,-4.4751,1.8792,-6.3515,-0.1954,0.6516,0.4632,64
0.614,11,2.2401,9.675,-0.2355,-0.667,-0.352,-0.227,93,0.465,8,5.661,-2.3483,-14.6155,0.8689,1.1758,-1.3297,91,0.71,13,-3.9886,0.415,-4.3003,-0.0155,0.1325,-0.3183,96,1.132,21,-4.8712,-0.3158,-3.4531,-0.6033,0.0314,0.4853,64
0.666,12,2.1542,8.5938,0.0666,-0.5929,-0.3751,-0.2438,93,0.517,9,0.9521,-2.0132,-13.6458,1.1607,1.0985,-0.6428,91,0.762,14,-6.145,0.3757,-2.5832,0.5538,0.3221,-0.3659,96,1.184,22,-5.6467,-0.5115,-8.2075,-0.5048,0.5329,0.4506,64
0.717,13,6.556,10.9816,-2.6479,-0.4304,-1.1317,0.3431,93,0.568,10,0.6036,-2.4566,-12.9119,0.7774,0.3681,-0.1764,91,0.814,15,-1.79,-4.5399,3.3038,-0.1029,-0.3707,0.0485,96,1.236,23,-1.3734,-4.396,-9.0405,-0.3136,-0.068,-0.1907,64
0.769,14,8.8133,10.5979,-1.6407,-1.0244,-0.4903,0.3904,93,0.62,11,3.7453,-2.3477,-11.9979,0.4,-0.4032,0.158,91,0.866,16,0.7208,-4.2707,-1.5079,-0.1999,-0.0292,0.0337,96,1.288,24,1.0079,-3.9578,-9.3419,0.1655,0.6037,-0.067,64
0.821,15,4.4527,8.2016,-0.6471,-0.1871,0.0662,0.5288,93,0.672,12,7.949,-0.1084,-15.502,0.9623,-0.7844,0.1187,91,0.918,17,1.6324,-4.1409,-2.1281,-0.2716,0.7247,0.4324,96,1.34,25,1.1867,-1.9566,-7.2809,0.2229,1.1515,0.0981,64
0.873,16,1.8291,10.2334,-0.6907,0.5049,-0.3776,0.4144,93,0.724,13,10.3915,-0.565,-13.1921,0.6748,-0.0857,-0.2099,91,0.969,18,-0.734,-1.2687,-4.3873,-0.6434,1.2749,0.937,96,1.391,26,-2.2559,-0.9708,-7.599,0.2586,1.5513,0.2735,64
0.924,17,1.3305,10.0392,-0.1163,0.1422,-0.2754,-0.1601,93,0.776,14,6.8994,-0.1254,-11.591,-0.1889,0.6173,-0.4398,91,1.021,19,-4.8787,-0.1663,-4.9209,-0.1559,0.5127,0.6361,96,1.443,27,-4.1331,-1.2939,-6.2321,0.4147,0.8162,0.2895,64
0.976,18,2.6533,9.8749,1.0499,0.301,-0.1559,-0.5998,93,0.827,15,2.5723,-1.7595,-12.239,-0.8193,0.4316,-0.513,91,1.073,20,-6.4021,0.2388,-3.3617,-0.0758,0.1084,0.2117,96,1.495,28,-5.0503,-1.3426,-5.3907,0.4471,-0.0421,0.2798,64
1.028,19,6.9202,11.2118,0.1639,0.7302,-0.8503,-0.7992,93,0.879,16,2.7928,-1.7445,-11.4407,0.0474,-0.2537,-0.1271,91,1.125,21,-7.0183,1.566,-1.6685,-0.1051,-0.2823,-0.0637,96,1.546,29,-6.1513,0.1495,0.918,-0.1383,-0.6367,0.2336,64
1.08,20,10.0344,12.0297,0.2763,0.0187,-0.2827,-0.4357,93,0.931,17,2.2983,-1.1019,-11.1146,0.638,0.0856,0.33,91,1.177,22,-2.4273,-3.6711,-6.6082,-0.4819,-0.76,0.3725,96,1.599,30,-1.7416,-2.0474,-0.9464,-0.3312,-0.8936,-0.1336,64
1.132,21,7.5971,10.9859,0.5279,-0.5658,-0.0337,0.0528,93,0.983,18,3.6173,-1.148,-11.5604,0.5088,-0.4528,0.3383,91,1.228,23,0.1355,-2.5813,-10.1564,-0.2404,-0.7558,0.0986,96,1.65,31,1.1763,-0.1179,-2.8703,0.0936,0.0049,0.1398,64
1.183,22,3.9619,10.809,0.0851,-0.3843,-0.3895,0.2767,93,1.035,19,7.8556,-0.9022,-15.4783,1.0417,0.0108,-0.2411,91,1.28,24,1.6062,-3.5384,-7.1863,-0.147,0.1944,0.5404,96,1.702,32,1.4668,1.0124,-2.4959,0.0838,0.7145,0.4052,64
1.235,23,2.1213,10.1894,0.0044,-0.0961,-0.4007,0.1899,93,1.086,20,10.7574,-1.0143,-13.7152,0.46,-0.0565,-0.7087,91,1.332,25,-0.4448,-0.5652,-9.4916,-0.3433,0.8879,0.9446,96,1.754,33,-3.8444,2.0783,-7.5089,0.3306,1.1358,0.324,64
1.287,24,1.0445,10.4064,0.2389,0.3728,-0.4903,0.1121,93,1.138,21,7.1582,-2.1521,-12.0748,-0.3457,0.6387,-0.7474,91,1.384,26,-4.7331,2.0179,-7.9659,0.3611,0.3037,0.4266,96,1.806,34,-4.5885,-0.1421,-6.3147,0.2274,0.1881,0.3175,64
1.339,25,1.1908,10.5926,0.5577,0.4043,-0.5985,-0.0135,93,1.19,22,4.4502,-2.4873,-12.1144,0.418,-0.2057,-0.2208,91,1.436,27,-4.4058,0.4379,-5.0603,-0.0199,-0.1087,0.073,96,1.858,35,-5.1122,-0.2,-3.8092,0.4032,-0.5036,0.3279,64
1.39,26,5.8528,11.6773,-1.2941,0.0237,-1.2947,0.0677,93,1.242,23,5.9925,0.7607,-10.5317,0.9025,-0.0789,0.0253,91,1.487,28,-5.1177,0.639,-2.4375,0.146,-0.392,-0.2407,96,1.909,36,-4.9928,-0.5077,-8.4674,-0.0759,-0.1297,0.4918,64
1.442,27,9.2554,11.9371,-0.3495,-0.1767,-0.7484,0.2269,93,1.294,24,3.4385,0.6767,-10.369,-0.0227,0.3959,0.2437,91,1.539,29,-1.0402,-4.3477,3.4195,-0.2268,-0.8918,-0.1533,96,1.961,37,-0.8961,1.2346,-6.8452,-0.2201,-0.1973,-0.0224,64
1.494,28,5.5705,11.0199,0.1487,0.4203,-0.0573,0.5588,93,1.346,25,3.6136,-0.2388,-9.8569,-0.6978,-0.0718,0.1836,91,1.591,30,1.9358,0.4228,0.6243,-0.0039,-0.9011,-0.1407,96,2.013,38,1.7189,3.7473,-8.3888,-0.0885,0.1887,0.3443,64
1.546,29,2.4061,11.5382,-0.361,-0.0845,-0.6962,0.2453,93,1.397,26,7.8529,-0.4734,-15.0555,0.0062,-0.7242,-0.1616,91,1.643,31,2.7449,-0.8595,-0.4694,-0.4432,0.0883,0.4964,96,2.064,39,1.8451,3.0334,-6.2641,0.1702,0.8486,0.5174,64
1.598,30,2.7367,9.5965,-0.244,-0.6637,-0.4565,0.0316,93,1.45,27,10.5305,-1.0096,-14.2072,0.4423,-0.5496,-0.7767,91,1.695,32,1.7746,1.4013,-4.1821,-0.3769,0.8105,0.9569,96,2.116,40,-1.5528,2.0072,-6.9868,0.8382,1.3302,0.3481,64
1.649,31,1.4703,9.3302,-0.3074,-0.0803,-0.5718,0.1922,93,1.501,28,6.2324,-1.7613,-11.9916,0.1933,0.2788,-0.6729,91,1.746,33,-4.4815,3.0148,-3.485,0.3437,0.9738,0.2007,96,2.168,41,-3.3147,0.3738,-5.755,0.0319,0.33,0.269,64
1.701,32,1.1311,9.349,-0.0246,0.4639,-0.595,0.4236,93,1.553,29,2.8842,-1.9689,-11.6627,-0.0946,-0.4293,-0.185,91,1.798,34,-3.5576,1.4569,-2.4097,-0.4025,0.105,-0.1537,96,2.22,42,-3.9934,0.9798,-4.6056,0.4812,-0.4,0.2425,64
1.753,33,5.8093,10.3331,-1.2779,0.2217,-1.2906,0.3832,93,1.605,30,4.4648,-1.4505,-9.8853,0.0042,-0.4193,0.2089,91,1.85,35,-5.5538,1.9724,-0.2671,-0.6318,-0.176,-0.2253,96,2.272,43,-5.6002,-0.7601,-2.5676,0.2762,-0.7598,0.3226,64
1.805,34,9.2236,10.5191,-1.7959,-0.5485,-0.448,0.4916,93,1.657,31,2.3508,-0.6605,-10.1447,-0.2669,0.1766,0.3721,91,1.902,36,-5.2036,2.6471,4.5923,0.1801,-0.5573,-0.8513,96,2.323,44,-1.3394,4.4863,2.9991,-0.3572,-1.1954,0.1724,64
1.857,35,9.4185,9.3041,-0.4964,-0.2272,-0.1516,0.5189,93,1.709,32,2.6475,-1.2767,-9.992,-0.3647,0.1134,0.306,91,1.954,37,-1.1166,0.3258,0.6093,-0.0965,-0.2411,-0.3128,96,2.375,45,-0.2825,6.9199,-1.4045,-0.063,-0.4276,0.6073,64
1.908,36,3.1811,10.7566,-1.2672,0.4249,-0.3946,0.5053,93,1.76,33,7.1478,-1.4062,-13.0037,0.3775,-0.5891,0.3726,91,2.006,38,1.0718,0.9216,-1.7514,-0.2475,0.57,0.0628,96,2.427,46,2.1467,5.8979,-1.3466,0.2836,0.3988,0.8893,64
1.96,37,3.6471,10.0259,-0.9328,-0.3832,-0.3493,0.0444,93,1.812,34,10.4323,-0.483,-13.0813,0.3504,-0.8132,-0.0135,91,2.057,39,1.6646,2.7767,-1.8956,-0.4909,1.162,0.7017,96,2.479,47,1.2567,2.6699,-2.7514,0.8696,1.002,0.5985,64
2.012,38,1.7684,9.5174,-0.8603,-0.3142,-0.3598,-0.0119,93,1.864,35,8.5509,-0.2185,-11.9105,-0.4257,0.0864,-0.0468,91,2.109,40,-3.2801,2.7434,-6.7498,0.2146,1.5941,0.3336,96,2.53,48,-2.2725,1.8356,-3.5319,-0.0032,0.3419,0.458,64
2.064,39,1.2451,9.1641,-0.3483,-0.1266,-0.2896,0.0427,93,1.916,36,1.7498,-2.5424,-12.4854,-0.2225,0.5159,0.2006,91,2.161,41,-4.0117,3.0186,-5.0836,-0.3302,0.5577,-0.0073,96,2.582,49,-3.7821,2.0739,-2.9001,0.2308,-0.3026,0.4699,64
2.116,40,5.8078,9.7947,-0.8049,0.043,-1.0302,-0.1002,93,1.968,37,1.2825,-2.0015,-11.5693,0.4744,-0.2954,-0.0331,91,2.213,42,-4.6098,2.0622,-2.8493,0.3057,0.122,-0.5716,96,2.634,50,-4.9437,0.8239,-2.7462,-0.0382,-0.8614,0.4604,64
2.167,41,9.2225,10.6946,-2.1546,-0.6789,-0.2594,0.0871,93,2.019,38,1.7343,-0.8686,-10.6239,0.3245,-0.0988,0.283,91,2.265,43,-6.4638,7.28,-7.47,0.8255,0.3609,-0.8271,96,2.686,51,-2.2546,1.5569,0.3192,-0.2613,-1.2695,0.3862,64
2.219,42,10.7304,8.47,-1.2772,-0.8319,-0.0131,-0.0971,93,2.071,39,1.3404,-0.9,-10.2543,-0.1818,-0.0662,0.4144,91,2.316,44,-2.0226,1.2195,-10.8424,0.0353,-0.3423,-0.1199,96,2.738,52,1.1023,-0.7507,-1.6135,-0.6266,-1.1508,0.305,64
2.271,43,3.6835,8.1953,-1.6997,0.0343,0.4843,0.3031,93,2.123,40,6.0472,-0.47,-12.2311,-0.1765,-0.7201,0.1686,91,2.368,45,0.6712,0.5239,-11.4724,0.0338,0.1782,-0.0639,96,2.789,53,2.7364,0.0992,-4.0867,-0.3558,-0.166,0.6345,64
2.323,44,3.7485,8.8368,-1.0421,-0.0086,0.0833,-0.0453,93,2.175,41,9.6291,-0.2708,-14.2751,0.4245,0.1543,-0.1629,91,2.42,46,1.9167,-1.4856,-9.242,0.3226,0.8761,0.2341,96,2.841,54,2.6358,-1.2586,-3.5177,0.3664,0.5897,0.4843,64
2.375,45,1.7051,8.3631,-1.0436,-0.2393,0.0707,-0.1803,93,2.227,42,12.2433,-0.1079,-13.3034,-0.182,0.3548,-0.2679,91,2.472,47,-0.1977,1.2446,-10.2654,-0.2399,1.3854,0.8064,96,2.893,55,-2.5095,0.5837,-6.1925,0.7996,1.1413,0.5791,64
2.426,46,0.9825,8.2613,-0.8095,0.1519,-0.0939,-0.0123,93,2.278,43,7.1639,-0.8702,-11.668,-0.7208,0.9388,-0.0438,91,2.524,48,-4.9832,2.7321,-8.2195,-0.1632,0.9516,0.475,96,2.945,56,-3.8938,-0.6122,-4.9101,0.5559,0.3979,0.483,64
2.478,47,2.1086,9.265,-0.3724,0.4261,-0.5401,0.1153,93,2.33,44,3.4102,-2.0558,-11.7449,-1.1765,0.0891,-0.3296,91,2.575,49,-4.3512,0.84,-5.6838,-0.6945,0.0888,0.2029,96,2.997,57,-4.9764,-1.6865,-3.8636,0.0342,-0.2221,0.5947,64
2.53,48,6.5227,10.413,-2.1955,-0.3527,-1.252,0.1364,93,2.382,45,3.2917,-2.2524,-11.3425,-0.1883,0.2503,-0.0648,91,2.627,50,-5.7044,1.2386,-3.1363,-0.499,-0.2872,-0.0688,96,3.048,58,-6.4302,-1.0619,-2.7256,-0.6129,-0.6281,0.6502,64
2.581,49,9.7443,9.6289,-1.5565,-0.7428,-1.2788,0.2184,93,2.434,46,2.2823,-0.7452,-11.1885,0.5329,0.1762,0.1641,91,2.679,51,-8.2973,6.6789,-7.6794,0.3251,-0.4229,-0.6046,96,3.1,59,-1.9452,1.7789,2.9124,-0.8522,-1.0993,0.3537,64
2.633,50,7.5542,9.0905,-0.6813,-0.1056,-0.4395,0.4049,93,2.486,47,2.5216,-0.7391,-11.0413,0.4238,0.2079,0.1878,91,2.731,52,-3.3608,10.6494,-4.3567,0.3437,-0.5765,-0.4189,96,3.152,60,-1.5385,3.0346,-2.4333,-0.4293,-0.1276,0.4462,64
2.685,51,2.3579,10.2841,-0.6692,0.4115,-0.7727,0.6223,93,2.537,48,7.0559,-0.3379,-15.0,0.0323,-0.5201,-0.2338,91,2.783,53,0.2421,9.6278,-5.7868,0.2003,0.1571,-0.0761,96,3.204,61,1.3055,2.8677,-3.142,0.2599,0.6178,0.6366,64
2.737,52,1.7138,9.615,-0.6558,-0.41,-0.5725,0.2776,93,2.589,49,10.3652,-0.6416,-15.1333,-0.6532,-0.5253,-0.0042,91,2.834,54,1.5612,7.5804,-5.1724,0.2124,0.8607,0.5173,96,3.256,62,2.528,1.0265,-3.0048,0.717,1.1618,0.5319,64
2.789,53,0.9435,9.2149,-0.6855,-0.4232,-0.5806,0.1525,93,2.641,50,11.3204,-0.9552,-13.8098,-1.1581,0.2965,0.2787,91,2.886,55,-1.6186,6.5026,-6.3857,0.0244,1.3742,0.5294,96,3.307,63,-4.7161,0.8183,-4.6787,0.4984,0.9587,0.4646,64
2.84,54,0.5991,9.4836,-0.4692,0.2772,-0.5828,0.2508,93,2.693,51,2.8892,-2.5246,-14.3973,-0.6759,0.7785,0.2263,91,2.938,56,-4.8766,6.1022,-5.4036,-0.3254,0.4707,0.3459,96,3.359,64,-5.3829,0.5656,-3.5771,0.6902,0.0848,0.4922,64
2.892,55,4.3099,9.9212,-0.0572,0.6394,-1.2238,0.0461,93,2.745,52,3.5203,-1.8926,-13.4456,0.177,-0.1036,0.077,91,2.99,57,-3.5939,3.9333,-2.9853,-0.1603,-0.2622,0.021,96,3.411,65,-5.9456,0.1655,-2.147,0.5944,-0.5144,0.5393,64
2.944,56,8.1293,10.9258,-1.8515,-0.2385,-0.7814,-0.0566,93,2.796,53,2.8578,-0.2486,-12.0125,0.473,0.5665,0.2886,91,3.041,58,-5.9968,3.5505,-1.6417,0.3,-0.4114,-0.328,96,3.463,66,-7.6276,-0.0024,-7.2543,-0.2041,-0.2941,0.7088,64
2.996,57,10.9169,9.176,-1.0049,-0.7702,-0.6025,-0.0439,93,2.848,54,1.6778,-0.0974,-11.4773,-0.3278,0.1061,0.2788,91,3.093,59,-4.4753,1.0783,4.0003,0.1922,-0.906,-0.4592,96,3.515,67,-2.8191,1.4915,-8.5856,-0.0798,-0.5214,0.0885,64
3.048,58,5.0801,8.6185,-1.3826,-0.0926,0.0542,0.3718,93,2.9,55,3.6245,-0.1818,-10.4138,-0.9206,-0.3101,0.2491,91,3.145,60,-3.3135,-1.0323,-0.1912,-0.0194,-0.0371,-0.4895,96,3.566,68,0.6889,3.7577,-9.3559,0.1285,-0.0892,0.4175,64
3.099,59,3.6686,9.7938,-1.3888,-0.0448,-0.7559,0.0306,93,2.952,56,7.8609,-1.4428,-15.2329,-0.0518,0.1045,-0.1082,91,3.197,61,0.2616,-2.788,-1.7972,-0.4418,0.7189,0.203,96,3.618,69,1.2879,3.5771,-6.2869,0.2467,0.6458,0.5981,64
3.152,60,1.7339,8.8754,-1.3301,-0.6397,-0.4026,-0.1589,93,3.004,57,10.9526,-0.842,-14.1654,0.6325,0.1273,-0.4626,91,3.249,62,-0.3984,1.8384,-6.7021,-0.9758,1.2707,0.8041,96,3.67,70,-1.8135,2.069,-6.7322,0.8939,1.1822,0.2604,64
3.203,61,1.0123,8.9434,-0.777,-0.0961,-0.5284,-0.1329,93,3.056,58,6.4621,-0.2165,-11.1367,0.0865,0.7728,-0.2803,91,3.301,63,-6.8253,1.4988,-5.1318,-0.6717,1.6734,0.0432,96,3.722,71,-3.6333,0.0775,-5.1538,0.3449,0.3762,0.0926,64
3.255,62,0.8932,8.9088,-0.1622,0.5664,-0.698,-0.1283,93,3.108,59,2.2622,-1.8397,-12.4288,-0.4889,-0.0613,-0.4527,91,3.352,64,-6.0337,0.1305,-3.2169,-1.1413,0.6156,-0.0587,96,3.773,72,-4.1855,-0.9957,-3.3912,0.3319,-0.2429,0.2858,64
3.307,63,5.6357,11.3776,-2.2591,0.5007,-1.3673,-0.1698,93,3.159,60,4.8743,-2.156,-12.3079,0.3135,-0.2835,-0.3378,91,3.404,65,-6.543,1.1993,-2.1463,-0.4192,0.3608,-0.6001,96,3.825,73,-5.4089,-0.4739,-2.5434,-0.3875,-0.6231,0.5335,64
3.358,64,9.0969,10.4021,-1.6546,-0.3346,-0.972,-0.1296,93,3.211,61,3.091,-0.7014,-11.2927,0.8992,0.4716,-0.3107,91,3.456,66,-7.7524,2.0294,-0.1571,0.2182,0.0488,-0.9629,96,3.877,74,-6.5982,1.81,-7.5435,-0.9206,-0.6206,0.5992,64
3.41,65,8.2383,9.7531,-0.8163,0.2015,-0.2196,0.0844,93,3.263,62,2.2636,-1.3204,-10.4934,0.9069,0.4146,-0.2417,91,3.508,67,-2.9631,-3.3329,-3.591,-0.0626,-0.5701,-0.0547,96,3.929,75,-2.0678,1.1101,-0.604,-0.7031,-1.0938,0.2722,64
3.462,66,1.7878,10.9754,-1.2906,0.5292,-0.2877,0.3829,93,3.315,63,3.8221,0.1994,-11.6409,1.158,-0.3074,0.0092,91,3.56,68,-1.6295,-2.4696,-6.3624,-0.2788,0.1084,-0.2945,96,3.981,76,-3.076,2.6897,-4.6012,-0.4508,-0.0874,0.5867,64
3.514,67,2.5685,10.871,-1.168,-0.3171,-0.2664,0.1927,93,3.367,64,8.0049,0.2852,-14.516,0.6152,0.4555,0.5092,91,3.611,69,-1.076,-3.9955,-4.4047,-0.4554,0.8251,0.4249,96,4.032,77,-1.451,2.2342,-3.4919,0.3849,0.6471,0.496,64
3.566,68,1.5694,9.8453,-1.1116,-0.6126,-0.3799,0.1677,93,3.418,65,11.0579,0.8106,-13.1032,0.2694,0.0623,0.3977,91,3.663,70,-1.3379,-0.5657,-8.2018,-0.3185,1.3482,0.8387,96,4.084,78,-5.0105,1.9496,-8.2359,0.9948,1.1832,0.5482,64
3.617,69,0.4612,9.5334,-0.784,-0.0261,-0.3855,0.2214,93,3.47,66,6.8416,-0.0485,-11.3122,-0.4291,0.7254,0.236,91,3.715,71,-7.5584,1.8224,-6.8083,0.466,1.6305,0.3732,96,4.136,79,-5.3445,0.0811,-6.4609,0.9961,0.3368,0.2762,64
3.669,70,0.6534,8.8968,-0.442,0.6224,-0.4726,0.1615,93,3.522,67,3.6201,-0.6518,-11.3005,0.111,-0.1394,0.2172,91,3.767,72,-6.5621,1.5889,-4.7699,0.0335,0.5843,-0.2582,96,4.188,80,-5.6999,0.6353,-4.116,0.1822,-0.3944,0.3143,64
3.721,71,5.4606,11.6059,-3.2474,0.9209,-1.2028,0.0144,93,3.574,68,5.1846,-0.001,-9.8761,0.0278,-0.6118,0.3428,91,3.819,73,-7.2545,1.321,-2.9738,0.4978,0.2983,-0.721,96,4.24,81,-6.8286,-0.2416,-4.4143,-0.5049,-0.8731,0.5545,64
3.773,72,8.9692,11.661,-2.0062,0.3021,-0.927,0.3782,93,3.626,69,3.0927,-0.164,-9.3548,-0.3779,0.2334,0.3281,91,3.87,74,-8.4028,0.7055,-0.8328,0.7605,0.2036,-0.7888,96,4.291,82,-8.1026,-4.4454,-8.9091,-1.0063,-1.1229,0.336,64
3.825,73,7.504,10.9129,-0.4964,0.4527,-0.2258,0.6621,93,3.677,70,1.7799,-1.042,-9.3511,0.3119,0.2404,0.0783,91,3.922,75,-3.4377,-0.5618,-3.2116,-0.0568,0.5179,-0.9305,96,4.343,83,-3.1658,-1.5447,-10.2357,-1.1571,-1.3579,0.093,64
3.876,74,0.8863,12.4544,-1.2271,0.3111,-0.5989,0.5174,93,3.729,71,4.9066,1.0394,-10.7044,0.898,-0.4911,-0.1455,91,3.974,76,-1.2228,-0.3225,-6.1279,-0.3663,1.1165,-0.3896,96,4.395,84,0.4373,0.6857,-9.8756,-0.2962,-0.2802,0.2907,64
3.928,75,2.3596,10.8858,-1.1675,-0.4833,-0.596,-0.0644,93,3.781,72,8.7966,-0.1713,-14.8383,0.4716,0.3215,-0.3295,91,4.026,77,-0.1751,-2.1381,-4.3232,-0.0569,1.3636,0.2701,96,4.447,85,2.3114,0.7123,-6.6984,0.4817,0.5064,0.2765,64
3.98,76,1.1803,9.5647,-1.0532,0.2163,-0.5762,-0.1637,93,3.833,73,11.0521,0.065,-13.1809,-0.2602,0.4134,0.1311,91,4.078,78,-2.2417,0.0074,-7.5185,-0.6949,1.7412,0.7174,96,4.498,86,-4.6717,1.5677,-10.5497,1.0654,1.0805,0.4121,64
4.032,77,0.7544,8.8841,-0.8985,0.7993,-0.5586,0.1091,93,3.885,74,3.9019,-0.4797,-10.8635,-0.0139,0.9816,0.6661,91,4.129,79,-5.4944,2.0432,-6.2994,-0.7539,0.713,0.4662,96,4.55,87,-5.7613,2.3509,-7.5829,1.4915,0.3255,0.3791,64
4.083,78,1.7596,10.8217,-0.1351,1.2248,-0.4889,0.2092,93,3.936,75,2.4389,0.372,-10.0189,-0.2748,0.0446,0.3872,91,4.181,80,-4.4387,1.5599,-3.7034,-0.5765,-0.0854,-0.0316,96,4.602,88,-6.0852,0.7082,-4.7602,1.4551,-0.1993,0.2124,64
4.135,79,6.268,13.2956,-3.3326,0.1836,-1.2147,0.2264,93,3.988,76,4.5119,0.4397,-9.577,-0.6508,0.2922,0.1225,91,4.233,81,-6.4512,1.6727,-2.1612,-0.404,-0.0925,-0.2629,96,4.654,89,-6.7702,0.436,-3.5884,0.4558,-0.6068,0.2962,64
4.187,80,9.5584,11.1283,-2.9231,-0.5763,-1.6336,0.4423,93,4.04,77,2.8768,-0.3816,-9.6157,-0.3778,0.8932,-0.1141,91,4.285,82,-6.8945,1.0581,0.3235,-0.178,0.0599,-0.3248,96,4.706,90,-9.3571,-1.196,-6.441,-0.3032,-0.7621,0.2507,64
4.239,81,6.5159,9.1563,-1.3974,0.193,-0.6984,0.5144,93,4.092,78,1.5533,-1.1384,-9.6997,0.3946,0.9805,-0.3058,91,4.337,83,-2.337,-1.2193,1.519,-0.7832,0.2125,0.3276,96,4.758,91,-4.0814,0.0755,-7.9941,-0.6764,-1.0564,0.2273,64
4.291,82,2.4266,11.3782,-1.7116,0.7823,-1.3246,0.9265,93,4.144,79,5.2007,2.6431,-13.439,0.9584,0.0438,-0.26,91,4.388,84,0.6705,-2.861,-3.3781,-0.621,-0.1542,0.4693,96,4.809,92,-0.2309,2.2579,-7.6048,-0.282,-0.079,0.6198,64
4.342,83,1.8494,11.9081,-1.423,-0.1393,-0.7996,0.5091,93,4.196,80,9.0111,1.5588,-16.3278,0.018,-0.1242,0.4748,91,4.44,85,3.1843,2.3191,-3.0962,-0.9737,0.4141,0.9984,96,4.861,93,2.0219,-1.03,-9.5474,0.1905,0.6533,0.6488,64
4.394,84,1.58,10.4998,-1.1819,-0.812,-0.9817,0.2529,93,4.247,81,10.8261,0.6582,-14.6544,-0.6682,0.3109,1.011,91,4.492,86,-2.3085,4.5136,-7.6502,-0.9047,1.0483,0.9123,96,4.913,94,-4.5006,0.2598,-8.6581,0.0314,0.5409,0.464,64
4.446,85,0.6658,9.5699,-0.9026,-0.3317,-0.7568,0.2492,93,4.299,82,2.5285,-3.5506,-10.4805,-1.1691,0.9068,0.8843,91,4.544,87,-3.3671,3.2823,-5.7192,-0.737,0.1593,0.5035,96,4.965,95,-6.4023,0.3404,-6.4963,0.4567,-0.0699,0.5569,64
4.498,86,0.422,9.0205,-0.318,0.3994,-0.6189,0.082,93,4.351,83,4.935,-4.2828,-9.9964,-0.2683,0.4721,0.2055,91,4.596,88,-2.5894,3.1194,-2.7387,-0.0118,-0.0673,0.166,96,5.017,96,-6.5462,-0.4614,-4.8566,0.9979,-0.564,0.3594,64
4.55,87,5.2917,13.6108,-4.5619,0.9329,-1.3096,-0.6069,93,4.403,84,2.8993,-3.1169,-12.1355,0.4745,1.0245,-0.0884,91,4.647,89,-4.5372,3.7286,-1.9487,0.6891,-0.4451,-0.1323,96,5.068,97,-7.3932,-0.8613,-3.1004,1.0443,-0.7427,0.1717,64
4.601,88,8.7488,13.5184,-2.4105,0.8759,-1.5874,-0.4249,93,4.455,85,1.7605,-0.6253,-11.2755,0.0324,0.7865,-0.1696,91,4.699,90,-8.0516,8.4962,-6.8127,0.8635,0.2814,-0.5585,96,5.12,98,-12.0273,0.9567,2.4772,0.7108,-0.8451,0.0414,64
4.653,89,2.8393,11.2344,-1.3387,0.9965,-0.6647,-0.1944,93,4.507,86,2.525,-2.1358,-11.4125,-0.6298,0.3846,0.0197,91,4.751,91,-3.1815,4.8735,-1.3202,0.0893,0.6135,-0.7655,96,5.172,99,-6.0302,1.5304,-1.5835,0.4152,-0.3744,0.3661,64
4.705,90,3.3356,13.0986,-0.3356,0.2118,-1.343,-0.4892,93,4.559,87,7.0584,-2.948,-15.0022,-0.2709,-0.3911,-0.349,91,4.803,92,0.373,4.2447,-3.071,-0.1694,0.9738,-0.132,96,5.224,100,-1.6533,1.7194,-1.9223,0.6305,0.4376,0.707,64
4.757,91,1.2981,11.4666,-0.8283,-0.5557,-0.4864,-0.343,93,4.61,88,10.3671,-1.5344,-17.0451,0.4726,-0.7388,-0.6401,91,4.855,93,2.8733,4.1674,-4.4077,-0.039,1.4567,0.537,96,5.276,101,1.3988,-0.3707,-4.2279,0.9567,1.0303,0.5255,64
4.809,92,1.0265,11.3738,-0.5163,-0.0344,-0.434,-0.4728,93,4.662,89,10.6396,0.2535,-13.1311,0.8754,0.1096,-0.0437,91,4.907,94,-1.9974,4.0565,-2.225,0.486,1.8092,0.0963,96,5.327,102,-1.1338,-3.5744,-5.2948,0.5851,0.1133,0.3814,64
4.86,93,0.622,10.9218,-0.4928,0.0604,-0.548,-0.7059,93,4.714,90,3.9027,1.5993,-13.9912,-0.0425,0.066,-0.1842,91,4.958,95,-3.3514,2.6503,-1.3642,0.0702,0.7147,-0.0543,96,5.379,103,-3.0934,-1.2915,-3.1363,1.1254,-0.4906,0.4213,64
4.912,94,3.1865,11.4422,0.4434,0.1797,-1.078,-0.851,93,4.766,91,4.5774,-3.081,-12.9009,-0.2513,-0.3265,-0.5034,91,5.01,96,-5.6276,2.6642,-0.8878,0.2818,0.9333,0.0178,96,5.431,104,-5.1813,-1.482,-2.3578,0.9393,-0.5753,0.4106,64
4.964,95,7.3094,13.8695,-2.2309,-0.5771,-1.1837,-0.1917,93,4.818,92,4.2016,-1.9781,-12.4535,0.487,-0.1432,-1.0086,91,5.062,97,-6.5993,2.915,-1.3178,0.7403,0.5616,-0.0986,96,5.483,105,-6.0893,-2.061,-2.3035,0.0477,-0.7816,0.5835,64
5.016,96,10.3185,12.699,-1.1072,-0.4451,-1.0473,0.2708,93,4.869,93,2.4593,-0.0422,-12.0453,1.0257,0.5685,-0.6,91,5.114,98,-7.5466,7.5491,-6.3523,0.77,-0.0678,-0.5041,96,5.535,106,-7.4733,-0.6852,1.7719,-0.6022,-0.9511,0.6882,64
5.068,97,3.2258,12.5289,-0.8695,0.2764,-0.2705,0.8639,93,4.921,94,1.6672,-0.2979,-11.6162,0.0672,0.0644,-0.234,91,5.165,99,-5.8051,9.6001,0.1478,-0.0475,0.3586,-0.7655,96,5.586,107,-2.7065,-3.534,-0.9631,-0.4566,-1.3069,0.2929,64
5.119,98,2.7683,13.2836,-0.13,-0.1145,-1.0553,0.4175,93,4.973,95,6.4323,0.3933,-12.5454,0.1072,-0.6248,-0.4366,91,5.217,100,-1.5418,7.399,-0.6953,-0.601,-0.1236,0.0645,96,5.638,108,0.7725,-2.9041,-1.3889,-0.1704,-0.243,0.7235,64
5.171,99,1.4849,12.5597,-0.7192,-0.7939,-0.5823,0.1219,93,5.025,96,9.9101,0.6875,-13.6002,-0.3691,-0.3725,-0.0454,91,5.269,101,1.5697,6.7439,-1.7399,-0.2116,0.6556,0.6893,96,5.69,109,3.3117,-6.2247,-4.1004,0.4765,0.5336,0.4875,64
5.223,100,1.3747,11.2494,-0.6552,-1.2197,-0.4672,-0.1052,93,5.077,97,10.2597,0.4535,-12.0082,-0.9508,0.408,0.6008,91,5.321,102,-3.4024,5.6659,-4.6669,0.1518,1.2245,0.3598,96,5.742,110,-5.425,-2.6127,-4.1966,-0.162,0.1993,0.3072,64
5.275,101,0.6357,10.5883,-0.4222,-0.4212,-0.4701,-0.327,93,5.128,98,2.1151,-1.9379,-15.2105,-1.1235,0.8344,0.3977,91,5.373,103,-4.7555,5.3359,-2.7705,0.2248,0.2879,0.1929,96,5.794,111,-5.8423,-2.1363,-2.7785,0.1973,-0.4216,0.4888,64
5.326,102,1.8086,11.1841,0.4058,0.1044,-0.7261,-0.4543,93,5.18,99,4.3104,-1.1142,-14.2029,-0.1496,-0.0629,-0.0341,91,5.425,104,-3.9573,4.3682,-1.3191,0.5187,-0.1796,0.0119,96,5.845,112,-6.4557,-2.1885,-2.2142,-0.3702,-0.6859,0.4349,64
5.378,103,6.3037,13.6627,-2.0406,-0.6238,-1.3878,-0.1137,93,5.232,100,2.6361,-0.2004,-12.5634,-0.0833,0.634,-0.0223,91,5.476,105,-6.0776,4.5694,-1.247,0.9006,-0.1946,-0.2098,96,5.897,113,-7.0235,-2.0032,-1.7554,-0.908,-0.7825,0.5941,64
5.43,104,9.5845,12.5476,-1.1425,-0.9802,-1.2669,0.3499,93,5.284,101,1.1771,-0.037,-11.7712,-0.7422,-0.107,-0.0658,91,5.528,106,-7.5855,4.5628,0.8412,0.4633,0.1155,-0.3932,96,5.949,114,-9.1929,0.704,-1.4733,-1.1246,-0.8741,0.6308,64
5.482,105,4.4009,11.8938,-0.1198,-0.0907,-0.4308,0.5877,93,5.336,102,1.4901,-1.3365,-10.9627,-1.1162,-0.0035,0.1441,91,5.58,107,-2.8413,-1.4839,-4.7765,0.1999,0.7235,-0.6449,96,6.001,115,-3.9615,0.5316,-3.7634,-1.0151,-1.2655,0.3418,64
5.534,106,2.429,12.5617,0.1986,0.1265,-1.1723,0.3014,93,5.387,103,6.3031,-1.0545,-13.5672,-1.0141,-0.6744,-0.1386,91,5.632,108,-1.2602,0.3153,-8.8765,-0.2561,0.6588,-0.3012,96,6.053,116,-0.2836,1.461,-5.7282,-0.4782,-0.2127,0.6255,64
5.585,107,2.0817,11.673,-0.1384,-0.618,-0.5998,0.2114,93,5.439,104,9.8158,-1.3373,-14.5567,-0.2787,0.1149,-0.0249,91,5.684,109,0.5095,0.1475,-7.6159,0.2853,1.2268,0.2682,96,6.105,117,0.1103,0.3177,-5.3153,0.2565,0.5556,0.5954,64
5.637,108,1.3397,11.3341,-0.206,-0.6489,-0.638,0.0761,93,5.491,105,12.3794,-0.6415,-13.3878,-0.4571,0.6403,0.2331,91,5.735,110,-1.8,1.5638,-9.5408,-0.049,1.6414,0.4876,96,6.156,118,-5.3494,1.0365,-9.5666,0.9011,1.1164,0.6425,64
5.689,109,0.4775,10.7118,0.1218,-0.0898,-0.5486,-0.1388,93,5.543,106,4.8905,-1.5207,-11.4441,-0.7344,1.1472,0.5372,91,5.787,111,-6.0909,3.6346,-8.147,0.1731,0.7899,0.3769,96,6.208,119,-5.3304,0.8302,-7.1228,1.3716,0.456,0.5693,64
5.741,110,1.6357,10.9094,0.4305,0.5759,-0.6352,-0.4349,93,5.595,107,4.302,-1.1422,-11.3309,-0.0918,0.1654,0.2096,91,5.839,112,-5.5357,2.1167,-5.2452,0.1282,-0.0293,0.0348,96,6.26,120,-5.9341,0.2214,-5.5203,1.5207,-0.1336,0.6165,64
5.793,111,6.1776,12.5915,-2.6278,-0.1569,-1.3215,-0.0681,93,5.647,108,4.1238,-0.3679,-11.0929,0.5578,0.7746,0.065,91,5.891,113,-7.2556,2.6759,-3.9387,0.7011,0.1746,-0.3393,96,6.312,121,-6.9601,-0.2605,-4.6458,0.5115,-0.6518,0.63,64
5.844,112,9.4924,12.8238,-1.8667,-0.8248,-1.7207,0.6354,93,5.698,109,2.1407,-0.065,-11.2668,0.6328,0.7073,-0.0638,91,5.942,114,-7.8601,2.2572,-1.3156,0.5078,-0.0846,-0.3309,96,6.363,122,-9.0615,0.1933,-9.078,0.2994,-1.1166,0.6085,64
5.896,113,6.9468,10.3631,0.204,-0.0305,-0.762,0.6587,93,5.75,110,2.0746,-0.2493,-11.0235,0.6605,0.4197,-0.166,91,5.994,115,-3.0417,7.4223,3.8169,-0.1713,0.3464,-0.6193,96,6.415,123,-3.8656,-1.5404,-7.9907,-0.1179,-1.1664,0.3495,64
5.948,114,2.2261,12.0085,-0.2047,0.6192,-1.24,1.0737,93,5.802,111,6.7179,-0.4662,-11.8364,0.3695,-0.3655,-0.4286,91,6.046,116,0.475,6.6466,2.1147,0.0515,-0.1738,-0.2051,96,6.467,124,-0.0735,-0.1661,-7.9697,0.3609,-0.1405,0.705,64
6.0,115,2.7085,14.0044,0.1193,-0.1957,-0.5182,0.6886,93,5.854,112,10.1185,-0.6203,-15.0902,0.489,0.3415,-0.2896,91,6.098,117,1.8805,6.6397,1.7445,0.048,0.5981,0.4883,96,6.519,125,2.3133,-1.7302,-7.4668,0.8163,0.6083,0.5616,64
6.052,116,1.8175,12.5788,-0.3004,-0.8531,-0.5853,0.193,93,5.906,113,10.7197,-0.8248,-13.5501,-0.2687,0.9107,0.1193,91,6.15,118,-1.0798,6.1418,-2.4815,-0.3602,1.1825,0.6061,96,6.571,126,-5.7776,0.044,-6.5447,0.875,0.6574,0.4208,64
6.103,117,0.8298,11.6546,-0.4156,-0.8052,-0.352,-0.0634,93,5.957,114,2.4508,-2.0362,-15.4956,-0.3289,1.3445,0.1971,91,6.201,119,-4.8854,6.3451,-1.951,-0.3547,0.7388,0.5051,96,6.622,127,-6.4951,0.5861,-4.4936,1.0452,0.0129,0.379,64
6.155,118,2.9102,11.2959,0.4906,0.0462,-0.6881,-0.3327,93,6.009,115,2.6111,-1.3122,-14.2123,0.4303,0.3095,0.1065,91,6.253,120,-5.0466,4.174,-0.6358,-0.0631,-0.0666,0.1199,96,6.674,128,-6.8969,0.5268,-3.3058,0.4939,-0.5109,0.3899,64
6.207,119,7.1077,14.1907,-2.3365,-0.1319,-1.3601,-0.3028,93,6.061,116,2.6419,-0.293,-12.7384,0.5505,0.8881,0.1237,91,6.305,121,-6.7505,3.7404,-1.2546,0.5044,0.0035,-0.2489,96,6.726,129,-7.94,-0.4331,-1.9726,-0.2774,-0.6949,0.4685,64
6.259,120,10.1713,12.8484,-1.2089,-0.8066,-0.9703,-0.0293,93,6.113,117,0.7749,-0.9272,-12.337,-0.0715,0.5515,0.0243,91,6.357,122,-7.7661,6.0024,-6.1943,0.5342,-0.1023,-0.4079,96,6.778,130,-4.5118,0.9924,3.462,-0.8401,-1.1481,0.4904,64
6.311,121,5.0403,10.8743,-0.2233,-0.5448,-0.2143,0.3152,93,6.165,118,1.4605,-1.3506,-11.4478,0.1539,0.1337,0.166,91,6.409,123,-13.1965,8.564,-9.9113,0.7648,0.6713,-0.9936,96,6.83,131,-0.5451,-3.4565,-3.1606,-0.4188,-0.4515,0.5162,64
6.362,122,3.6481,11.3936,-0.6891,-0.0046,-1.0143,-0.1731,93,6.216,119,6.2815,-1.9635,-15.1538,0.3917,-0.5742,-0.1426,91,6.46,124,-6.9364,7.2972,-7.1041,0.3902,0.0253,-0.3568,96,6.881,132,2.35,-2.4786,-3.9504,0.3179,0.3813,0.6896,64
6.414,123,2.5275,10.0671,-0.6972,-0.5227,-0.2464,-0.4329,93,6.268,120,9.8,-0.9842,-16.0426,-0.2557,-0.4937,-0.1336,91,6.512,125,-3.1993,7.5668,-6.124,0.7837,0.5876,0.2115,96,6.933,133,4.2503,-1.8273,-4.1301,0.4342,0.9892,0.6734,64
6.466,124,1.9352,9.9432,-0.5433,0.1537,-0.5246,-0.384,93,6.32,121,10.3444,-1.6759,-14.2423,-0.868,0.3195,0.0899,91,6.564,126,-5.0099,6.9167,-8.0668,0.0257,1.1749,0.6917,96,6.985,134,-4.5074,-1.2244,-4.808,0.4201,0.4066,0.4863,64
6.518,125,1.2677,10.0824,-0.1186,0.3639,-0.5313,-0.415,93,6.372,122,2.1769,-1.4891,-13.9074,-1.1239,0.9131,0.0959,91,6.616,127,-6.686,7.0728,-5.9678,-0.2676,0.3543,0.7719,96,7.037,135,-5.3924,1.133,-3.0656,0.9463,-0.0363,0.4958,64
6.569,126,2.9562,10.4025,0.895,0.8322,-0.8851,-0.6436,93,6.424,123,1.3987,-1.5044,-13.3022,-0.9496,-0.0054,-0.1425,91,6.668,128,-5.6353,4.1586,-2.7813,-0.2801,-0.1052,0.2469,96,7.088,136,-6.0939,0.4109,-2.5277,0.5638,-0.2729,0.4444,64
6.621,127,7.1413,14.6025,-2.4268,0.295,-1.5039,-0.1594,93,6.476,124,1.2703,-0.7305,-12.3657,-0.0655,0.5722,-0.3367,91,6.719,129,-7.5574,4.315,-1.9127,0.494,0.3683,-0.1289,96,7.14,137,-7.7665,0.1515,-1.8623,-0.2217,-0.2869,0.5673,64
6.673,128,10.1958,13.9455,-1.2946,-0.4781,-1.3754,0.5647,93,6.527,125,0.4319,-0.8927,-12.6898,-0.0387,0.1536,-0.3266,91,6.771,130,-8.1502,3.2984,-1.2067,0.4091,0.6637,-0.0081,96,7.192,138,-7.2308,1.1715,-7.0465,-0.7438,-0.1265,0.4061,64
6.725,129,7.2158,13.4931,-0.0307,-0.2962,-0.51,0.6141,93,6.579,126,1.3564,-1.3896,-11.4861,-0.1613,-0.0938,-0.1184,91,6.823,131,-3.2534,-2.4068,0.7105,-0.3303,0.1458,0.65,96,7.244,139,-2.8892,-4.4477,-10.8144,-1.1807,-0.4017,0.3233,64
6.777,130,2.3757,11.0579,-0.2101,0.0384,-0.5231,0.0347,93,6.631,127,3.6467,-2.4979,-11.3436,0.5526,-0.6004,-0.1725,91,6.875,132,-1.6515,-2.1447,-2.86,-0.389,0.8254,0.1178,96,7.296,140,-0.8556,-3.7203,-11.4054,-0.7269,0.2883,0.7445,64
6.828,131,1.7778,11.5278,0.0145,0.6695,-0.2696,-0.1043,93,6.683,128,7.8771,-1.7967,-15.5202,1.0736,-0.3055,-0.7375,91,6.927,133,1.4896,-4.3032,-3.6922,-0.9373,1.0998,0.7419,96,7.347,141,-0.3308,-2.3956,-8.8395,0.0818,0.9213,0.7771,64
6.88,132,1.123,11.5493,-0.2351,0.3572,-0.2694,-0.1282,93,6.735,129,10.9646,-1.0944,-14.7141,0.3311,0.3877,-0.2079,91,6.978,134,0.1207,0.6973,-8.0851,-1.3374,1.5487,1.1974,96,7.399,142,-1.7557,-1.606,-9.9156,0.7736,1.3833,0.6076,64
6.932,133,0.5808,11.524,-0.3096,-0.4496,-0.3329,-0.0747,93,6.786,130,6.072,-0.9106,-12.7262,-0.1381,0.9629,-0.0113,91,7.03,135,-7.1135,0.4746,-4.1006,-0.6136,1.8763,0.4227,96,7.451,143,-3.6856,-2.5662,-7.3971,0.6374,0.6285,0.3528,64
6.984,134,1.1556,11.3478,0.6607,-0.6562,-0.5555,-0.0575,93,6.838,131,2.511,-1.201,-13.0164,-0.422,0.1258,-0.0605,91,7.082,136,-6.4341,1.2496,-2.6248,-0.0345,0.7637,-0.2109,96,7.503,144,-4.8665,-1.9078,-5.5364,0.5961,-0.1331,0.2895,64
7.036,135,5.8271,13.2659,-0.2832,-0.0004,-1.2633,0.2179,93,6.89,132,4.898,-1.3547,-11.7102,-0.2325,-0.1487,-0.1072,91,7.134,137,-5.7934,1.3071,-0.5024,0.2818,0.5973,-0.6891,96,7.555,145,-5.0996,-1.7228,-4.6704,0.1208,-0.7192,0.1162,64
7.087,136,9.2366,15.3023,-0.9558,0.0228,-0.813,0.4071,93,6.942,133,1.9705,-1.0611,-11.3373,-0.592,0.567,-0.0052,91,7.186,138,-7.482,1.264,0.7488,0.0118,0.7131,-0.4587,96,7.606,146,-6.5733,1.9291,-9.096,0.7515,-0.4113,-0.088,64
7.139,137,8.9219,13.2896,0.2565,-0.3021,-0.1386,0.4412,93,6.994,134,1.7407,-1.8084,-10.4012,-0.0834,-0.0268,0.0116,91,7.237,139,-2.7657,-3.8915,-4.844,-0.4697,-0.0853,0.247,96,7.658,147,-2.0497,-1.3207,-11.8185,-0.0554,-0.2452,-0.3367,64
7.191,138,1.5955,12.7913,-1.1372,0.0368,-0.2859,0.4223,93,7.045,135,3.7997,-0.7318,-9.8945,0.3138,-0.6785,0.1042,91,7.289,140,-1.6388,-2.9332,-7.4084,-0.5746,0.6523,-0.0926,96,7.71,148,0.371,0.2522,-12.1868,-0.0323,0.3357,0.3686,64
7.243,139,2.5775,11.3569,-0.6715,-0.1574,-0.0227,0.0985,93,7.097,136,7.9887,-1.1871,-14.2094,-0.0133,-0.1676,-0.0909,91,7.341,141,1.4989,-6.5938,-5.945,-0.9136,1.2221,0.5884,96,7.762,149,3.0186,-4.2646,-8.9705,0.219,0.9559,0.441,64
7.294,140,1.1608,10.7885,-0.4919,-0.0581,-0.2402,0.0973,93,7.149,137,11.0112,-1.237,-12.2766,-0.1858,0.1779,-0.2275,91,7.393,142,-2.3574,-3.3577,-9.7294,-1.3201,1.6379,1.0853,96,7.813,150,-5.6389,-0.887,-12.13,0.5429,1.4086,0.9247,64
7.346,141,0.3647,10.5656,-0.2165,-0.2101,-0.2653,0.2125,93,7.201,138,4.5904,-2.4988,-10.1338,-0.817,0.8097,0.0774,91,7.445,143,-8.5044,-1.0069,-9.462,-1.0728,0.8831,0.7469,96,7.865,151,-5.1545,-0.4264,-8.81,1.1102,0.6988,0.9588,64
7.398,142,1.4414,10.0449,0.783,0.0255,-0.473,0.247,93,7.253,139,3.7854,-3.6099,-10.5093,0.074,-0.0809,0.0509,91,7.496,144,-6.6205,0.3441,-5.7611,-0.0846,0.0388,0.1806,96,7.917,152,-5.215,-0.5781,-5.8537,0.3912,-0.0875,0.7919,64
7.45,143,6.0358,13.0459,-1.7256,-0.0519,-1.2031,0.6308,93,7.304,140,3.2916,-1.6915,-11.0119,0.7244,0.6148,-0.355,91,7.548,145,-6.6863,1.2174,-3.6623,0.6367,-0.1037,-0.4732,96,7.969,153,-7.1225,-0.3936,-4.031,-0.3523,-0.2154,0.8018,64
7.501,144,9.3889,11.9577,-1.6992,-0.7482,-0.5418,0.5424,93,7.356,141,1.9104,-0.6582,-11.6319,0.0657,0.2947,-0.2237,91,7.6,146,-7.4213,1.7191,-1.0038,0.7221,-0.3115,-0.662,96,8.02,154,-6.9535,-0.3253,-7.8442,-0.6477,-0.1069,0.8929,64
7.554,145,8.1045,10.3604,0.0037,0.0663,0.0774,0.3597,93,7.408,142,2.2102,-1.4361,-11.1954,-0.2631,0.2114,-0.0372,91,7.652,147,-2.7214,-3.4586,4.4659,0.2116,-0.8331,-0.5328,96,8.072,155,-2.3271,-0.6864,-10.4835,-1.0515,-0.381,0.3403,64
7.605,146,1.9629,11.6334,-1.1525,0.6899,-0.4404,0.3857,93,7.46,143,3.3082,-0.3917,-10.6526,0.126,-0.5008,-0.05,91,7.704,148,-0.8128,-4.588,0.386,-0.0667,-0.016,-0.57,96,8.124,156,0.6704,1.9549,-10.7584,-0.5773,0.1821,0.8448,64
7.657,147,1.783,10.314,-0.6431,-0.2056,0.1495,-0.0089,93,7.512,144,7.63,-1.012,-15.7252,-0.5894,-0.1215,0.5115,91,7.756,149,2.1017,-7.9661,-1.0003,-0.3201,0.7343,-0.0123,96,8.176,157,1.969,0.7279,-7.8637,-0.1785,0.8438,0.8857,64
7.709,148,0.5543,9.7583,-0.6304,-0.0335,-0.1975,-0.0729,93,7.563,145,10.7842,-2.055,-13.896,-1.1116,0.1313,0.848,91,7.807,150,-0.0017,-3.405,-6.1176,-0.8869,1.2819,0.4921,96,8.228,158,-3.412,3.6382,-11.4023,-0.08,1.3267,0.9859,64
7.761,149,0.1279,9.698,-0.7255,-0.0218,-0.0733,-0.1036,93,7.615,146,4.1824,-4.025,-13.1613,-1.1053,0.7758,0.92,91,7.859,151,-3.6035,-2.0913,-5.1168,-1.3006,0.3299,0.2296,96,8.279,159,-4.2186,1.8747,-8.9085,0.5147,0.6288,0.7489,64
7.813,150,0.8906,8.9861,-0.0597,0.4439,-0.2994,-0.115,93,7.667,147,4.0398,-2.3571,-14.1097,-0.1363,-0.1057,0.2654,91,7.911,152,-1.5316,-2.0407,-2.0038,-1.5754,-0.365,0.3526,96,8.331,160,-4.4447,0.9356,-6.5231,0.1072,-0.182,0.775,64
7.864,151,5.6338,11.244,-1.3317,0.9565,-1.0764,0.0875,93,7.719,148,3.4395,-0.3739,-13.1852,0.1788,0.589,0.2565,91,7.963,153,-4.8176,-0.9335,-1.4285,-0.9027,0.2794,0.0092,96,8.383,161,-5.622,0.056,-4.5284,-0.5307,-0.5006,0.7379,64
7.916,152,9.0955,12.396,-1.2399,0.4239,-0.4625,0.504,93,7.771,149,1.2429,-0.6744,-12.9083,-0.5509,0.269,0.1344,91,8.015,154,-6.9325,0.4014,-1.1006,-0.7192,0.0655,0.014,96,8.435,162,-6.3295,0.0164,-6.1848,-1.0186,-0.5019,0.9583,64
7.968,153,8.4146,11.7352,0.2793,0.3482,0.0889,0.7369,93,7.823,150,1.6125,-0.9975,-11.4005,-0.3082,-0.1794,0.2086,91,8.066,155,-2.3647,-4.109,-5.5636,-0.7374,-0.555,0.3835,96,8.487,163,-1.8717,3.8597,-10.2013,-1.3813,-0.0378,0.4048,64
8.019,154,1.7408,12.8638,-0.8931,0.1523,-0.2527,0.6146,93,7.874,151,3.2331,-1.3169,-10.5752,-0.7811,-0.4677,0.1401,91,8.118,156,-1.0994,-3.478,-6.0199,-0.667,-0.5286,0.5297,96,8.538,164,-0.0103,5.1299,-10.6012,-0.9441,0.5124,0.6736,64
8.071,155,2.1211,11.6759,-0.6278,-0.5972,-0.1603,0.3181,93,7.926,152,7.5752,-4.7446,-15.2841,-0.1153,-0.0419,-0.0707,91,8.17,157,0.7704,-5.7692,-5.0276,-0.8366,0.3602,0.9914,96,8.59,165,1.3041,6.2823,-6.8777,-0.0283,1.0848,0.7607,64
8.123,156,0.9966,10.8712,-0.2729,-0.946,-0.4586,0.1924,93,7.978,153,10.7441,-3.0854,-14.6372,-0.753,0.2951,0.3697,91,8.222,158,1.2255,0.0023,-9.0598,-0.7347,1.0089,1.1368,96,8.642,166,-2.1145,4.9581,-7.9266,0.4557,1.5027,0.6351,64
8.175,157,0.5174,10.4869,-0.4445,-0.7834,-0.5837,0.0609,93,8.03,154,6.6024,-2.7307,-12.2999,-1.2012,0.8953,0.8426,91,8.273,159,-7.0006,2.2824,-8.5446,0.1392,1.3173,0.4572,96,8.694,167,-2.4517,2.0012,-6.4734,0.2615,0.4558,0.439,64
8.227,158,1.8705,9.9585,0.4658,-0.3478,-0.8638,-0.1488,93,8.082,155,1.8729,-1.8972,-12.5325,-0.5452,0.0381,0.6924,91,8.325,160,-6.4727,2.8238,-6.2401,0.3055,0.3557,-0.1521,96,8.745,168,-3.7719,1.2917,-5.2826,0.2555,-0.308,0.3594,64
8.278,159,6.3489,11.2378,-0.5405,0.0124,-1.4717,0.0293,93,8.133,156,4.8946,-0.2614,-11.3498,0.2489,-0.5294,0.3032,91,8.377,161,-6.9071,2.4497,-3.598,0.0661,0.1498,-0.4037,96,8.797,169,-4.7811,0.8456,-3.9881,0.2093,-0.8249,0.3144,64
8.33,160,9.6175,10.8094,-1.6328,-0.7012,-0.5803,0.3064,93,8.185,157,2.8581,0.1722,-10.6023,0.0901,0.2935,0.0755,91,8.429,162,-7.601,2.0749,-0.9575,-0.4275,0.0211,-0.4426,96,8.849,170,-4.677,0.7306,-8.598,0.023,-0.5861,0.3098,64
8.382,161,7.9983,9.5659,-0.048,-0.5034,0.0704,0.3797,93,8.237,158,2.4691,0.3791,-9.2924,0.0788,0.0104,-0.3861,91,8.481,163,-4.0742,-3.2998,-6.0893,-0.83,-0.5903,0.3329,96,8.901,171,-0.6656,3.3722,-6.2394,-0.4068,-0.6501,0.0604,64
8.434,162,1.3392,10.5467,-1.7449,-0.6999,-0.2375,0.2159,93,8.289,159,5.1418,1.703,-10.317,-0.6239,-0.3557,-0.4426,91,8.532,164,-2.0938,-3.6403,-7.5919,-0.5169,0.3029,0.0213,96,8.953,172,0.4478,6.6822,-8.2464,0.0206,0.1691,0.6886,64
8.486,163,1.9575,9.4526,-2.08,-1.2211,-0.1141,0.0227,93,8.341,160,8.9682,2.3008,-15.3635,-1.1368,0.4203,0.3415,91,8.584,165,-1.258,-5.7784,-4.633,-0.8808,0.9671,0.5495,96,9.004,173,2.745,4.9295,-6.5127,0.5927,0.8343,0.6095,64
8.537,164,1.1216,8.9581,-1.9564,-1.0484,-0.533,0.1256,93,8.392,161,11.761,-1.752,-15.5355,-1.5111,0.4712,0.1094,91,8.636,166,-3.0519,-1.956,-6.2496,-1.2962,1.4518,1.057,96,9.056,174,-2.5817,5.3565,-10.4405,1.1465,1.3198,0.66,64
8.589,165,0.0426,8.261,-1.8636,-0.4405,-0.5088,0.3053,93,8.444,162,5.2655,-1.5694,-12.6756,-1.0357,1.0238,0.0631,91,8.688,167,-8.0261,-0.4452,-3.3034,-0.8075,1.78,0.4856,96,9.108,175,-3.8381,2.2592,-7.5367,0.7887,0.4728,0.4737,64
8.641,166,0.5662,7.6544,-1.6306,0.3199,-1.0157,0.3902,93,8.496,163,2.8681,-5.3763,-13.295,-1.4281,0.0875,-0.1144,91,8.74,168,-7.638,-0.4423,-2.1509,-0.1809,0.6934,0.2508,96,9.16,176,-4.5383,1.5964,-6.2168,0.5617,-0.2958,0.4226,64
8.693,167,5.397,8.4496,-3.9273,0.875,-1.5992,0.5621,93,8.548,164,3.206,-2.1604,-14.1307,-0.3719,0.1874,-0.3049,91,8.792,169,-6.9051,0.7099,-0.7934,0.5225,0.1266,-0.291,96,9.212,177,-5.2369,0.3018,-4.5088,-0.15,-0.8286,0.2927,64
8.744,168,8.9227,8.9488,-4.7066,-0.0717,-0.8881,0.4312,93,8.6,165,1.9281,-0.3416,-12.7953,-0.0624,0.3148,-0.1493,91,8.843,170,-7.2715,1.1529,0.2973,1.0436,0.3752,-0.8225,96,9.263,178,-6.3545,-1.2541,-8.978,-0.6794,-1.1273,0.2336,64
8.796,169,5.737,6.1929,-1.2284,-0.2171,-0.1543,0.4488,93,8.652,166,1.1422,-0.7249,-11.7464,-0.1335,-0.0229,0.1135,91,8.895,171,-7.7049,-1.6843,0.1454,0.4713,0.0309,-1.0011,96,9.315,179,-1.8899,-6.218,-6.7311,-0.7703,-1.3073,0.2121,64
8.848,170,2.9101,8.5051,-2.385,0.483,-0.9285,0.8563,93,8.704,167,6.049,0.3102,-14.243,0.072,-0.6886,-0.2956,91,8.947,172,-2.9284,-1.3129,0.5929,0.2926,0.0247,-0.6937,96,9.367,180,0.4198,-3.4803,-6.4917,-0.2776,-0.2432,0.5362,64
8.9,171,2.161,9.1998,-2.2145,-0.3578,-0.2906,0.4815,93,8.755,168,9.6304,0.4835,-14.6899,0.6199,0.0234,-0.6764,91,8.999,173,-3.5847,0.6708,1.0756,0.0202,0.764,0.0421,96,9.419,181,1.6215,-2.7111,-6.1689,-0.055,0.5334,0.5117,64
8.952,172,0.8198,9.8711,-1.9387,-0.9328,-0.3513,0.3462,93,8.807,169,11.2924,-0.1292,-13.0824,0.2651,0.6033,-0.4423,91,9.051,174,-7.3034,0.6075,-3.9504,0.6412,1.3036,-0.3334,96,9.471,182,-3.8079,0.0043,-6.5188,0.6091,0.8327,0.4509,64
9.004,173,0.2566,9.9396,-1.9894,-1.2254,-0.3303,0.1797,93,8.859,170,3.2401,-2.1176,-13.5647,-0.2801,1.1202,0.0934,91,9.102,175,-8.8349,0.8568,-3.5459,-0.0046,0.378,-0.6189,96,9.522,183,-4.8062,-0.0245,-5.0358,0.5872,0.1418,0.2707,64
9.055,174,2.0966,8.8338,-0.8881,-0.7959,-0.8562,-0.1363,93,8.911,171,2.5006,-2.1533,-12.2903,0.4659,0.1458,-0.0376,91,9.154,176,-6.8153,1.6269,-2.0778,0.6086,-0.3298,-0.9252,96,9.574,184,-5.5733,-0.7477,-3.4849,1.0263,-0.3231,0.2817,64
9.107,175,6.5139,10.1714,-4.6198,-0.2628,-1.4827,-0.7361,93,8.963,172,2.3926,-0.062,-11.41,1.0104,0.1945,0.144,91,9.206,177,-8.239,1.8907,-1.1396,1.1426,0.0554,-1.2993,96,9.626,185,-7.337,-0.858,-2.7564,0.2565,-0.4931,0.3577,64
9.159,176,9.7379,9.1341,-2.3402,-0.5187,-1.245,-0.358,93,9.014,173,1.1345,0.5244,-11.4653,0.3311,0.0186,0.364,91,9.258,178,-10.311,6.7562,-6.2222,1.4432,-0.375,-1.468,96,9.678,186,-2.607,2.314,1.6297,-0.0947,-0.7293,0.1422,64
9.211,177,3.5775,7.3777,-1.0637,0.1115,-0.4148,0.3368,93,9.066,174,1.9422,0.398,-10.6905,-0.2457,-0.5237,0.4332,91,9.31,179,-12.4274,6.3167,-9.9317,1.542,0.4723,-1.7672,96,9.729,187,-0.2367,1.5219,-3.1218,-0.0388,-0.1195,0.3528,64
9.263,178,2.116,10.0153,-0.7953,0.2188,-1.1606,0.0217,93,9.118,175,6.6331,-1.3497,-15.7529,-0.2767,-1.054,-0.2177,91,9.361,180,-6.3751,2.1214,-8.2394,0.7374,1.0374,-1.0661,96,9.781,188,2.5751,0.4568,-1.9509,0.1534,0.6236,0.5671,64
9.314,179,0.9837,8.1675,-1.3402,-0.5506,-0.4524,-0.3901,93,9.17,176,10.0566,-1.5664,-14.0623,-0.625,-0.6468,-0.4253,91,9.413,181,-3.7747,3.2047,-7.8643,0.4867,1.5032,-0.3154,96,9.833,189,1.6141,-1.082,-4.7653,0.7085,1.1661,0.4163,64
9.366,180,0.5276,8.6107,-1.0319,0.139,-0.4178,-0.3352,93,9.222,177,6.8266,-2.7997,-13.887,-0.9524,0.2079,-0.1017,91,9.465,182,-6.7532,2.7414,-7.0748,0.3802,1.8431,-0.2265,96,9.885,190,-2.0273,-1.952,-4.947,-0.1207,0.3524,0.2267,64
9.418,181,0.3145,10.0208,-0.258,0.542,-0.3001,-0.5681,93,9.273,178,1.9521,-2.3489,-15.1679,-0.0248,-0.4349,0.5011,91,9.517,183,-7.2117,2.7532,-5.1187,-0.2228,0.7394,-0.1923,96,9.937,191,-3.0572,-1.7597,-3.6498,-0.1932,-0.1941,0.4535,64
9.47,182,4.4961,10.1877,0.2243,0.2084,-0.8936,-1.0118,93,9.325,179,4.22,0.3733,-13.2325,0.2108,-0.8788,0.6611,91,9.569,184,-6.6575,2.5729,-3.3194,0.4657,0.2413,-0.3999,96,9.988,192,-4.5428,-2.1243,-2.9247,-0.5448,-0.5062,0.646,64
9.521,183,8.2652,10.976,-1.4796,-0.219,-0.9668,-0.8226,93,9.377,180,1.5184,0.064,-12.8138,-0.5276,-0.1171,0.8097,91,9.62,185,-8.6295,2.8054,-1.6487,0.6152,0.3712,-0.6091,96,10.04,193,-5.68,-1.8279,-4.5118,-1.0355,-0.5401,0.8528,64
9.573,184,9.82,10.4569,-0.3138,0.0556,-0.9723,0.0847,93,9.429,181,1.9245,0.4574,-11.3644,-0.814,-0.7565,0.7459,91,9.672,186,-3.6032,-0.6153,3.9952,0.1335,-0.3348,-0.1266,96,10.092,194,-1.3977,0.9359,-8.9802,-1.0561,-0.7194,0.0784,64
9.625,185,3.7883,13.3997,0.101,0.3952,-0.2158,0.7469,93,9.481,182,3.2008,-1.1596,-11.8938,-1.0057,-0.7028,0.4078,91,9.724,187,0.0652,-4.5339,2.8322,-0.244,-0.6479,0.4598,96,10.144,195,1.0215,5.1224,-9.6303,-0.7073,-0.4047,0.352,64
9.677,186,3.2682,12.135,-0.5182,-0.4219,-1.0154,-0.1216,93,9.532,183,7.5516,-2.7706,-15.9486,-0.0637,-1.1848,-0.376,91,9.776,188,2.7425,-6.3015,-0.2944,-0.7454,0.1855,0.9074,96,10.195,196,3.4934,5.6187,-6.2517,-0.1511,0.4155,0.7515,64
9.729,187,1.3617,11.3282,-1.4261,-1.0182,-0.2889,-0.5472,93,9.584,184,10.7269,-1.9515,-15.8159,-0.5442,-0.6703,-0.2583,91,9.828,189,4.5725,-1.9533,-0.0065,-1.1028,0.8655,1.3182,96,10.247,197,0.2218,2.622,-6.3235,0.6036,1.0141,0.4439,64
9.78,188,1.1615,10.3258,-1.6587,-0.6628,-0.4187,-0.6256,93,9.636,185,7.3295,-2.4028,-13.5253,-0.8484,0.1907,0.2498,91,9.879,190,-0.8526,-1.5222,-0.3026,-0.5092,1.3777,0.4267,96,10.299,198,-1.8924,-0.7739,-5.4608,0.9033,0.1178,0.3247,64
9.832,189,1.0889,9.6339,-0.6911,0.0928,-0.7916,-0.5141,93,9.688,186,1.6194,-2.2663,-14.1679,-0.0166,-0.2508,0.6553,91,9.931,191,-2.4661,-0.6065,0.268,-0.5448,0.3998,0.0867,96,10.351,199,-3.0031,0.262,-3.5189,1.1731,-0.3801,0.4007,64
9.884,190,5.7784,9.7896,-2.3338,0.7079,-1.4356,-0.2368,93,9.74,187,3.8061,-0.2886,-12.7607,0.4349,0.1371,0.5103,91,9.983,192,-3.2038,0.4504,0.9088,0.1013,0.0665,-0.2033,96,10.403,200,-4.5469,0.2159,-3.1896,0.4764,-0.7204,0.4393,64
9.936,191,9.2011,10.8745,-3.8368,0.5809,-0.6903,0.4005,93,9.792,188,0.965,-0.454,-13.7666,-0.364,0.6077,0.339,91,10.035,193,-5.5774,0.7493,1.5177,0.1076,-0.144,-0.1872,96,10.455,201,-5.9329,-0.6553,-6.2769,-0.2185,-0.7994,0.5696,64
9.988,192,10.3296,9.194,-2.4655,0.4022,-0.2282,0.8192,93,9.843,189,0.5674,-1.1037,-14.6801,-0.4219,0.0071,0.3806,91,10.087,194,-1.3757,-4.2315,6.3062,-0.2369,-0.7108,0.1798,96,10.506,202,-1.5822,3.5131,-9.6396,-0.7973,-0.2153,0.1833,64
10.039,193,3.8077,10.1801,-2.0276,0.935,0.3273,1.2156,93,9.895,190,1.9365,0.2655,-14.5207,-0.9893,-0.6667,0.4359,91,10.138,195,1.1961,-2.5276,3.0871,-0.2946,0.0985,-0.248,96,10.558,203,0.0512,5.7054,-10.3534,-0.4435,0.2003,0.5554,64
10.091,194,2.0363,10.9183,-1.3587,1.1735,-0.4973,1.0144,93,9.947,191,6.6289,-2.8707,-18.5484,-1.4035,-1.1584,0.3193,91,10.19,196,3.5679,-3.4145,0.9942,-0.4964,0.5609,0.4112,96,10.61,204,1.0204,5.0225,-7.4288,0.3446,0.8571,0.6577,64
10.143,195,1.616,11.029,-1.7517,0.4888,-0.3231,0.586,93,9.999,192,9.8615,-7.1402,-17.6906,-0.7955,-0.6197,-0.2269,91,10.242,197,1.5682,0.5409,-3.4961,-1.0156,1.1554,0.956,96,10.662,205,-0.9072,3.4132,-7.7626,0.965,1.3364,0.5426,64
10.195,196,0.7924,11.3908,-1.8453,-0.3536,-0.2698,0.2321,93,10.051,193,4.4782,-6.2195,-14.4772,0.0898,-0.0337,0.0789,91,10.294,198,-2.9434,0.6173,-1.9543,-0.0428,1.5893,0.2375,96,10.714,206,-2.8451,1.7803,-5.9558,0.9094,0.6572,0.3904,64
10.246,197,0.5275,10.3634,-1.5345,-0.6173,-0.5689,-0.0603,93,10.102,194,1.5179,-4.3154,-13.006,0.3955,-0.0509,0.628,91,10.346,199,-3.9484,1.0206,-2.0658,-0.2064,0.5542,-0.4855,96,10.765,207,-4.3012,0.8956,-4.9806,0.5967,0.0138,0.4188,64
10.298,198,5.3687,10.8029,-3.4896,-0.1621,-1.2731,-0.1533,93,10.154,195,2.4275,-1.8737,-10.6094,-0.3689,-0.3217,1.1228,91,10.397,200,-5.3206,1.259,-1.0127,0.3625,0.3993,-0.6174,96,10.817,208,-5.6751,-0.1713,-4.486,0.0608,-0.556,0.3878,64
10.35,199,8.9021,11.5365,-5.5671,-0.8285,-0.4707,-0.244,93,10.206,196,1.5189,-0.9733,-9.8977,-0.9506,-0.1346,1.2998,91,10.449,201,-7.5463,1.9402,-0.7352,-0.1937,0.0762,-0.4332,96,10.869,209,-5.7463,0.6224,-8.9614,-0.1719,-0.4732,0.3806,64
10.402,200,9.8305,9.919,-2.8332,-1.315,0.0543,-0.2275,93,10.258,197,1.7074,-3.4343,-10.3099,-0.9065,0.294,1.1181,91,10.501,202,-2.8126,-3.398,-0.7185,-0.7947,-0.5501,0.1787,96,10.921,210,-1.446,-0.6496,-10.604,-0.7262,-0.4848,0.0516,64
10.454,201,2.0557,9.018,-3.2959,-0.8001,0.5022,0.1981,93,10.31,198,2.8541,-4.051,-13.774,0.0087,0.1928,0.6844,91,10.553,203,0.1247,-1.7571,-3.1863,-0.6988,-0.2724,0.1299,96,10.972,211,0.2635,1.0741,-11.39,-0.4846,-0.144,0.4138,64
10.506,202,1.8895,8.8978,-2.7801,-0.5129,0.013,-0.3775,93,10.361,199,7.2986,-0.7941,-18.0034,-0.515,0.2926,0.8098,91,10.605,204,2.786,-4.4236,-3.8338,-0.7895,0.4031,0.6715,96,11.024,212,2.0213,1.3492,-7.4164,-0.0224,0.6058,0.4584,64
10.557,203,0.2487,8.2627,-2.2885,-0.2813,0.2613,-0.7315,93,10.413,200,10.3067,-5.4538,-19.7485,-1.0573,0.893,0.7802,91,10.657,205,1.2312,-0.5285,-8.1867,-1.136,1.0402,0.9435,96,11.076,213,-2.8976,1.31,-8.138,0.6975,1.153,0.3911,64
10.609,204,0.1772,8.4139,-2.0874,0.338,0.241,-0.7604,93,10.465,201,5.6413,-6.2124,-16.8083,-0.1013,1.3316,-0.0443,91,10.708,206,-6.4774,1.2634,-4.4486,-0.6033,1.5052,0.3412,96,11.128,214,-1.8905,0.1408,-5.4219,1.0473,0.2006,0.2364,64
10.661,205,0.6388,9.4603,-1.5594,0.8864,0.0551,-0.6542,93,10.517,202,2.1278,-4.2435,-15.439,0.4487,0.3663,-0.236,91,10.76,207,-4.1068,-0.3343,-1.284,-0.949,0.4928,0.4992,96,11.18,215,-3.4829,0.0977,-3.2847,1.1983,-0.1197,0.0755,64
10.713,206,5.4499,10.8031,-3.0452,0.5683,-0.8176,-0.6244,93,10.569,203,2.7758,-4.1047,-13.9063,-0.101,0.2484,0.1634,91,10.812,208,-6.4185,1.1443,-0.9922,-0.0301,1.1057,0.3004,96,11.231,216,-5.9304,-0.8765,-3.1041,0.7133,-0.0291,-0.0123,64
10.764,207,8.9614,12.8481,-2.9918,0.4381,-0.3382,0.0483,93,10.621,204,2.2363,-4.56,-13.0121,0.3362,-0.1218,0.3249,91,10.864,209,-7.7308,1.6057,-1.5574,0.3013,0.7379,0.1282,96,11.283,217,-7.0774,-0.8177,-3.3206,0.6004,-0.1613,0.0932,64
10.816,208,9.463,11.4295,-1.0969,0.5641,0.2181,0.4992,93,10.672,205,2.0349,-2.9506,-11.918,0.9157,-0.2187,0.3687,91,10.916,210,-3.1015,1.8262,-0.4699,-0.1165,-0.0672,0.4115,96,11.335,218,-2.4175,0.3913,-5.0047,-0.1996,0.2541,0.211,64
10.868,209,2.0567,13.1647,-1.8065,0.9424,0.3648,0.9482,93,10.724,206,2.6004,-2.8026,-11.1079,0.7148,-0.1322,0.3274,91,10.967,211,-0.7331,-3.3303,-2.493,-0.4224,-0.6548,0.8413,96,11.387,219,-1.233,1.0261,-8.4931,0.2312,0.8266,0.3638,64
10.92,210,2.6073,12.9364,-1.4376,-0.0225,0.4398,0.4664,93,10.776,207,7.1134,-5.7859,-16.0575,0.1271,-0.7684,-0.155,91,11.019,212,1.6273,-6.4858,-1.1111,-0.4188,0.2677,0.8178,96,11.439,220,0.3933,1.9456,-6.0074,0.6968,1.3142,0.5169,64
10.972,211,1.2735,12.3709,-1.07,-0.7267,0.2325,0.2477,93,10.828,208,10.4072,-5.2878,-16.2251,-0.5887,-0.1198,-0.0932,91,11.071,213,0.6414,-2.3968,-5.1605,-0.8772,0.9414,1.2076,96,11.491,221,-4.0594,1.9369,-6.3276,1.2195,1.67,0.4732,64
11.023,212,0.3901,11.3907,-1.1486,-0.9627,0.2711,-0.0321,93,10.88,209,6.1655,-6.7042,-14.768,0.1273,0.5925,-0.181,91,11.123,214,-4.8248,-1.1062,-2.2609,-0.2197,1.4331,0.6389,96,11.542,222,-3.6097,-0.1121,-4.1903,1.0802,0.5879,0.2731,64
11.075,213,0.9936,10.5044,-0.5772,-0.0612,0.0705,-0.2454,93,10.931,210,3.1103,-4.3043,-14.1429,0.7632,-0.2394,0.0065,91,11.175,215,-4.9437,-1.1878,-0.8274,-0.3067,0.4402,0.3847,96,11.594,223,-4.5222,-0.469,-2.88,0.3531,0.1171,0.3397,64
11.127,214,5.4883,12.3188,-2.2645,0.5968,-0.7765,-0.2569,93,10.983,211,5.2854,-2.0916,-13.2879,1.2274,-0.475,-0.0915,91,11.226,216,-5.8028,-0.0719,-0.4065,0.4427,0.6152,0.1946,96,11.646,224,-5.8489,-0.6932,-2.296,-0.3509,0.0034,0.5141,64
11.179,215,8.9893,14.4883,-2.9904,0.0506,-0.0729,0.1155,93,11.035,212,3.2655,0.2321,-12.5324,0.7278,0.2585,-0.1331,91,11.278,217,-7.8462,0.3336,-0.1954,0.3449,0.7014,0.1118,96,11.698,225,-7.1112,-0.3534,-1.2881,-0.894,0.1252,0.7957,64
11.23,216,8.8035,11.6355,-1.0248,0.0327,0.1673,0.5151,93,11.087,213,2.3567,-0.5637,-11.7162,-0.1502,0.1742,-0.4127,91,11.33,218,-3.0315,-3.346,5.0559,0.0332,-0.0938,0.1557,96,11.75,226,-2.4422,5.0283,3.9615,-1.2903,-0.5495,0.5224,64
11.282,217,2.9663,12.7673,-2.1249,0.6653,0.0278,1.0416,93,11.139,214,3.7983,-1.4092,-11.3239,-0.791,-0.5182,-0.3062,91,11.382,219,0.4824,-6.2659,2.5181,-0.4919,-0.6277,0.6675,96,11.801,227,-2.0424,8.9561,-0.7788,-0.5663,0.2058,0.5787,64
11.334,218,3.1873,12.6593,-1.3686,-0.2247,-0.0992,0.6777,93,11.19,215,7.9877,-2.8272,-15.5303,0.0928,-0.794,-0.8106,91,11.434,220,3.047,-8.7621,0.7544,-0.8612,0.2879,1.1088,96,11.853,228,1.2572,8.7045,0.5301,0.3006,0.8611,0.7187,64
11.386,219,1.1537,10.5644,-1.2376,-0.8743,-0.267,0.3635,93,11.242,216,11.0453,-3.0603,-15.4159,-0.5164,-0.4579,-0.6853,91,11.485,221,2.9504,-1.647,-4.8399,-1.2224,0.9561,1.4209,96,11.905,229,-0.5395,4.5057,-4.8198,0.9333,1.3393,0.4078,64
11.438,220,0.7226,9.5753,-0.8991,0.0018,-0.2801,0.3047,93,11.294,217,6.2327,-3.6084,-12.4335,-0.3081,0.3457,-0.2486,91,11.537,222,-5.7416,-1.8477,-7.2321,-1.4386,1.3815,0.3412,96,11.957,230,-0.5806,1.818,-5.1062,1.191,0.3366,0.2851,64
11.489,221,0.7636,10.9693,-0.271,0.6428,-0.2171,-0.1,93,11.346,218,1.9608,-2.1555,-11.5413,0.4455,-0.4195,-0.0914,91,11.589,223,-5.8979,-0.7125,-6.0158,-1.5333,0.4026,0.0531,96,12.009,231,-1.6102,0.5332,-3.612,0.9671,-0.3952,0.3764,64
11.541,222,5.541,12.864,-0.8326,0.422,-0.9438,-0.2621,93,11.398,219,3.7692,-0.9589,-10.1042,0.6336,-0.6843,-0.0251,91,11.641,224,-5.2461,-0.629,-3.122,-0.9932,0.121,-0.23,96,12.06,232,-3.5791,-0.3292,-2.9823,0.8962,-0.9274,0.4208,64
11.593,223,9.0278,14.2981,-2.2773,-0.4023,-0.195,0.4907,93,11.449,220,2.6158,-0.6476,-9.8001,-0.207,0.0127,-0.0316,91,11.693,225,-7.4084,0.0565,-2.5302,-0.2151,-0.0626,-0.4917,96,12.112,233,-4.0709,-0.5459,-4.4851,0.4269,-0.9978,0.4602,64
11.645,224,9.2279,11.9995,-1.0322,0.2104,0.3386,0.548,93,11.501,221,1.4079,-1.0247,-9.8493,0.2737,0.1919,-0.0098,91,11.744,226,-2.712,-4.7728,3.3519,-0.4724,-0.6514,-0.0409,96,12.164,234,-0.2233,0.5376,-4.8046,-0.3262,-0.6981,-0.1234,64
11.696,225,1.1307,12.7674,-3.0941,0.7647,0.3367,0.5092,93,11.553,222,3.6365,-1.6474,-10.0427,-0.0998,-0.5,0.0513,91,11.796,227,0.7156,-4.3305,1.026,-0.4974,-0.9955,0.4545,96,12.216,235,0.4358,2.3987,-7.9788,0.0174,-0.2275,0.3389,64
11.748,226,4.2684,13.6718,-2.534,-0.1507,-0.4453,0.0472,93,11.605,223,7.8696,-2.3323,-14.5432,0.5971,-0.7238,-0.3685,91,11.848,228,3.2172,-4.2256,-0.2234,-0.7401,-0.5307,0.9876,96,12.268,236,2.8772,1.985,-5.5999,0.4341,0.5448,0.6462,64
11.8,227,0.8004,11.182,-2.4337,-0.8203,-0.3626,-0.1481,93,11.657,224,10.9591,-1.1238,-14.6228,0.5129,-0.6779,-0.2049,91,11.9,229,3.3567,-0.0596,-1.2584,-1.0822,0.3587,1.3767,96,12.319,237,1.6392,-0.6392,-7.8693,1.0083,1.1085,0.4652,64
11.852,228,0.9827,10.1913,-2.1101,-0.3209,-0.3482,-0.2833,93,11.709,225,8.6799,-0.8706,-12.3673,-0.3071,0.1852,0.1801,91,11.952,230,-2.12,-0.3206,-0.0194,-0.55,1.0078,0.3254,96,12.371,238,-2.7841,-0.4213,-6.8023,0.546,0.271,0.24,64
11.904,229,1.6052,10.0051,-0.9847,0.4004,-0.4261,-0.565,93,11.76,226,0.9963,-1.3636,-12.8809,-0.2807,-0.0882,0.1331,91,12.004,231,-3.1374,-0.5472,0.0148,-0.7506,0.1298,0.3092,96,12.423,239,-3.6807,-1.1311,-5.0918,0.8684,-0.3356,0.4216,64
11.955,230,6.0717,10.2484,-0.8436,0.9337,-1.1233,-0.7011,93,11.812,227,2.3755,-1.2203,-11.191,0.4345,-0.7362,0.0566,91,12.055,232,-3.2655,0.4816,0.8731,-0.1561,0.035,0.0232,96,12.475,240,-4.9068,-0.3446,-3.4595,0.3207,-0.7563,0.5434,64
12.007,231,9.4152,12.569,-2.0926,0.1014,-0.531,-0.0731,93,11.864,228,1.2573,-0.1558,-10.8121,0.2866,-0.0436,0.1867,91,12.107,233,-5.7003,2.0899,1.301,0.5845,0.1574,-0.3729,96,12.527,241,-6.4562,-0.5207,-2.6569,-0.4038,-0.8051,0.5899,64
12.059,232,10.3391,10.4933,-0.63,-0.3361,-0.0849,0.1808,93,11.916,229,1.4576,-0.488,-10.9663,0.0575,-0.2971,0.0523,91,12.159,234,-8.2756,6.9369,-4.4409,0.9157,-0.191,-0.8422,96,12.578,242,-1.9642,3.7022,2.9625,-0.9325,-1.2284,0.2563,64
12.111,233,2.7593,10.1406,-0.8618,0.3413,0.4319,0.7443,93,11.968,230,2.4271,-0.2227,-10.6357,-0.0872,-0.4977,-0.005,91,12.211,235,-3.3449,3.2671,-2.09,0.3529,-0.7434,-0.2926,96,12.63,243,-1.0604,4.1696,-2.7402,-0.1552,-0.1879,0.3794,64
12.162,234,3.2611,10.988,-0.4113,0.3456,-0.4799,0.3685,93,12.019,231,6.987,-2.3678,-15.7129,-0.7066,-1.0351,-0.0692,91,12.262,236,0.2537,3.2839,-3.0361,-0.332,-0.2825,0.2731,96,12.682,244,1.9739,3.7154,-3.5174,0.5765,0.5738,0.6706,64
12.214,235,0.9386,11.3188,-0.4604,-0.4495,0.0407,0.2963,93,12.071,232,10.3149,-1.5859,-15.9687,-1.0732,-0.6813,0.0496,91,12.314,237,2.8801,3.3967,-4.439,-0.0192,0.5398,0.8482,96,12.734,245,4.1885,-0.0145,-5.1399,0.3607,1.1297,0.6885,64
12.266,236,0.5685,10.2346,-0.3993,-0.6538,-0.2053,0.1022,93,12.123,233,8.315,-2.02,-13.9881,-1.429,0.1826,0.5024,91,12.366,238,-1.6892,4.7343,-5.5831,0.294,1.14,1.1429,96,12.785,246,-4.7851,2.4153,-4.8231,0.6018,0.6781,0.485,64
12.318,237,0.2204,9.2617,-0.1431,0.1643,-0.0615,-0.4221,93,12.175,234,0.6957,-2.3906,-15.1411,-0.7764,-0.1896,0.4884,91,12.418,239,-2.6533,3.7498,-3.9542,-0.0956,0.2263,0.6724,96,12.837,247,-6.4207,0.6171,-3.8222,1.1531,-0.1372,0.6862,64
12.37,238,3.8244,10.3202,-0.6806,0.7613,-0.4575,-0.6387,93,12.227,235,3.4904,-1.7039,-13.6824,0.1037,-0.8102,0.3514,91,12.47,240,-0.7998,2.3668,-1.2913,-0.2265,-0.2753,0.1111,96,12.889,248,-6.2694,1.5083,-2.4418,0.5566,-0.7406,0.6092,64
12.421,239,7.775,13.576,-3.1425,0.0415,-0.1908,0.1331,93,12.278,236,2.7172,-0.0311,-12.7978,-0.4121,0.0834,0.4535,91,12.521,241,-4.2262,2.8809,0.1508,0.1699,0.1224,0.0591,96,12.941,249,-7.3214,-0.4886,-1.5941,-0.2316,-0.8394,0.516,64
12.473,240,10.6583,12.8776,-0.4509,-0.68,-0.576,0.7822,93,12.331,237,0.8216,-1.3895,-12.8051,-0.4364,0.1651,0.3602,91,12.573,242,-6.9035,7.8775,-5.2804,0.4888,0.0976,-0.3147,96,12.993,250,-13.1855,2.8768,3.7382,-0.6077,-1.2535,0.4745,64
12.525,241,2.2254,12.9927,-0.8777,-0.3141,0.0735,1.2559,93,12.382,238,1.7105,-1.0464,-11.8558,-0.0391,-0.5366,0.289,91,12.625,243,-12.2489,11.5145,-9.2322,0.8803,-0.1966,-0.9217,96,13.044,251,-6.8755,0.436,0.0978,-0.3113,-0.735,0.5137,64
12.577,242,3.4105,12.2379,-0.1007,-0.1118,-0.5098,0.5348,93,12.434,239,6.4639,-2.6652,-15.3784,0.1552,-1.0635,0.0372,91,12.677,244,-9.1126,7.7148,-12.1285,0.6346,-0.2872,-0.4151,96,13.096,252,-2.2702,-0.1842,-2.1684,-0.0646,0.1333,0.8513,64
12.628,243,1.6443,12.0573,-0.2843,-0.3895,0.0123,0.2941,93,12.486,240,9.9332,-1.1054,-15.9129,0.7836,-0.5797,-0.3184,91,12.729,245,-6.0496,7.8589,-9.8925,0.8558,0.2951,0.0664,96,13.148,253,0.4429,-1.7756,-2.389,0.5541,0.8082,0.609,64
12.68,244,0.4876,11.7025,-0.4092,-0.8943,-0.0644,0.1194,93,12.538,241,9.672,-0.8957,-13.4443,0.8151,0.2568,-0.3648,91,12.78,246,-8.1318,5.3561,-8.6617,0.1637,0.934,-0.1374,96,13.2,254,-5.4842,-1.0538,-3.7793,-0.1658,0.2058,0.5301,64
12.732,245,0.8315,10.6416,-0.2989,-0.4237,-0.1794,-0.3357,93,12.59,242,1.6861,-1.4281,-14.1915,-0.0865,0.8673,-0.738,91,12.832,247,-6.3408,4.8435,-3.8503,-0.3188,0.0759,-0.1453,96,13.252,255,-5.5485,-0.8155,-1.9042,0.1601,-0.214,0.5071,64
12.784,246,2.0293,11.0081,0.2048,0.3322,-0.3172,-0.3406,93,12.641,243,3.3337,-3.145,-13.4486,0.5533,0.4248,-0.6568,91,12.884,248,-7.5837,3.9898,-2.2611,0.092,0.6812,0.0401,96,13.303,256,-6.4499,-0.5256,-2.2643,0.0724,0.1282,0.4504,64
12.836,247,6.4648,15.0094,-2.1424,-0.3344,-1.0894,0.0103,93,12.693,244,1.7271,-1.9248,-13.2792,-0.0477,0.5691,-0.3622,91,12.936,249,-9.1621,5.4113,-2.9785,0.7099,1.0052,0.1578,96,13.355,257,-8.8385,-0.4151,-2.7754,0.0197,0.2996,0.58,64
12.887,248,9.702,12.1241,-0.8451,-0.9438,-0.9835,0.0981,93,12.745,245,1.4791,-2.3318,-12.7616,0.6356,0.7492,-0.139,91,12.988,250,-11.0266,9.7243,-7.5643,0.274,0.2677,-0.4057,96,13.407,258,-3.7028,1.6998,2.8054,-0.6235,-0.4222,0.4415,64
12.939,249,5.0265,12.0982,-0.351,-0.1959,-0.2239,0.7074,93,12.797,246,2.1391,-0.2394,-11.7992,0.8995,-0.0121,-0.1558,91,13.039,251,-6.9451,12.8721,-6.4849,0.021,-0.0724,-0.7541,96,13.459,259,-2.6621,2.4263,-2.913,0.0663,0.3217,0.5005,64
12.991,250,3.353,12.4858,-0.4342,-0.7186,-1.0213,0.3339,93,12.849,247,6.7768,-0.1435,-13.4828,-0.0249,-0.6807,-0.5109,91,13.091,252,-2.3739,11.254,-4.1929,-0.4831,-0.6366,0.0897,96,13.511,260,0.8049,1.9237,-2.9892,0.7593,0.9457,0.5421,64
13.043,251,1.3345,11.0332,-0.1102,-0.9704,-0.5017,0.1012,93,12.901,248,10.1615,-1.0303,-14.3791,-0.6996,-0.0928,-0.5417,91,13.143,253,0.0776,9.0966,-3.3507,-0.4689,0.1273,0.7214,96,13.562,261,2.9408,1.1217,-2.8543,0.9392,1.4011,0.6509,64
13.094,252,1.3231,10.3296,0.3904,-0.2077,-0.5229,-0.2009,93,12.952,249,7.7623,-2.6563,-12.373,-0.5087,0.6122,-0.293,91,13.195,254,-4.1044,7.1286,-6.3488,0.2804,0.8389,0.362,96,13.614,262,-2.4719,0.2939,-3.427,0.4793,0.916,0.4479,64
13.146,253,1.143,10.6432,0.601,0.4899,-0.6497,-0.4698,93,13.004,250,0.5461,-2.1986,-13.5473,0.2991,0.105,0.3667,91,13.247,255,-6.6174,7.7125,-3.9117,0.2164,0.1183,0.4131,96,13.666,263,-3.6951,1.9012,-1.7871,0.3881,0.2541,0.4882,64
13.198,254,2.9353,12.8785,0.8046,0.4053,-0.4428,-0.5453,93,13.056,251,3.0272,-0.7759,-12.6247,0.8886,-0.5952,0.5242,91,13.299,256,-5.7564,6.421,-2.3368,0.4342,-0.5108,0.0597,96,13.718,264,-5.1544,1.0033,-2.2768,0.2101,-0.3006,0.4078,64
13.25,255,7.1261,15.3029,-2.723,-0.4145,-1.1811,0.1448,93,13.108,252,2.0101,0.3404,-13.0583,-0.0328,0.2455,0.599,91,13.351,257,-7.5193,5.7957,-1.5356,0.4448,-0.1947,-0.4512,96,13.769,265,-5.7361,0.8529,-3.9707,-0.4754,-0.8217,0.3232,64
13.302,256,8.7974,14.728,0.3236,-0.0528,-0.9707,0.2914,93,13.16,253,1.525,-1.3766,-12.1169,-0.7054,-0.1225,0.3992,91,13.402,258,-2.9258,2.8386,4.0777,0.1971,-0.7471,-0.8944,96,13.821,266,-2.3021,4.458,-7.2273,-0.0056,-0.4905,0.0371,64
13.353,257,5.0662,13.8928,0.4098,0.362,-0.2755,-0.0443,93,13.211,254,2.2028,-1.718,-11.1187,-0.5781,-0.278,0.4301,91,13.454,259,0.5596,7.2171,4.7181,-0.0961,-0.8131,-0.4,96,13.873,267,1.0677,5.7345,-8.687,0.3006,-0.5569,0.3362,64
13.405,258,3.6462,12.5943,0.5416,0.1011,-0.6296,-0.699,93,13.263,255,6.8233,-2.1781,-15.1542,0.1088,-0.8748,0.3734,91,13.506,260,3.1034,2.9259,1.4003,-0.7173,0.0574,0.3539,96,13.925,268,3.5271,4.6035,-5.3604,0.6815,0.3044,0.4925,64
13.457,259,1.5615,10.3637,0.1929,-0.2656,0.0336,-1.0917,93,13.315,256,10.1955,-1.029,-14.0286,0.4916,-1.0205,0.3444,91,13.558,261,4.5504,7.5373,-3.4646,-1.0379,0.7879,0.9082,96,13.976,269,2.3987,3.3839,-7.7293,1.2113,0.9331,0.2753,64
13.509,260,0.7772,9.3135,-0.0191,-0.129,-0.0477,-0.9158,93,13.367,257,7.766,-0.0576,-11.3637,-0.3214,-0.0659,0.5325,91,13.61,262,-4.3937,4.8415,-0.5457,-0.8777,1.3211,-0.033,96,14.028,270,-1.0261,1.1511,-5.8719,0.5461,0.0402,0.0548,64
13.56,261,0.3535,7.4991,-1.2264,0.5473,0.144,-0.8696,93,13.419,258,0.5464,-2.0353,-11.936,-0.55,0.6318,0.7479,91,13.661,263,-4.8792,4.3147,-1.0296,-0.7459,0.3584,-0.2682,96,14.08,271,-2.624,0.4049,-4.6006,0.2003,-0.6115,0.1509,64
13.612,262,5.2417,11.9768,-2.703,1.0409,-0.4147,-0.857,93,13.47,259,1.041,-1.7209,-11.0499,0.2689,-0.2108,0.1645,91,13.713,264,-3.1884,3.4473,0.0845,-0.2086,-0.1363,-0.6806,96,14.132,272,-3.696,-0.7351,-4.1316,-0.4917,-1.0872,0.1534,64
13.664,263,8.8094,16.5078,-6.3132,0.7733,0.0675,0.0596,93,13.522,260,1.3998,-0.9633,-10.2829,0.3151,0.4637,0.2426,91,13.765,265,-5.9252,2.6669,1.9173,0.3888,0.0319,-1.0225,96,14.184,273,-5.2926,0.881,-8.7027,-0.347,-1.192,0.2322,64
13.716,264,9.0854,17.7182,-5.7716,0.0278,0.5431,0.7286,93,13.574,261,0.0904,-2.1065,-10.2644,0.4405,0.5387,0.2494,91,13.817,266,-1.6295,-2.8677,-3.9911,-0.2169,-0.5824,-0.3867,96,14.235,274,-1.1149,0.327,-9.4765,-0.8437,-1.5097,-0.1301,64
13.768,265,1.9627,17.7228,-5.3118,-0.41,0.8603,0.9628,93,13.626,262,2.093,-0.037,-11.5009,0.9918,-0.2787,0.4919,91,13.869,267,-0.8811,-1.0587,-6.0956,-0.1236,-0.2914,-0.414,96,14.287,275,0.6988,2.3873,-10.5952,-0.4646,-0.8674,0.1711,64
13.819,266,3.1728,16.5551,-3.9549,-1.0095,0.5385,0.5886,93,13.678,263,6.7431,-1.9613,-16.3443,0.0425,0.4756,0.728,91,13.921,268,2.0519,-2.8516,-6.1512,-0.7435,0.3842,0.3537,96,14.339,276,3.2579,3.1048,-7.8701,0.3729,0.0778,0.4758,64
13.871,267,1.4764,14.6758,-3.2248,-1.4471,0.1769,0.2549,93,13.729,264,10.1369,-2.9945,-16.0691,-0.6431,0.3001,0.6244,91,13.972,269,2.3091,0.6831,-6.3406,-1.0787,1.0264,0.9141,96,14.391,277,0.6726,1.4845,-8.5743,0.4265,0.7677,0.5582,64
13.923,268,0.6545,12.871,-2.7113,-1.1048,0.0807,0.0513,93,13.781,265,7.1726,-2.5784,-13.072,-0.6089,0.8989,0.7441,91,14.024,270,-3.4143,0.2709,-5.1384,-0.4544,1.4951,0.3798,96,14.442,278,-2.0615,0.4286,-6.829,0.7041,0.0696,0.336,64
13.975,269,1.0751,12.1307,-1.6007,-0.1649,-0.1661,-0.052,93,13.833,266,2.6332,-2.1887,-12.5724,-0.9119,0.1464,0.4616,91,14.076,271,-3.0474,-1.0942,-2.7374,-0.985,0.4855,0.46,96,14.494,279,-2.8883,-0.1193,-4.7361,1.2219,-0.5674,0.3258,64
14.026,270,5.7684,12.6589,-1.8653,0.0376,-0.9713,0.1065,93,13.885,267,3.3911,-2.91,-12.2479,-0.3977,-0.0079,0.3014,91,14.128,272,-5.0027,0.122,-1.0728,-0.0204,0.7244,0.0275,96,14.546,280,-4.6087,-0.3869,-3.7489,1.6024,-0.697,0.26,64
14.078,271,9.1938,13.9479,-3.5317,-0.6829,-0.2151,0.7628,93,13.937,268,2.1553,-1.8855,-11.9497,0.3801,0.5017,-0.072,91,14.179,273,-6.464,0.8608,-0.4242,0.577,0.5375,-0.1654,96,14.598,281,-6.0515,-0.1502,-3.3968,0.5316,-0.9189,0.2927,64
14.13,272,10.7708,12.3738,-2.3588,-1.1953,0.2381,1.2418,93,13.988,269,1.3824,-1.5429,-11.517,0.4281,0.2288,-0.0383,91,14.231,274,-9.2527,5.6959,4.8889,1.0901,0.1244,-0.7358,96,14.65,282,-1.6688,0.9942,2.4226,-0.2412,-1.3115,0.2478,64
14.182,273,3.3006,12.4718,-2.712,-1.2498,0.6676,1.197,93,14.04,270,1.9957,-1.3604,-11.0234,0.3447,-0.2161,0.1842,91,14.283,275,-6.1944,7.2003,2.3915,0.6247,-0.177,-0.7214,96,14.701,283,-1.2913,0.5501,-3.75,-0.0063,-0.2463,0.4098,64
14.233,274,2.253,12.2141,-2.1455,-0.5182,-0.1548,0.9542,93,14.092,271,6.6721,-2.6487,-14.8179,0.475,-0.8296,-0.5528,91,14.335,276,-1.826,10.518,1.2835,0.3901,0.1057,-0.1983,96,14.753,284,1.8054,0.8667,-2.7412,0.6406,0.5311,0.5533,64
14.285,275,1.1657,12.0144,-1.8817,-0.4194,-0.2285,0.6922,93,14.144,272,10.0851,-1.3014,-14.1448,-0.156,-0.6664,-0.0933,91,14.387,277,0.5512,9.6717,-0.3133,0.0014,0.8232,0.5112,96,14.805,285,4.0655,-0.8481,-4.0002,0.6563,1.0985,0.5821,64
14.337,276,0.4753,12.3187,-1.5736,-0.547,-0.3359,0.3518,93,14.196,273,7.5386,-1.901,-11.9957,-0.7756,0.1935,0.263,91,14.438,278,-4.0302,7.6758,-2.7075,0.653,1.3468,0.121,96,14.857,286,-0.7484,-1.4049,-4.0496,0.3859,0.2639,0.3546,64
14.389,277,0.0095,11.4209,-0.8958,-0.375,-0.4953,-0.1436,93,14.247,274,0.8114,-1.4666,-13.349,0.1043,-0.1802,0.4309,91,14.49,279,-4.4829,5.8758,-1.3716,0.0248,0.3772,-0.0219,96,14.909,287,-2.7109,-0.9724,-2.8125,0.5188,-0.4223,0.3893,64
14.441,278,4.5723,11.8401,-0.4097,0.3533,-1.2089,-0.6225,93,14.299,275,3.5195,0.1282,-12.4747,0.3735,-0.8034,0.5642,91,14.542,280,-3.0196,4.7286,-0.5828,0.221,-0.3304,-0.4376,96,14.96,288,-3.8734,-1.1535,-2.1275,0.0414,-0.9407,0.4427,64
14.492,279,8.3208,11.9,-2.6669,-0.4511,-0.8027,-0.2335,93,14.351,276,2.0631,0.2675,-12.3362,-0.2502,0.0936,0.5373,91,14.594,281,-5.6595,3.6304,1.0459,0.2968,-0.26,-0.6773,96,15.012,289,-6.1012,-0.9771,-0.6604,-0.6076,-1.0281,0.6479,64
14.544,280,9.9375,10.3166,-0.7824,-0.8529,-0.5672,0.2403,93,14.403,277,0.2931,-0.5792,-11.8203,-0.3653,-0.2268,0.2303,91,14.646,282,-7.319,6.5182,5.5392,0.915,-0.4576,-1.1866,96,15.064,290,-1.705,4.4044,-1.7036,-0.9841,-1.3444,0.3605,64
14.596,281,4.2553,10.5038,-1.4462,-0.4854,0.0799,0.8548,93,14.455,278,3.7237,0.3152,-10.9007,-0.0985,-0.8373,0.1415,91,14.697,283,-4.3408,3.4637,2.2092,0.5247,-0.1034,-0.8533,96,15.116,291,0.1679,7.3465,-6.9306,-0.432,-0.2842,0.7526,64
14.648,282,2.96,11.0609,-1.2442,-1.046,-0.7743,0.3794,93,14.506,279,7.9333,-1.0677,-14.9828,-0.4401,-0.7514,0.0695,91,14.749,284,-0.4731,4.7055,0.4401,-0.1681,-0.1415,0.0247,96,15.167,292,2.8704,6.7424,-4.7974,0.3681,0.5035,0.852,64
14.7,283,1.4235,9.4162,-1.0335,-0.8062,-0.4849,0.2343,93,14.558,280,11.0056,-1.0675,-14.6602,-0.3539,-0.7567,0.1723,91,14.801,285,2.3496,7.8846,-1.2351,-0.4445,0.5994,0.674,96,15.219,293,4.8428,3.2589,-8.1036,0.9795,1.0783,0.6998,64
14.751,284,0.7334,9.3298,-0.6529,0.0531,-0.5937,0.2461,93,14.61,281,7.7703,-0.6081,-11.2677,-0.9397,0.1276,0.4422,91,14.853,286,-3.3157,5.7369,-4.477,0.008,1.1835,0.3469,96,15.271,294,-2.415,1.6632,-7.4829,0.615,0.4273,0.5074,64
14.803,285,0.1639,10.2125,0.2446,0.6802,-0.6278,0.1851,93,14.662,282,1.5762,-2.4434,-12.6073,-0.8444,0.1613,0.374,91,14.905,287,-3.8543,3.973,-3.3895,-0.5661,0.258,0.1428,96,15.323,295,-3.2369,0.9946,-5.6904,0.804,-0.329,0.6132,64
14.855,286,5.1034,10.6933,0.583,0.7865,-1.2614,-0.0887,93,14.714,283,2.8552,-0.1283,-11.9464,-0.4119,0.1278,0.4049,91,14.957,288,-1.8953,4.0785,-1.9995,-0.016,-0.4175,-0.5369,96,15.375,296,-4.4451,0.3981,-4.417,0.1944,-0.881,0.5982,64
14.907,287,8.7084,11.0905,-1.1976,-0.1363,-0.5376,0.1877,93,14.765,284,0.6236,-0.2193,-12.2398,-0.982,0.2244,0.464,91,15.008,289,-4.8626,3.482,-0.8583,0.6868,-0.5018,-1.0011,96,15.426,297,-5.8742,-0.1414,-3.0128,-0.3428,-1.2322,0.5896,64
14.959,288,10.2645,9.096,0.1459,-0.591,0.065,0.5172,93,14.817,285,0.4457,-0.2288,-11.5366,-0.4549,-0.226,0.3858,91,15.06,290,-8.3814,7.6894,-6.0169,0.1969,-0.972,-1.2378,96,15.478,298,-1.5394,5.183,-0.963,-0.4412,-1.5378,0.1206,64
15.01,289,4.1837,10.1831,-0.8082,0.2101,0.5413,1.0626,93,14.869,286,3.5797,-0.6127,-10.9976,-0.7933,-0.8368,0.5834,91,15.112,291,-5.3164,3.327,-7.5877,0.093,-0.7105,-0.7812,96,15.53,299,1.6243,6.6205,-5.7952,0.1248,-0.5,0.5566,64
15.062,290,3.7135,11.114,-1.2558,-0.557,-0.0222,0.4293,93,14.921,287,7.828,-2.3549,-13.9955,-0.3245,-0.2619,-0.0626,91,15.164,292,-1.1852,0.2451,-7.6641,-0.568,-0.444,0.0858,96,15.582,300,3.9333,5.9517,-4.3749,0.7837,0.3362,0.8772,64
15.114,291,2.1008,9.6909,-1.5376,-0.9419,0.1279,0.1689,93,14.973,288,10.9286,-1.9991,-14.262,0.3995,-0.2614,-0.4319,91,15.216,293,1.83,5.9538,-8.4149,-0.5746,0.422,0.7185,96,15.634,301,3.3717,-0.162,-8.8802,1.2531,0.9562,0.3189,64
15.166,292,0.8216,10.0927,-1.5565,-0.046,-0.0761,-0.0319,93,15.024,289,7.3659,-0.8863,-11.1705,-0.3371,0.4891,0.1378,91,15.267,294,-6.5594,3.1395,-8.2868,-0.6757,0.9395,0.0137,96,15.685,302,0.0466,-0.5166,-6.2832,0.8697,0.057,0.0882,64
15.218,293,0.6239,10.0336,-0.8738,0.6079,-0.4356,-0.3402,93,15.076,290,2.3852,-2.7541,-12.1546,-0.3569,-0.0959,-0.2017,91,15.319,295,-5.1241,3.253,-9.1445,-0.9162,0.0799,-0.5889,96,15.737,303,-2.6279,-0.7627,-3.7944,1.3487,-0.4159,0.0904,64
15.269,294,5.4391,11.8582,-1.008,1.0851,-1.1653,-0.668,93,15.128,291,3.6579,-1.1747,-11.8476,0.3917,-0.5068,-0.2874,91,15.371,296,-8.2311,3.288,-5.427,0.0298,0.8043,-1.1006,96,15.789,304,-4.4915,-1.3374,-3.1439,0.3465,-0.3197,0.0369,64
15.321,295,8.9534,13.1637,-1.3334,0.0817,-0.6942,-0.1411,93,15.18,292,2.5379,-1.5403,-12.2804,-0.3955,-0.0715,0.0975,91,15.423,297,-9.9525,1.6694,-2.6717,0.0378,0.8607,-0.648,96,15.841,305,-6.0175,-1.1191,-2.6782,0.224,-0.1211,0.1248,64
15.373,296,11.5184,10.1655,0.314,-0.6505,-0.6322,-0.0214,93,15.232,293,1.3913,-1.7313,-12.1023,0.3483,-0.3054,0.2703,91,15.475,298,-9.8179,4.5961,-7.3134,0.0938,1.3742,-0.3407,96,15.892,306,-5.9544,0.1537,-7.6419,-0.3252,0.3459,0.2448,64
15.425,297,2.8024,8.6436,-0.0461,-0.4945,0.0324,0.5867,93,15.284,294,2.3057,-0.3414,-10.6496,0.6056,-0.8395,0.3571,91,15.526,299,-14.8564,7.4833,-7.2488,0.429,1.739,-0.6066,96,15.944,307,-1.598,-2.7795,-5.9967,-0.2631,-0.181,0.6609,64
15.477,298,6.494,8.7428,0.4948,0.2372,-0.6671,0.5132,93,15.335,295,6.8983,-1.646,-14.2516,0.346,-1.2845,-0.1503,91,15.578,300,-11.6498,7.4793,-10.4306,0.5401,1.0102,-0.0551,96,15.996,308,0.0537,-2.2502,-7.5085,0.0752,0.4151,0.8728,64
15.528,299,2.0965,9.9842,-0.3266,0.8146,0.007,0.9287,93,15.387,296,10.2502,-0.2202,-14.8652,0.9228,-0.4178,-0.4498,91,15.63,301,-7.9053,2.5262,-7.3674,0.4535,1.4833,0.4997,96,16.048,309,-0.3276,-1.8191,-6.6125,0.6764,1.0139,0.7246,64
15.58,300,1.664,10.7722,-0.277,-0.0067,-0.5416,0.5524,93,15.439,297,10.6015,-0.5146,-13.8141,0.3529,0.375,-0.2934,91,15.682,302,-9.1295,2.0389,-8.8823,0.1385,1.8286,0.6424,96,16.1,310,-7.3935,0.4408,-10.5134,0.8335,1.4508,0.8164,64
15.632,301,0.8851,9.1378,0.0513,0.3193,-0.3615,0.1143,93,15.491,298,3.308,-1.066,-12.9972,-0.3283,0.9536,-0.5146,91,15.734,303,-12.3348,4.8433,-8.3195,0.0344,1.0185,0.3499,96,16.152,311,-7.1641,0.3398,-7.4604,1.3212,0.5894,0.6343,64
15.684,302,1.4195,10.5948,-0.0352,0.8745,-0.5961,0.0384,93,15.543,299,2.3005,-1.8827,-13.132,0.0428,0.0241,-0.4429,91,15.785,304,-8.4508,2.3801,-3.8492,-0.3039,0.1376,0.285,96,16.203,312,-6.3286,-0.0335,-5.0203,0.4813,-0.2107,0.4982,64
15.735,303,6.0198,14.1758,-2.7415,-0.0384,-1.2929,0.121,93,15.594,300,3.1931,-1.2274,-12.1088,0.577,0.565,-0.4153,91,15.837,305,-9.3059,2.4105,-2.9656,-0.0383,0.6155,0.0793,96,16.255,313,-7.2183,-0.3592,-4.134,-0.2866,-0.585,0.4979,64
15.787,304,9.3773,10.9218,-0.5967,-0.2002,-1.3027,0.1009,93,15.646,301,1.6591,-1.177,-11.304,0.4426,0.5237,-0.2763,91,15.889,306,-8.8369,2.7004,-4.1958,0.3656,0.6129,0.0331,96,16.307,314,-6.7686,0.0307,-8.7044,-0.847,-0.0897,0.7331,64
15.839,305,6.6803,11.0647,0.5548,0.4954,-0.4569,0.5694,93,15.698,302,1.3184,-1.3582,-10.1033,0.4477,0.5164,-0.0889,91,15.941,307,-3.7546,-0.7268,-3.2924,-0.3865,0.8538,0.4682,96,16.359,315,-2.1922,-0.317,-10.4679,-1.2309,-0.296,0.3958,64
15.891,306,3.8408,12.3467,0.2769,-0.3298,-1.1634,0.307,93,15.75,303,5.5089,-0.5005,-10.6693,0.6986,-0.295,-0.0423,91,15.993,308,-2.3213,0.4332,-5.1889,-0.3946,1.3129,0.3704,96,16.41,316,-0.1287,2.2998,-10.4863,-0.657,0.182,0.5705,64
15.943,307,3.5082,10.0334,-0.35,-0.951,-0.7569,0.0718,93,15.802,304,9.2362,-0.6704,-15.118,0.0014,0.2335,0.0741,91,16.044,309,1.0008,-2.1375,-5.2703,-0.4198,1.7042,0.9067,96,16.462,317,1.165,4.5701,-7.5251,-0.3386,0.8437,0.9558,64
15.994,308,2.1123,9.2368,-0.347,-0.3423,-0.8083,0.046,93,15.853,305,10.6884,-1.887,-14.0431,-0.3036,0.487,-0.1746,91,16.096,310,-0.4102,0.1762,-6.8453,-0.9378,1.9898,1.152,96,16.514,318,-3.1282,0.191,-10.2494,0.3449,1.3267,0.5261,64
16.046,309,-0.1023,9.5311,-0.5699,0.3916,-0.5669,0.0774,93,15.905,306,5.5098,-1.4008,-12.8174,-0.4429,1.0353,-0.1219,91,16.148,311,-8.1944,3.2255,-3.6073,-1.1159,1.3067,0.5906,96,16.566,319,-4.25,-0.8138,-7.6836,0.1992,0.3515,0.3188,64
16.098,310,1.0279,10.0677,-0.0456,0.9273,-0.9758,-0.2096,93,15.957,307,3.3313,-1.6551,-12.0929,-0.6508,0.0838,-0.042,91,16.2,312,-7.1156,2.2971,-2.7966,-0.5021,0.348,-0.0282,96,16.618,320,-5.1413,-0.5267,-5.7653,0.7468,-0.384,0.1832,64
16.15,311,5.7339,12.7947,-2.0966,0.7685,-1.5701,0.0483,93,16.009,308,3.8501,-1.3555,-11.2711,-0.0124,0.3011,-0.0391,91,16.252,313,-7.4214,3.3238,-1.7382,0.1513,0.1798,-0.6798,96,16.669,321,-6.0401,-0.7199,-4.722,0.0988,-0.8991,0.1642,64
16.202,312,9.1686,12.1059,-3.0851,-0.1494,-1.3289,0.5051,93,16.061,309,2.0028,-0.7887,-10.8539,-0.2762,0.2478,-0.1262,91,16.303,314,-7.959,2.4597,0.8169,0.4726,-0.2733,-0.964,96,16.721,322,-8.7979,-4.6589,-8.3702,-0.3672,-1.0605,-0.1588,64
16.253,313,8.316,10.6089,-2.1282,0.523,-0.476,0.7176,93,16.112,310,1.7306,-1.2395,-10.4199,-0.1316,0.2177,-0.2406,91,16.355,315,-8.7593,5.4131,5.7834,-0.1078,0.2086,-1.0615,96,16.773,323,-3.6733,-1.0542,-11.0531,-0.7759,-1.4146,-0.4583,64
16.305,314,3.2525,12.1983,-2.5221,-0.3273,-1.1556,-0.0186,93,16.164,311,4.4493,-0.3086,-11.8904,0.329,-0.5129,-0.4118,91,16.407,316,-6.0496,4.1313,0.4403,-0.4824,0.8101,-0.962,96,16.824,324,-2.0849,3.4133,-11.469,-0.0608,-0.388,0.1072,64
16.357,315,4.2669,9.8438,-2.218,-0.9492,-0.952,-0.3739,93,16.216,312,8.4628,-0.825,-15.3466,0.3554,0.1828,-0.4797,91,16.459,317,-3.9668,0.3193,0.9638,-0.4755,1.3372,-0.047,96,16.876,325,-0.664,3.7248,-8.6424,0.1601,0.4277,0.3914,64
16.409,316,2.2333,9.3637,-2.1606,-0.0513,-0.8653,-0.2064,93,16.268,313,11.3921,0.1804,-10.1068,0.9297,-0.5379,-0.0563,91,16.511,318,-3.976,3.295,-3.0406,-0.9758,1.722,0.4963,96,16.928,326,-5.2168,2.0822,-9.8277,0.8308,1.0231,0.2919,64
16.461,317,1.4789,10.4266,-1.5787,0.5912,-0.6125,-0.2031,93,16.32,314,8.3034,1.4056,-8.7375,-0.0029,0.2873,0.4149,91,16.562,319,-9.646,1.775,-4.4447,-1.2113,1.0653,0.0282,96,16.98,327,-3.9262,0.683,-7.3299,1.2124,0.1058,-0.0311,64
16.512,318,1.4159,10.2111,-0.8717,0.417,-0.8527,-0.4224,93,16.372,315,2.9936,0.3299,-10.9671,-0.6835,0.475,0.0727,91,16.614,320,-8.3637,2.0404,-3.2615,-0.7915,0.1717,-0.2009,96,17.032,328,-5.3857,-0.5274,-4.9142,0.6115,-0.2032,0.0291,64
16.564,319,6.0171,11.8275,-3.2823,-0.2613,-1.4802,-0.0714,93,16.423,316,2.6108,-1.0348,-12.5096,0.1715,0.0281,0.6284,91,16.666,321,-8.4051,0.7535,-1.1976,-0.3693,0.1126,-0.2198,96,17.083,329,-6.4152,-0.4662,-4.1142,-0.1915,-0.1629,0.2152,64
16.616,320,9.3753,10.4039,-2.9005,-0.901,-1.0813,0.118,93,16.475,317,2.7573,2.1228,-12.4482,-0.4965,0.1774,0.8124,91,16.718,322,-9.5576,2.6184,-1.036,-0.1757,0.3403,-0.2185,96,17.135,330,-9.0095,-0.4885,-4.8017,-0.0054,-0.2152,0.3372,64
16.668,321,8.672,9.7225,-1.662,-0.0161,-0.2953,-0.3535,93,16.527,318,2.1516,0.3691,-12.6201,-1.0288,-0.3021,0.4939,91,16.77,323,-4.2806,1.659,-1.6982,-0.7627,-0.3574,0.419,96,17.187,331,-3.8277,-5.6592,-9.1918,-0.64,-0.4632,0.1441,64
16.72,322,2.8729,8.8334,-1.349,0.6297,-0.5646,0.0579,93,16.579,319,6.2319,-0.5671,-12.72,-0.4444,-0.8477,0.0133,91,16.821,324,-2.2609,3.2622,-5.2766,-0.4918,-0.8666,0.5626,96,17.239,332,-4.8893,-2.4435,-11.0321,-0.2807,-0.2465,0.3964,64
16.771,323,1.9465,10.7329,-0.7701,0.4908,-0.6747,-0.1933,93,16.631,320,9.7639,-1.8165,-16.7103,0.346,-0.6454,-0.6775,91,16.873,325,0.687,-1.628,-4.7407,-0.3869,0.1135,0.7184,96,17.291,333,-2.7472,-0.9598,-7.8354,0.509,0.531,0.5365,64
16.823,324,2.4477,10.3916,-1.0992,-0.3489,-0.5884,-0.3924,93,16.682,321,12.3415,-1.7537,-13.2819,-0.1958,-0.3607,-0.3291,91,16.925,326,0.7965,1.1573,-7.5128,-0.486,0.8289,1.0866,96,17.342,334,-6.3495,-0.7838,-6.0925,0.4619,1.0984,0.4827,64
16.875,325,1.3799,11.1185,-1.2932,0.3841,-0.1488,-0.4623,93,16.734,322,8.6495,-1.3192,-11.7324,-0.6667,0.4167,-0.1475,91,16.977,327,-4.469,1.1355,-5.1724,0.3437,1.3403,0.2939,96,17.394,335,-5.7404,-2.4066,-4.6796,0.0919,0.1609,0.2426,64
16.927,326,0.7609,12.8102,-0.9458,0.7372,-0.5751,-1.003,93,16.786,323,3.5941,-2.3143,-12.0654,-0.2593,0.2832,-0.1085,91,17.029,328,-4.3495,1.0236,-3.457,0.4113,0.3724,-0.1791,96,17.446,336,-5.3278,-1.9698,-3.1828,-0.0566,-0.2971,0.3029,64
16.978,327,5.5391,14.5269,-2.7241,0.0678,-1.2776,-1.3188,93,16.838,324,3.7384,-1.5879,-11.0986,0.4811,-0.1891,0.0433,91,17.08,329,-5.708,0.9907,-1.8769,0.7254,0.5977,-0.4412,96,17.498,337,-6.522,-2.0152,-2.4315,-0.6788,-0.3072,0.5653,64
17.03,328,9.0264,15.2563,-3.4907,-0.4215,-0.6449,-0.4158,93,16.89,325,2.5941,0.0093,-10.6767,0.7314,0.5153,0.0119,91,17.132,330,-6.9715,1.026,-0.0413,0.5836,0.4684,-0.4264,96,17.55,338,-7.5651,-2.3829,-0.8118,-1.0176,-0.0541,0.8463,64
17.082,329,9.7199,12.8287,-1.8442,-0.3079,-0.4414,0.1693,93,16.941,326,2.1256,-0.6708,-10.7532,0.4349,0.2221,-0.2925,91,17.184,331,-3.9191,5.0359,-1.611,1.1244,-0.2639,-0.5,96,17.601,339,-2.7735,3.547,3.5748,-1.3805,-0.6803,0.557,64
17.134,330,2.5958,13.3607,-1.837,-0.2181,-0.4985,0.6826,93,16.993,327,4.3846,-1.1656,-10.9588,0.4176,-0.3273,-0.3664,91,17.236,332,-1.7346,2.9061,-4.2688,0.8107,0.4397,-0.3617,96,17.653,340,-2.9761,7.875,-0.9579,-0.6278,0.2073,0.6949,64
17.186,331,3.8232,11.5239,-0.6575,-0.7743,-0.895,0.4884,93,17.045,328,8.4156,-2.7541,-15.587,0.9072,-0.7331,-0.1553,91,17.288,333,1.429,-0.612,-5.5511,-0.0616,1.0512,0.392,96,17.705,341,0.5758,7.1,-0.0638,0.2557,0.8622,0.6728,64
17.237,332,1.6449,10.2429,-0.6107,-0.2556,-0.4658,0.5718,93,17.097,329,11.3576,-1.4247,-15.0855,0.0929,-0.6431,0.5512,91,17.339,334,0.6394,4.2837,-9.4419,-0.6983,1.5132,0.942,96,17.757,342,0.8307,3.4343,-5.2747,0.9005,1.3401,0.51,64
17.289,333,1.304,10.4997,-0.3661,0.4549,-0.322,0.6943,93,17.149,330,5.6385,-0.9335,-12.299,-0.0051,0.2106,0.7873,91,17.391,335,-7.4283,2.6936,-5.0282,-0.4621,1.8504,0.0307,96,17.809,343,-0.0981,1.6338,-3.611,1.3106,0.3372,0.352,64
17.341,334,1.1323,10.496,0.1239,-0.3296,-0.2842,0.6504,93,17.201,331,2.6835,0.3601,-10.6887,-0.491,-0.4942,0.4409,91,17.443,336,-6.5352,2.178,-4.5257,-0.3419,0.7448,-0.2881,96,17.86,344,-1.8183,0.9235,-2.2816,1.0165,-0.3947,0.4241,64
17.393,335,5.8102,11.7647,-0.8088,-0.3089,-1.0316,0.9552,93,17.253,332,3.6668,-0.2155,-10.8123,-0.4554,0.1164,0.073,91,17.495,337,-5.7172,2.3528,-2.5433,0.1682,0.5338,-0.813,96,17.912,345,-3.3578,-0.1803,-1.9952,0.4578,-0.8521,0.5046,64
17.444,336,9.2243,11.9432,-2.4283,-0.9122,-0.2779,1.1373,93,17.304,333,2.8531,0.4938,-11.6835,0.2501,0.7387,-0.4568,91,17.546,338,-7.0516,1.435,-0.0333,0.4689,0.0086,-0.9105,96,17.964,346,-5.1941,-0.7457,-0.5817,-0.1703,-1.0108,0.5833,64
17.496,337,9.8481,10.4735,-1.059,-1.1331,0.2471,0.9697,93,17.356,334,2.2255,-0.1582,-11.9727,0.2736,0.6374,-0.5911,91,17.598,339,-8.5108,5.9037,2.5216,1.0189,-0.2616,-1.1914,96,18.016,347,-1.0431,4.742,4.2339,-0.6499,-1.3581,0.2512,64
17.548,338,2.8024,10.4313,-2.2281,-0.5203,0.2009,1.1312,93,17.408,335,4.036,-0.2725,-11.2878,0.0438,-0.1461,-0.7597,91,17.65,340,-3.5166,4.355,-0.0742,0.4921,0.2122,-0.7771,96,18.068,348,1.4898,5.4996,-2.5972,-0.2145,-0.2808,0.5655,64
17.6,339,2.7018,10.9301,-1.6779,-0.2835,-0.3719,0.9877,93,17.46,336,8.1612,-1.2375,-15.9491,0.1485,-0.336,-0.7828,91,17.702,341,0.1284,4.8743,-1.827,-0.1979,0.1626,0.0858,96,18.119,349,3.8352,5.1425,-1.2025,0.5573,0.5059,0.7302,64
17.652,340,1.4109,10.1114,-1.4559,-0.3162,-0.5019,0.8474,93,17.512,337,11.172,-0.7951,-15.1718,0.0429,-0.7037,-0.0965,91,17.754,342,0.376,7.1261,-4.2776,-0.7795,0.8646,0.7185,96,18.171,350,3.3534,1.5293,-5.7634,1.1207,1.0801,0.6075,64
17.704,341,0.8546,10.8508,-1.4109,0.1316,-0.5461,0.7937,93,17.563,338,8.5927,-1.1171,-11.3007,-0.0083,0.1362,0.5941,91,17.806,343,-4.459,4.7992,-3.2768,-0.1767,1.3771,-0.0721,96,18.223,351,-0.4836,-0.1475,-4.301,1.2662,0.1475,0.4241,64
17.755,342,0.5358,10.3009,-0.8829,0.2755,-0.8388,0.5684,93,17.615,339,2.5859,0.4838,-10.4987,0.6643,0.3828,0.7914,91,17.857,344,-4.6441,2.7132,-2.3159,-0.363,0.3993,-0.2735,96,18.275,352,-1.773,0.3426,-3.1885,1.5504,-0.5332,0.5079,64
17.807,343,5.3711,9.9771,-0.8746,0.8425,-1.4701,0.2581,93,17.667,340,3.936,1.273,-10.4658,-0.0485,-0.0794,0.5347,91,17.909,345,-3.9658,2.6298,0.0372,0.2625,0.4705,-0.552,96,18.327,353,-2.9885,0.1639,-2.4752,0.6902,-1.03,0.4709,64
17.859,344,8.9038,11.1083,-2.6003,-0.0067,-0.8461,-0.1494,93,17.719,341,2.384,1.6987,-10.8264,-0.1635,0.622,0.4896,91,17.961,346,-5.5219,1.8157,0.3551,0.4931,0.5014,-0.3777,96,18.379,354,-5.1539,0.1429,-1.3452,-0.1341,-1.2133,0.4419,64
17.911,345,11.3818,8.8432,-1.0816,-0.4871,-0.1839,-0.6273,93,17.771,342,1.1027,1.3586,-10.8241,-0.2486,0.2005,0.2732,91,18.013,347,-5.7636,4.0128,5.4576,1.0583,0.0839,-0.9715,96,18.43,355,-1.0137,3.2013,3.9198,-0.7357,-1.5264,0.5613,64
17.963,346,2.7027,8.684,-3.2103,-0.7804,-0.0141,-0.3249,93,17.822,343,2.7138,-0.1442,-10.0661,-0.3368,-0.1895,-0.2252,91,18.065,348,-4.7028,0.1469,1.845,0.8335,-0.5445,-0.3137,96,18.482,356,1.3661,0.3388,-2.8264,-0.5657,-0.5372,0.4871,64
18.014,347,4.3274,8.619,-2.5272,-1.2798,-0.519,-0.3848,93,17.874,344,7.1962,-2.0825,-14.6343,0.4245,-0.8102,-0.6294,91,18.117,349,-0.7374,1.6605,-1.6259,0.2752,-0.2168,0.3037,96,18.534,357,2.5163,1.3661,-4.4682,-0.2582,0.3188,0.8932,64
18.066,348,1.0807,7.1331,-2.8486,-1.4451,-0.1849,-0.2208,93,17.926,345,10.4677,-0.7549,-13.472,0.6048,-0.727,-0.0561,91,18.168,350,0.5027,2.346,-1.692,0.3714,0.5876,0.737,96,18.586,358,3.4589,0.2447,-4.4765,0.3938,0.9436,0.7479,64
18.118,349,0.4604,8.117,-2.4962,-0.4175,-0.459,0.0189,93,17.978,346,8.7406,0.3542,-11.6203,0.4469,0.1422,0.5224,91,18.22,351,-2.8319,3.375,-4.5994,0.0747,1.1749,0.9272,96,18.637,359,-3.5197,1.6405,-6.3128,0.201,0.849,0.5837,64
18.17,350,-0.0291,9.3062,-1.833,0.3266,-0.6837,-0.1428,93,18.03,347,2.3034,2.0474,-11.5449,0.0295,0.4981,0.4917,91,18.272,352,-5.2853,2.6923,-4.0201,-0.5988,0.2517,0.3073,96,18.689,360,-4.8087,1.0894,-4.9321,0.4821,0.041,0.4179,64
18.221,351,3.684,10.3027,-0.2827,0.8689,-1.0688,-0.5791,93,18.082,348,3.4746,2.1676,-10.4433,-0.5031,-0.3083,-0.1504,91,18.324,353,-3.272,2.0766,-1.5424,-0.375,-0.422,-0.4558,96,18.741,361,-5.1,0.4713,-3.5277,-0.0158,-0.5043,0.2811,64
18.273,352,7.6725,13.2269,-1.3853,-0.0594,-0.9802,-0.2948,93,18.133,349,2.2144,1.4939,-10.0224,-1.0465,0.4549,-0.516,91,18.375,354,-5.7487,1.319,0.8165,-0.3816,0.1293,-0.7917,96,18.793,362,-6.1305,-0.8498,-1.7273,-0.2451,-0.5998,0.3135,64
18.325,353,10.4388,11.0514,-0.7999,-0.7537,-0.4708,0.1387,93,18.185,350,1.3603,0.7,-9.547,-1.0148,0.3388,-1.0086,91,18.427,355,-4.2081,-3.8514,-4.7945,-0.5939,-0.5113,-0.093,96,18.845,363,-1.7264,4.448,-3.5076,-0.8167,-1.0678,0.2252,64
18.377,354,3.8158,10.3645,-0.8683,-1.2183,0.1503,0.7081,93,18.237,351,3.798,0.6659,-8.7596,-0.2173,-0.0685,-1.1939,91,18.479,356,-1.5305,-6.2863,-7.5092,-0.3588,0.0495,0.0924,96,18.896,364,0.6184,8.5325,-5.5444,0.069,-0.3374,0.6946,64
18.429,355,3.0917,10.3054,-1.4344,-1.5995,-0.7482,0.5783,93,18.289,352,7.9875,-0.0888,-13.5178,-0.8386,0.292,-0.4195,91,18.531,357,1.5779,-7.6977,-7.4134,-0.7363,0.7821,0.7004,96,18.949,365,3.1992,8.3319,-3.361,0.6914,0.4646,1.0718,64
18.48,356,1.9931,8.9025,-1.6274,-1.5254,-0.4245,0.6861,93,18.341,353,11.0451,-0.5372,-12.6329,-0.8456,0.2824,0.0961,91,18.583,358,1.447,-0.6778,-10.6846,-1.1907,1.3168,1.1671,96,19.0,366,1.4129,3.3656,-6.7462,1.2185,1.05,0.5703,64
18.532,357,0.7662,9.3456,-1.4491,-0.4719,-0.8396,0.9042,93,18.392,354,5.9165,0.7122,-10.1653,-1.0336,0.886,0.6663,91,18.634,359,-6.8389,1.509,-7.849,-0.7416,1.7071,0.7343,96,19.052,367,-0.4388,0.523,-5.0072,0.5992,0.1255,0.2622,64
18.584,358,0.2046,10.1132,-0.9127,0.2909,-0.9237,0.7811,93,18.444,355,2.4316,-0.4602,-11.6072,-1.4358,-0.0252,0.3721,91,18.686,360,-6.7854,1.378,-6.8806,-0.9082,0.6402,0.2109,96,19.104,368,-2.1081,-0.0719,-4.0861,0.9198,-0.549,0.4057,64
18.636,359,5.133,11.9892,-1.8118,0.8538,-1.532,0.2727,93,18.496,356,4.6879,-1.0384,-11.3569,-0.3956,-0.3538,0.2075,91,18.738,361,-4.3883,1.6162,-3.2004,-0.445,-0.062,-0.0369,96,19.156,369,-2.9759,-0.118,-3.0828,0.1964,-1.0415,0.3201,64
18.687,360,8.7301,11.5482,-1.9259,-0.0762,-0.8972,-0.2634,93,18.548,357,2.4102,0.119,-10.4322,-0.0065,-0.1026,0.1329,91,18.79,362,-6.8253,1.1381,-1.0437,-0.0816,0.029,-0.3329,96,19.208,370,-5.5913,-0.3455,-1.2197,-0.471,-1.0438,0.4514,64
18.739,361,10.7052,9.4569,-1.0709,0.4277,-0.2117,-0.8577,93,18.6,358,1.9382,-0.55,-9.9853,-0.6053,-0.3794,0.1863,91,18.842,363,-3.4618,-3.9834,4.4367,-0.375,-0.5846,0.0539,96,19.259,371,-1.3329,3.9406,4.0115,-0.9816,-1.4027,0.3002,64
18.791,362,3.6514,10.1412,-1.6973,0.9536,-0.3715,-0.4087,93,18.651,359,3.742,-0.2539,-9.8767,-1.0538,-0.9488,0.3971,91,18.893,364,-2.1864,-2.9565,0.9654,-0.2212,-0.6661,-0.1412,96,19.311,372,-0.4825,3.9745,-1.4065,-0.1102,-0.3595,0.6571,64
18.843,363,4.0322,10.1495,-1.0331,-0.0004,-0.5171,-0.6457,93,18.703,360,7.9467,-2.9552,-15.1589,-0.8526,-0.983,0.1533,91,18.945,365,1.0992,-0.9538,0.3947,-0.7455,-0.5196,0.5529,96,19.363,373,2.3957,4.1981,-0.8657,0.6048,0.4485,0.9568,64
18.894,364,1.4148,8.7973,-1.2576,-0.4298,-0.4158,-0.7098,93,18.755,361,11.0154,-1.9566,-13.4488,0.0481,-0.5261,-0.1645,91,18.997,366,3.306,2.8259,-0.2306,-0.7627,0.0521,1.0198,96,19.415,374,2.8528,0.3792,-3.9764,1.0392,1.0383,0.6652,64
18.946,365,0.764,9.015,-1.3113,0.1156,-0.4229,-0.6687,93,18.807,362,7.5501,-1.3391,-10.8374,-0.0554,0.2959,0.2847,91,19.049,367,-1.8401,2.9047,-2.4969,0.1418,0.784,0.3443,96,19.467,375,0.5379,-1.5766,-1.6194,0.4692,0.1169,0.3965,64
18.998,366,0.9193,8.9482,-0.645,0.2886,-0.5331,-0.8891,93,18.859,363,3.096,-0.6643,-11.2251,0.0473,-0.4483,0.3877,91,19.101,368,-2.9911,2.3715,-1.5869,-0.5497,-0.0335,-0.0598,96,19.518,376,-0.5546,-0.3936,-0.9414,0.9562,-0.5555,0.4934,64
19.05,367,5.5334,11.0732,-0.986,0.7289,-1.1933,-0.8446,93,18.91,364,5.5173,-0.4003,-10.6146,0.0078,-0.3591,0.2227,91,19.153,369,-4.3258,2.4005,-0.1163,0.2076,0.3095,-0.3488,96,19.57,377,-2.0887,-0.7111,-0.7,0.9306,-0.9806,0.2763,64
19.102,368,9.0222,13.1451,-2.6278,-0.1783,-0.5048,0.005,93,18.962,365,3.0074,-0.1781,-10.9378,0.1513,0.4178,-0.0382,91,19.204,370,-6.5108,2.3463,1.6791,0.5563,0.4702,-0.3601,96,19.622,378,-2.8376,-0.5491,-6.1982,0.0769,-0.2905,0.3299,64
19.154,369,9.9239,11.3312,-1.2187,0.3138,-0.1011,0.1925,93,19.014,366,2.1849,-0.5634,-10.6711,0.23,-0.1126,-0.3894,91,19.256,371,-4.5782,-3.1016,-4.165,-0.228,-0.2626,0.371,96,19.673,379,0.6768,3.1199,-5.8083,-0.2621,-0.8519,-0.0949,64
19.205,370,2.2937,11.7385,-2.067,0.6428,-0.0584,0.5645,93,19.066,367,6.1933,-0.4566,-11.7866,0.1133,-0.754,-0.5255,91,19.308,372,-2.8918,-3.3666,-7.073,0.1946,-0.5302,0.2187,96,19.725,380,3.2418,5.7899,-7.2271,-0.15,-0.3087,0.4036,64
19.257,371,3.546,11.5877,-0.9389,-0.2063,-0.3361,0.3852,93,19.118,368,9.7357,-0.538,-15.7422,0.5746,-0.4943,-0.545,91,19.36,373,-1.4191,-5.5004,-4.7401,-0.3974,0.359,0.8125,96,19.777,381,3.2235,4.2933,-5.2426,0.6039,0.4856,0.2831,64
19.309,372,1.4516,10.1721,-0.8767,-0.6847,-0.2037,0.3138,93,19.169,369,11.0486,0.4613,-13.1542,-0.2209,0.0113,0.1825,91,19.412,374,-3.0177,-3.3723,-5.4205,-0.9227,1.008,0.8111,96,19.829,382,-1.8748,4.9197,-5.8353,0.8964,1.0653,0.4787,64
19.361,373,0.7311,10.3429,-0.7417,0.1417,-0.1495,0.2788,93,19.221,370,4.6148,-0.6987,-11.8428,-0.8426,0.6882,0.0398,91,19.463,375,-9.3637,-1.7657,-4.7163,-0.5318,1.3741,0.2395,96,19.881,383,-3.344,1.1774,-4.7618,0.7176,0.4264,0.3259,64
19.412,374,1.0075,11.5694,-0.389,0.1367,-0.2882,-0.0677,93,19.273,371,2.5317,-0.6396,-11.5255,0.045,-0.1696,-0.0274,91,19.515,376,-7.3656,-1.3255,-2.727,0.0794,0.3971,-0.358,96,19.932,384,-4.173,0.5149,-3.5723,0.3791,-0.1658,0.3746,64
19.464,375,5.7191,11.9285,-2.0676,-0.587,-1.0682,0.0585,93,19.325,372,4.2993,-0.2953,-10.1247,0.7026,0.2707,-0.1364,91,19.567,377,-7.5549,-0.6951,-1.531,0.7564,0.5184,-0.7901,96,19.984,385,-5.1029,-0.4366,-2.6847,0.1276,-0.4841,0.3851,64
19.516,376,9.1578,12.6334,-2.4388,-1.1387,-0.4973,0.6431,93,19.377,373,1.506,0.5743,-10.9125,0.7869,0.8775,-0.0293,91,19.619,378,-8.2658,0.4577,-3.5171,0.8173,0.8425,-0.5816,96,20.036,386,-9.9792,2.4453,-2.9216,-0.4493,-0.6563,0.6057,64
19.568,377,7.5547,10.0551,-0.8246,-0.4307,0.0895,0.7518,93,19.429,374,1.9836,0.0351,-10.9841,0.5173,-0.0003,-0.3162,91,19.67,379,-6.499,1.2733,0.6538,-0.0422,1.023,-0.7824,96,20.088,387,-4.5354,-2.8735,-2.4707,-0.4669,-0.6817,0.3951,64
19.62,378,3.4019,11.7383,-0.9926,0.2822,-0.6724,0.721,93,19.48,375,6.6632,0.685,-15.4565,0.4849,-0.6721,-0.542,91,19.722,380,-4.8952,2.6137,-4.9125,0.0758,0.5522,-0.9053,96,20.139,388,-1.8044,-2.451,-4.5574,-0.3016,0.2133,0.7019,64
19.671,379,3.4951,10.9527,-0.6366,-0.3925,-0.4605,0.4688,93,19.532,376,10.0787,0.9767,-16.6868,0.6293,-0.8254,-0.427,91,19.774,381,-2.1167,-0.7768,-3.2536,0.116,1.149,-0.0643,96,20.191,389,1.3467,-1.9152,-5.0491,-0.1706,0.8666,0.7036,64
19.723,380,1.7868,10.5107,-0.5081,-0.3314,-0.4365,0.4293,93,19.584,377,10.9273,1.0387,-13.7352,-0.2221,0.0492,0.1345,91,19.826,382,-6.1942,1.814,-7.765,-0.0824,1.5846,0.5525,96,20.243,390,-6.8592,0.8426,-3.723,0.2939,1.1029,0.6091,64
19.775,381,0.5338,11.1231,-0.2201,0.0076,-0.3751,0.2926,93,19.636,378,2.6023,-1.0836,-16.7832,-0.6503,0.7158,0.3983,91,19.878,383,-8.285,0.9402,-5.9803,-0.7134,0.5508,0.1925,96,20.295,391,-7.9726,0.5189,-2.918,0.6986,0.5511,0.5789,64
19.827,382,2.1416,10.2942,0.2926,0.1685,-0.5232,-0.2536,93,19.688,379,4.0183,-1.2513,-14.9292,-0.5248,-0.1494,-0.0815,91,19.929,384,-5.5854,1.141,-3.6609,0.0182,-0.2038,-0.291,96,20.347,392,-7.9505,0.6835,-2.4532,0.756,-0.1016,0.6907,64
19.878,383,6.5468,12.711,-2.36,-0.0789,-1.2397,-0.2317,93,19.739,380,2.47,-0.9333,-14.6736,0.2026,0.5709,-0.0126,91,19.981,385,-7.3641,0.9407,-1.4771,0.5035,0.2882,-0.5691,96,20.398,393,-8.3884,-0.8057,-2.3685,-0.0861,-0.521,0.7128,64
19.93,384,9.7619,10.8966,-2.7865,-0.7526,-1.3688,0.3075,93,19.791,381,1.0894,-0.6697,-13.7707,0.0665,0.0008,-0.0358,91,20.033,386,-7.2234,1.2376,-0.2677,0.6544,0.0067,-0.4157,96,20.45,394,-9.6068,-1.1444,-1.1755,-0.4731,-0.4094,0.7953,64
19.982,385,7.9819,9.1667,-0.7684,0.0683,-0.5559,0.8275,93,19.843,382,1.366,-0.5757,-12.9412,0.2927,-0.2393,0.0911,91,20.085,387,-2.577,2.5621,5.0031,1.1145,-0.6009,-0.896,96,20.502,395,-4.2636,1.3872,-1.6294,-0.9832,0.0742,0.3272,64
20.034,386,4.209,11.689,-0.7806,0.6913,-1.2636,1.0965,93,19.895,383,3.5533,0.469,-12.9175,0.2734,-0.8465,0.0786,91,20.137,388,-0.4593,1.1075,0.633,0.8549,-0.0707,-0.4566,96,20.554,396,-2.2181,3.7344,-4.8548,-0.8002,0.5331,0.6462,64
20.086,387,4.1308,12.4019,-0.6711,-0.2058,-0.5773,0.907,93,19.947,384,7.8087,0.1679,-17.3783,0.4333,-0.4604,-0.2986,91,20.189,389,2.3597,-3.2005,-1.8159,-0.0294,0.6944,0.3227,96,20.606,397,0.7104,3.094,-1.5998,-0.149,1.0999,0.6839,64
20.137,388,2.2604,10.5605,-0.955,-0.8605,-0.9263,0.8294,93,19.998,385,10.9145,0.8196,-14.4448,-0.3652,-0.4396,0.3967,91,20.24,390,0.2781,1.6885,-6.1049,-0.6748,1.2528,0.8914,96,20.657,398,-3.6961,4.7176,-5.4728,0.6052,1.5137,0.5677,64
20.189,389,2.0349,10.979,-0.6899,-0.4961,-1.0325,1.2339,93,20.05,386,4.7424,0.2294,-12.4151,-0.5359,0.359,0.336,91,20.292,391,-7.692,0.2828,-5.4849,-0.5813,1.6604,0.3327,96,20.709,399,-4.263,4.7536,-3.4976,1.1556,0.7387,0.5678,64
20.241,390,1.219,11.0532,-1.188,-0.634,-0.8659,0.9274,93,20.102,387,4.1986,-0.4851,-14.9603,-1.0726,-0.4098,0.7165,91,20.344,392,-7.1456,1.8047,-4.955,0.2735,0.6061,-0.3028,96,20.761,400,-4.3507,2.5403,-2.9906,0.624,-0.1017,0.5292,64
20.293,391,5.8734,10.0664,-1.4924,-0.6871,-1.4403,0.1016,93,20.154,388,4.1048,-0.1514,-14.9891,-0.1159,0.3808,0.3929,91,20.396,393,-7.2224,1.7746,-3.0392,0.3818,0.5449,-0.643,96,20.813,401,-5.5361,1.7389,-2.4619,-0.1688,-0.7142,0.5382,64
20.345,392,9.2704,8.0318,-4.3444,-0.7545,-0.5573,-0.5521,93,20.206,389,-0.188,1.2578,-15.5737,0.2952,-0.1482,0.296,91,20.448,394,-7.6172,2.4307,0.5132,0.273,0.094,-0.6863,96,20.865,402,-5.5313,2.0006,-7.4841,-0.7392,-0.4787,0.7967,64
20.396,393,9.8776,5.4454,-1.2867,0.0908,0.0097,-0.1146,93,20.258,390,1.946,1.5719,-14.9739,0.6972,-0.78,0.014,91,20.499,395,-2.8644,-3.04,-5.0159,0.8977,-0.5371,-0.2416,96,20.916,403,-1.2892,6.7463,-4.1271,-1.1774,-0.8082,0.3982,64
20.448,394,3.0752,10.1237,-1.3728,0.7077,-0.7108,0.0926,93,20.309,391,4.0609,-2.1775,-16.3095,0.5634,-0.9449,-0.5365,91,20.551,396,-5.618,-4.6114,-9.0136,0.7283,-0.3477,-0.3812,96,20.968,404,0.0317,10.0014,-7.884,-0.1486,0.0582,0.7803,64
20.5,395,5.6839,9.7508,-3.483,-0.1938,-0.2069,-0.3676,93,20.361,392,8.1792,-2.9115,-19.8539,1.0815,-0.5422,-1.0788,91,20.603,397,-1.4053,-8.1797,-8.231,-0.0013,0.299,0.3777,96,21.02,405,2.2968,7.7569,-4.3196,0.3573,0.7533,0.7853,64
20.552,396,0.8386,8.5202,-3.9899,-0.4855,0.0473,-0.0122,93,20.413,393,11.1849,1.9692,-18.0501,0.1321,0.2593,-0.1407,91,20.655,398,-3.225,-3.5179,-11.3978,-0.2584,0.9642,0.7039,96,21.072,406,-6.0027,6.2001,-8.8399,0.9746,1.2607,0.9147,64
20.604,397,1.3814,9.5778,-2.6629,-0.1516,-0.1268,0.0966,93,20.465,394,3.9155,-0.2695,-17.9993,-0.585,0.8692,0.1338,91,20.707,399,-7.5731,-1.8091,-10.5391,-0.5649,0.2806,-0.077,96,21.124,407,-2.7979,6.4793,-5.4803,1.4252,0.2897,0.8067,64
20.655,398,1.3609,8.5794,-1.7502,0.0156,-0.6602,0.07,93,20.517,395,3.9389,-0.5248,-16.6673,0.2434,-0.0375,-0.0047,91,20.759,400,-5.6189,-0.8141,-7.9511,-0.2606,-0.401,-0.7072,96,21.175,408,-3.5813,3.1579,-4.4642,0.4101,-0.2474,0.6326,64
20.707,399,5.977,10.1908,-1.7505,0.3344,-1.3398,0.1364,93,20.568,396,4.378,-0.293,-14.9624,0.848,0.6525,-0.4793,91,20.81,401,-7.9115,-1.0802,-5.2382,-0.3088,0.4534,-0.6218,96,21.227,409,-5.435,2.5303,-2.9586,0.2171,-0.2782,0.5037,64
20.759,400,9.346,10.151,-3.2085,-0.4662,-0.4843,0.1605,93,20.62,397,1.2162,0.0844,-14.1146,0.2087,-0.071,-0.4138,91,20.862,402,-8.9065,-0.7736,-3.5727,-0.2697,0.41,-0.0034,96,21.279,410,-6.8855,1.513,-1.8543,0.1867,0.0247,0.5297,64
20.811,401,9.9018,6.7508,-2.9864,-0.7788,0.1404,-0.5496,93,20.672,398,3.2097,-0.0144,-12.4419,-0.1055,-0.7081,-0.1825,91,20.914,403,-10.9211,5.2103,-7.998,-0.4623,0.8936,0.1675,96,21.331,411,-2.2775,4.0685,-0.022,-0.0112,-0.6228,0.1759,64
20.862,402,4.0468,7.414,-3.7723,0.0725,-0.5594,-0.5609,93,20.724,399,2.5006,0.9024,-11.2081,-0.7584,-0.2586,0.0648,91,20.966,404,-5.2757,9.5775,-7.0104,-0.1322,0.3844,-0.2378,96,21.382,412,1.0856,3.7565,0.9034,-0.0525,-0.6957,0.2082,64
20.914,403,4.7654,6.7819,-3.2219,-0.6574,-0.2965,-0.7623,93,20.776,400,7.0404,-0.007,-16.1306,-1.2349,-0.8606,0.0293,91,21.017,405,-1.1555,8.0376,-8.9849,-0.3061,0.468,-0.2476,96,21.434,413,3.5402,5.2663,-1.7303,0.2512,0.165,0.8098,64
20.966,404,0.887,6.1335,-3.0117,-1.0435,-0.6552,-0.6134,93,20.827,401,10.3538,-2.1941,-19.7233,-1.5742,-0.354,-0.015,91,21.069,406,1.8516,10.5733,-8.449,0.2229,1.0845,0.4315,96,21.486,414,5.3316,-1.4591,-6.9502,0.8972,0.8313,0.4511,64
21.018,405,1.2867,5.4493,-2.8793,-0.1865,-0.6045,-0.4589,93,20.88,402,9.7753,-4.6758,-17.4198,-1.6203,0.4216,0.278,91,21.121,407,-6.5436,4.4961,-4.4046,-0.1387,1.5375,-0.3809,96,21.538,415,1.4418,-1.8298,-5.7302,0.1276,-0.0296,-0.1029,64
21.07,406,1.4044,6.1579,-1.8108,0.5053,-0.6183,-0.1187,93,20.931,403,2.3666,-2.8791,-16.7163,-0.5122,-0.0229,0.745,91,21.173,408,-4.2284,3.9254,-3.6441,0.5972,0.5164,-0.5395,96,21.59,416,0.15,-2.0555,-5.0165,-0.4285,-0.6212,-0.0335,64
21.121,407,3.6396,10.2977,-0.2749,1.0103,-0.3572,0.5984,93,20.983,404,4.6203,-1.045,-15.6829,0.2965,-0.6792,0.3165,91,21.225,409,-6.9287,3.4441,-1.2232,0.6422,1.1229,-0.3162,96,21.641,417,-1.9326,-2.9051,-2.8299,0.1588,-0.1951,-0.0703,64
21.173,408,7.6401,12.4674,-2.7575,0.027,-1.1186,0.5301,93,21.035,405,1.3017,2.8507,-15.96,-0.397,0.1842,0.6287,91,21.277,410,-7.5688,3.3306,-0.5244,1.1388,1.5018,0.2267,96,21.693,418,-7.5379,-1.9706,-5.2254,-0.0398,0.5685,0.1025,64
21.225,409,10.5598,10.3338,-1.5383,-0.6343,-0.6207,0.3803,93,21.087,406,-0.5572,2.2944,-17.6231,-0.2834,-0.5374,0.1497,91,21.328,411,-9.6462,5.2341,-1.9709,0.812,1.7621,0.2217,96,21.745,419,-8.2755,-0.0646,-5.1324,0.2554,1.0191,0.3267,64
21.277,410,5.0573,9.1407,-0.785,0.0684,0.0409,0.5463,93,21.139,407,4.8089,-3.6972,-14.3397,0.1712,0.0661,0.5407,91,21.38,412,-14.9352,9.5949,-6.8289,0.8789,1.2458,-0.2068,96,21.797,420,-9.4258,3.3203,1.1558,-0.1362,0.3943,-0.0344,64
21.328,411,3.7593,10.99,-0.7383,0.4694,-0.828,0.4656,93,21.19,408,3.983,-2.2754,-14.4592,0.7953,-0.4671,0.1538,91,21.432,413,-16.8874,3.1959,-10.3745,1.1662,1.6552,-0.8467,96,21.849,421,-4.5357,5.0928,-3.7618,0.1458,0.6607,0.4108,64
21.38,412,1.4439,9.8954,-0.6231,-0.3664,-0.2047,0.17,93,21.242,409,8.1224,-0.6484,-18.4372,-0.022,-1.0128,-0.5112,91,21.484,414,-9.8808,3.2057,-10.2297,0.9178,0.8389,-0.0681,96,21.9,422,-0.5625,2.1672,-5.0305,0.5694,0.4593,0.5344,64
21.432,413,1.2428,9.5257,-0.0147,0.1718,-0.2712,-0.2655,93,21.294,410,11.1434,-2.764,-21.4068,-0.6975,-0.0593,0.2914,91,21.536,415,-4.5165,-1.9079,-7.7158,0.9555,1.3583,0.4528,96,21.952,423,0.498,1.6128,-5.1243,0.4929,1.0461,0.5983,64
21.484,414,-0.7531,9.106,-0.2466,0.7668,-0.0952,-0.6376,93,21.346,411,11.2877,-3.6864,-20.2147,-0.6213,0.6366,0.8684,91,21.587,416,-6.8524,2.1586,-11.0218,0.5472,1.7373,0.9458,96,22.004,424,-4.2936,4.6227,-9.4272,0.9643,1.4744,0.6025,64
21.536,415,2.0664,11.6908,-0.59,0.4673,0.219,-0.583,93,21.398,412,2.8653,-4.4843,-17.7666,0.209,1.1446,0.9203,91,21.639,417,-9.4985,1.1426,-9.8535,0.2821,1.3419,0.191,96,22.056,425,-4.4588,2.2566,-6.8454,0.7343,0.5602,0.4198,64
21.587,416,-0.3812,10.5201,-0.6393,-0.3692,-0.0037,-0.8589,93,21.449,413,2.581,-1.5454,-16.4057,0.8229,0.1635,0.9705,91,21.691,418,-8.8327,1.9703,-7.1941,0.9043,0.5229,-0.3734,96,22.108,426,-4.9114,1.1867,-5.1895,-0.102,-0.232,0.3574,64
21.639,417,4.7055,13.3467,-2.6904,-0.1733,-0.8606,-0.669,93,21.501,414,2.476,0.1795,-14.8489,0.0103,0.7992,0.5695,91,21.743,419,-8.6552,2.2217,-5.1176,0.8429,0.1625,-0.6256,96,22.159,427,-6.3996,0.5886,-3.4662,-0.7123,-0.6828,0.3854,64
21.691,418,8.4181,14.9414,-0.9269,0.5149,-1.0898,0.1968,93,21.553,415,1.0316,-0.434,-13.9474,-0.6297,1.2632,-0.1043,91,21.794,420,-9.1503,2.3225,-3.4363,0.3041,-0.0086,-0.568,96,22.211,428,-7.4188,-0.3993,-1.4172,-0.7237,-0.5874,0.4906,64
21.743,419,5.5423,16.3031,1.755,0.9193,-0.3015,0.8287,93,21.605,416,0.6918,0.0749,-12.2761,-0.1418,0.7046,-0.5952,91,21.846,421,-3.9833,-2.6861,2.6905,0.36,-0.612,-0.2612,96,22.263,429,-2.6667,3.4114,-6.663,-0.9528,-0.2637,0.0126,64
21.794,420,1.574,16.7563,0.2912,0.1697,-0.6907,0.4744,93,21.657,417,4.4727,1.5555,-10.8432,-0.7074,-0.1576,-0.5547,91,21.898,422,-3.8451,-2.3301,-1.1986,0.1585,-0.1121,-0.349,96,22.315,430,0.8015,7.2352,-9.2207,-0.2779,0.3003,0.3704,64
21.846,421,1.7276,13.7854,-0.6523,-0.5865,-0.4781,0.0022,93,21.708,418,8.4799,-0.6993,-15.8643,-1.1583,0.4784,-0.4257,91,21.95,423,-0.1113,-5.7926,-2.9057,-0.5376,0.3392,0.4012,96,22.366,431,3.3328,7.7571,-4.9268,0.5111,0.9301,0.5648,64
21.898,422,0.9883,11.1923,-1.4943,-0.4148,-0.6768,-0.1739,93,21.76,419,10.3938,-1.5112,-18.1799,-1.5268,0.2241,0.3538,91,22.002,424,-1.6428,0.7627,-5.4219,-1.0457,0.9936,0.9487,96,22.418,432,-2.4688,9.5948,-9.2831,1.0869,1.3897,0.7045,64
21.95,423,0.1638,10.4438,-1.9242,0.3387,-0.6991,-0.0114,93,21.812,420,3.714,-4.0412,-14.796,-0.5631,0.4652,0.2777,91,22.053,425,-9.0939,-1.1484,-4.1003,-1.1343,1.4712,0.3204,96,22.47,433,-1.0872,5.6825,-5.7047,1.4181,0.4197,0.4212,64
22.002,424,0.6374,10.1445,-0.8895,0.7167,-0.8405,0.25,93,21.864,421,6.5682,-1.2944,-12.341,0.2594,-0.3323,0.6366,91,22.105,426,-8.4141,0.4401,-3.5905,-0.4361,0.468,-0.3805,96,22.522,434,-2.4529,3.4499,-4.6381,0.9553,-0.3346,0.4967,64
22.054,425,5.4489,10.7699,-3.0028,0.8322,-1.4713,0.5876,93,21.916,422,3.7998,0.4338,-11.0342,-0.1543,0.4374,0.4242,91,22.157,427,-6.8128,0.9377,-2.0361,0.0632,-0.2642,-0.7622,96,22.574,435,-3.5372,2.5999,-3.4195,0.0703,-0.885,0.4816,64
22.105,426,8.9606,8.542,-4.2403,1.2012,-1.0148,0.4002,93,21.968,423,2.5594,0.8357,-10.3666,-0.4146,0.1812,0.3262,91,22.209,428,-7.452,0.0978,-0.7194,0.7446,-0.4531,-1.0858,96,22.625,436,-4.8333,0.812,-1.1027,0.0095,-1.014,0.3906,64
22.157,427,7.933,10.3436,-3.0203,1.5181,-0.2468,0.7469,93,22.019,424,2.6984,0.8989,-10.3546,-0.5611,0.7799,0.1782,91,22.261,429,-8.4808,4.9401,-5.9155,0.9872,0.2231,-0.9253,96,22.677,437,-6.1844,2.9119,4.0968,-0.6309,-1.1177,0.391,64
22.209,428,2.9155,11.6407,-3.3024,0.3977,-1.028,-0.0775,93,22.071,425,1.2515,-0.0652,-10.5169,0.2534,0.2384,-0.2631,91,22.313,430,-6.5819,9.3804,-5.4186,0.7895,-0.105,-1.2576,96,22.729,438,-2.8387,3.0048,-0.9178,0.1149,-0.2557,0.5308,64
22.261,429,2.3028,10.2945,-2.541,-0.42,-0.3913,-0.4132,93,22.123,426,6.1288,-0.9489,-15.6262,0.3167,-0.4979,-0.4082,91,22.364,431,-2.1088,7.9852,-5.6779,0.1148,-0.1037,-0.3356,96,22.781,439,0.676,2.5151,-2.814,0.4893,0.5243,1.0779,64
22.313,430,1.7147,9.9512,-1.9107,-0.0921,-0.5578,-0.1381,93,22.175,427,9.6884,-2.1389,-16.9475,-0.3386,-0.757,-0.2158,91,22.416,432,1.1558,7.4903,-7.2937,0.7822,0.6703,0.3664,96,22.833,440,2.9943,-0.8275,-3.7917,0.1208,1.0935,1.1671,64
22.364,431,0.7091,10.9594,-1.7629,0.0497,-0.3419,-0.1077,93,22.227,428,9.5202,-2.6865,-14.6314,0.385,0.1274,-0.1358,91,22.468,433,-5.768,7.7048,-0.1248,0.4045,1.2352,0.8705,96,22.884,441,-5.6567,2.0114,-1.8068,0.6054,0.8513,0.8082,64
22.416,432,0.7986,11.2736,-1.2421,0.0425,-0.4817,-0.7438,93,22.278,429,1.5753,-0.2189,-14.2532,0.6646,0.7729,0.3294,91,22.52,434,-6.7474,5.8663,-1.4955,-0.3581,0.2958,0.3795,96,22.936,442,-7.5394,1.4883,-3.087,1.1557,0.4956,0.7733,64
22.468,433,3.4785,10.8461,0.1698,-0.4259,-0.8854,-1.2096,93,22.33,430,2.6187,-0.4843,-12.596,-0.0571,-0.1078,0.4508,91,22.572,435,-6.3246,5.4316,-0.7307,0.2645,-0.3404,-0.175,96,22.988,443,-7.9566,1.5158,-2.7457,0.6032,-0.183,0.5666,64
22.52,434,7.5225,11.2136,-1.5619,-0.6729,-0.4962,-0.8429,93,22.382,431,0.8837,0.601,-13.0547,-0.327,0.6012,0.4332,91,22.623,436,-6.5151,3.9562,-0.1349,0.5675,-0.3456,-0.5941,96,23.039,444,-8.3975,-0.0762,-1.5932,-0.1976,-0.6444,0.674,64
22.572,435,10.474,11.9801,-0.4743,0.1504,-0.3938,-0.0432,93,22.434,432,0.3039,-1.4289,-11.9611,0.3452,0.3315,0.01,91,22.675,437,-7.1853,3.1177,1.2039,0.5627,-0.185,-0.6753,96,23.091,445,-9.5401,-0.4829,-0.3807,-0.6315,-0.6326,1.0744,64
22.623,436,3.893,13.7659,-0.0442,-0.4921,0.2065,0.6402,93,22.486,433,0.1778,0.5866,-11.4633,0.8247,-0.1416,0.2438,91,22.727,438,-2.5492,-1.6175,6.0772,0.0953,-0.7408,-0.3516,96,23.143,446,-4.2149,3.2777,4.6238,-1.0987,-1.1025,0.7896,64
22.675,437,3.428,12.7145,-0.3369,-1.0694,-0.7072,-0.1994,93,22.537,434,3.0162,0.7357,-11.448,-0.0795,-0.7752,0.2789,91,22.779,439,-1.5152,-3.4483,-0.9349,-0.0072,-0.6548,-0.108,96,23.195,447,-4.0037,6.2072,-1.4348,-0.4188,-0.2463,1.1119,64
22.727,438,1.9756,11.6425,-1.145,-1.4908,-0.1301,-0.3933,93,22.589,435,7.4169,-3.2305,-16.089,-0.3422,-0.7226,-0.0853,91,22.831,440,1.5891,-5.2092,-3.7769,-0.5862,0.1523,0.568,96,23.247,448,-0.1742,5.514,-0.4733,0.3286,0.5312,1.3053,64
22.779,439,1.081,11.707,-0.6183,-1.7984,-0.7953,-0.1867,93,22.641,436,10.6286,-3.6487,-17.301,-0.9311,-0.2284,0.1412,91,22.882,441,2.7907,1.973,-8.147,-0.9902,0.8572,1.0675,96,23.298,449,-0.0122,2.2127,-5.1278,0.9182,1.0986,0.9775,64
22.831,440,0.1605,9.6138,-1.5424,-1.1899,-0.897,-0.1286,93,22.693,437,6.3017,-3.658,-15.0251,-0.5714,0.5132,0.6938,91,22.934,442,-4.9989,1.4119,-4.686,-0.9843,1.3716,0.1713,96,23.35,450,-1.4526,-0.0896,-2.9472,0.486,0.1609,0.5107,64
22.882,441,0.4201,10.6182,-1.165,-0.227,-0.6249,-0.4816,93,22.745,438,2.135,-1.4607,-15.08,-0.5148,-0.2314,0.6784,91,22.986,443,-5.3699,2.1174,-4.1734,-0.3441,0.3953,-0.3683,96,23.402,451,-2.7627,-1.0076,-2.0732,-0.0285,-0.4788,0.5015,64
22.934,442,5.2903,12.0397,-1.9483,0.3458,-1.314,-0.6033,93,22.796,439,5.9562,-0.8845,-13.2206,-0.8273,-0.725,0.764,91,23.038,444,-3.0074,3.1777,-2.5863,0.3295,-0.3172,-0.9222,96,23.454,452,-3.825,-0.5258,-1.8064,-0.3946,-0.99,0.4751,64
22.986,443,8.8449,13.4804,-2.0061,-0.4579,-0.547,-0.0615,93,22.848,440,2.8985,-0.2174,-12.2075,-0.8662,0.1508,0.5759,91,23.09,445,-5.5603,1.3285,-0.4907,0.2233,-0.4041,-1.1539,96,23.506,453,-4.4147,-1.7928,-0.929,-0.9258,-1.3068,0.4737,64
23.037,444,10.4911,11.5874,-1.2772,-1.0445,0.0054,-0.0143,93,22.9,441,1.3499,-0.7083,-11.1773,-0.0392,-0.2268,0.13,91,23.141,446,-8.3906,6.7445,-5.7486,0.7312,-0.1092,-1.1807,96,23.557,454,-3.3938,-2.5807,-3.7605,-1.3135,-1.5946,0.4863,64
23.089,445,2.0527,8.7041,-3.6391,-1.2918,0.4978,0.0602,93,22.952,442,2.6437,0.9631,-9.903,0.0018,-0.4692,-0.0701,91,23.193,447,-4.2673,10.4738,-5.1191,0.859,-0.3476,-1.5562,96,23.609,455,0.2709,-7.1862,-6.097,-1.2414,-0.7908,0.0608,64
23.141,446,4.4201,8.5688,-2.6271,-0.8636,-0.2009,-0.2127,93,23.004,443,7.1449,-3.7897,-15.1781,-0.6801,-1.0143,0.4686,91,23.245,448,-2.091,8.859,-9.1255,0.0147,-0.4232,-1.1697,96,23.661,456,0.5895,-7.1331,-7.2834,-0.5597,0.1337,0.2582,64
23.193,447,0.3495,7.8545,-2.8606,-0.737,0.1186,-0.0763,93,23.056,444,10.43,-4.2751,-18.0024,-0.9125,-0.8362,0.4414,91,23.297,449,-1.2333,6.8501,-8.5088,0.4444,0.4371,-0.564,96,23.713,457,1.4513,-5.5396,-5.9132,-0.0112,0.8085,0.2865,64
23.245,448,1.0039,8.0649,-2.108,-0.5952,-0.3987,0.2847,93,23.107,445,10.0994,-4.8001,-16.1046,-0.123,0.0642,0.5871,91,23.349,450,-2.398,8.654,-10.0821,-0.329,1.065,0.2443,96,23.764,458,-4.2105,-3.1497,-10.003,0.6903,1.3009,0.3977,64
23.296,449,0.6965,8.1217,-1.6396,-0.4397,-0.6942,0.5828,93,23.159,446,1.9981,-3.6643,-15.8038,0.5806,0.7267,0.6718,91,23.4,451,-6.2486,7.4326,-8.355,0.0493,0.9849,0.0538,96,23.816,459,-5.922,-2.2012,-7.5611,1.2177,0.7071,0.4687,64
23.348,450,4.0837,8.5594,-0.9633,0.0452,-1.1486,0.6946,93,23.211,447,2.6215,-2.2963,-14.8211,1.0941,-0.1414,0.7677,91,23.453,452,-6.0357,4.8623,-5.9472,-0.2614,0.1131,0.1591,96,23.868,460,-5.8697,-2.2955,-5.3852,1.4525,-0.0993,0.553,64
23.4,451,7.9642,10.196,-2.5515,-0.5575,-1.6847,0.6282,93,23.263,448,1.7211,-0.1193,-13.1235,1.2848,0.5767,0.5555,91,23.504,453,-6.6113,4.4378,-2.7693,-0.0556,0.1656,-0.03,96,23.92,461,-6.2021,-2.3242,-3.8453,0.9308,-0.6046,0.703,64
23.452,452,10.7964,8.2665,-2.1972,-0.5478,-1.2365,0.0668,93,23.315,449,-0.3002,0.1102,-12.5346,0.5679,0.0898,0.2014,91,23.556,454,-7.6421,9.0138,-7.4116,0.0872,0.5323,0.2175,96,23.972,462,-10.4359,1.53,-0.901,0.0415,-0.7442,0.7118,64
23.504,453,6.8866,7.8436,-0.8246,0.2413,-0.4086,-0.0893,93,23.367,450,1.8227,-2.1997,-11.5441,-0.1254,-0.2815,-0.064,91,23.608,455,-11.0306,7.5832,-4.8728,-0.0839,0.6991,-0.1992,96,24.023,463,-4.8688,-4.186,3.5638,-0.1963,-1.1445,0.262,64
23.555,454,1.9487,9.5436,-1.0424,0.8176,-0.7722,-0.1728,93,23.418,451,6.5457,-3.4385,-14.691,0.5789,-0.8773,-0.065,91,23.66,456,-8.4138,6.4913,-6.9773,0.2412,1.2562,-0.7864,96,24.075,464,-2.3231,-3.1901,-0.9731,-0.5184,-0.2738,0.4663,64
23.607,455,2.5497,9.0152,-0.6558,0.0178,-0.7753,-0.691,93,23.47,452,9.9927,-1.683,-16.4414,1.0917,0.0396,-0.6328,91,23.712,457,-6.2324,3.0126,-6.5408,0.696,1.6628,-0.5684,96,24.127,465,-0.8739,-2.0051,-0.458,-0.0283,0.5111,0.5771,64
23.659,456,1.5383,8.3885,-0.76,0.3193,-0.5821,-0.5587,93,23.522,453,11.8386,-1.4802,-15.007,0.5305,0.5513,-0.5235,91,23.763,458,-6.0593,4.452,-8.0027,1.0556,1.9596,-0.3366,96,24.179,466,-6.85,-2.0508,-4.5913,0.6933,1.0839,0.6895,64
23.711,457,1.2384,9.1984,-0.3957,0.5219,-0.7424,0.0008,93,23.574,454,7.5549,-1.3069,-12.9824,0.396,1.0823,-0.3329,91,23.815,459,-8.5099,6.1027,-3.7178,1.4677,1.6009,-0.2659,96,24.231,467,-4.4235,-2.3661,-2.9572,1.1954,0.1502,0.6486,64
23.763,458,2.0885,9.074,-0.2187,0.172,-0.9555,-0.0647,93,23.626,455,1.748,-0.9643,-12.4432,-0.3924,1.1913,-0.4225,91,23.867,460,-7.5467,1.7339,-1.1458,0.5567,1.4292,-0.4641,96,24.282,468,-4.9402,-1.0793,-1.8948,0.9361,-0.3622,0.4996,64
23.814,459,6.508,11.4662,-3.0667,0.2841,-1.5552,-0.4596,93,23.677,456,1.4428,-2.327,-12.653,-0.2474,0.3263,-0.1434,91,23.918,461,-8.1977,2.4616,-0.7582,0.3817,1.5788,-0.1719,96,24.334,469,-6.3647,0.305,-1.2885,0.5504,-0.4637,0.2795,64
23.866,460,9.7336,11.2911,-1.2408,0.8456,-0.9474,-0.5048,93,23.729,457,2.2882,-0.8148,-12.664,0.2594,0.1523,-0.0772,91,23.97,462,-9.1644,2.4454,-2.8747,0.9052,1.6956,-0.3251,96,24.386,470,-7.586,-0.2638,-1.4339,-0.2362,-0.5944,0.3378,64
23.918,461,8.1881,11.9531,0.3147,0.387,-0.1976,-0.3984,93,23.781,458,1.4865,-1.5792,-12.3948,0.0596,0.1414,-0.006,91,24.022,463,-3.9936,-3.0293,-7.4885,0.0073,0.6318,0.4187,96,24.438,471,-2.7888,-2.2705,-6.7338,-0.8102,-0.0608,0.4628,64
23.97,462,1.7995,11.5757,-0.9514,-0.2547,-0.4976,-0.5284,93,23.833,459,2.5263,-1.757,-14.4642,0.7139,-0.5686,-0.3343,91,24.074,464,-1.3088,-1.6465,-7.801,-0.4474,0.7971,0.3271,96,24.49,472,-1.9421,-0.9773,-9.3412,-0.0309,0.6332,0.6061,64
24.021,463,3.1305,10.6909,-0.6676,-0.8962,-0.5432,-0.4979,93,23.885,460,7.0592,-0.8161,-15.2165,1.1912,0.203,-0.9312,91,24.126,465,0.7351,-2.5843,-6.1824,-0.3556,1.3278,0.6698,96,24.542,473,0.2304,0.6958,-5.878,0.4858,1.173,0.7026,64
24.073,464,0.8842,9.4725,-0.8496,-0.6161,-0.5089,-0.264,93,23.936,461,9.348,-2.8958,-13.2518,0.1894,0.828,-0.7551,91,24.177,466,-1.7157,-0.3904,-8.1099,-0.9128,1.7151,1.1353,96,24.593,474,-6.043,1.9759,-7.9433,1.0685,1.567,0.575,64
24.125,465,0.2998,9.6425,-0.6618,-0.3016,-0.4207,0.0058,93,23.988,462,3.8514,-3.1348,-12.1975,0.3334,1.2842,-0.9383,91,24.229,467,-6.3518,0.7191,-5.9432,-0.3687,1.9007,0.6908,96,24.645,475,-5.4038,0.7068,-5.541,0.1449,0.5061,0.2583,64
24.177,466,1.063,10.1337,-0.7722,-0.1967,-0.7455,0.2509,93,24.04,463,3.3605,-2.7981,-12.4758,0.7014,0.2654,-0.704,91,24.281,468,-5.1457,0.1778,-4.0139,0.2418,0.7815,0.0607,96,24.697,476,-5.7336,-0.3514,-4.2672,-0.5321,-0.1945,0.3093,64
24.229,467,5.7596,12.1717,-2.1421,-0.7893,-1.402,0.8279,93,24.092,464,2.3175,-1.8261,-12.6593,1.1818,0.8502,-0.4988,91,24.333,469,-5.9272,1.4489,-2.3626,0.504,0.3392,-0.3892,96,24.749,477,-6.5981,-1.5338,-2.7838,-1.0262,-0.5796,0.2983,64
24.28,468,9.1873,10.9867,-2.5412,-1.2561,-0.8723,0.6726,93,24.144,465,1.6879,-1.4929,-12.61,0.2809,0.0108,-0.4167,91,24.385,470,-6.397,3.3909,-5.8127,0.8258,0.3914,-0.6108,96,24.801,478,-2.878,0.8824,-7.7191,-1.3868,-1.0639,0.3963,64
24.332,469,7.5433,7.8505,-0.2727,-0.2753,-0.246,0.1626,93,24.195,466,1.5953,-1.3351,-11.5574,0.0256,-0.303,-0.1467,91,24.436,471,-1.9738,-2.3393,-9.6328,-0.0162,-0.3201,-0.002,96,24.853,479,-0.3083,-4.6587,-5.9855,-1.1952,-0.6653,-0.1078,64
24.384,470,2.3885,10.5741,-0.0003,0.4405,-0.3691,0.8037,93,24.247,467,6.3797,-2.2941,-13.0183,0.2074,-0.893,-0.6991,91,24.488,472,-1.1617,-2.1456,-10.4,0.2931,-0.5046,0.3425,96,24.905,480,0.4714,-1.5256,-6.7001,-0.1943,0.2253,0.354,64
24.436,471,2.6082,10.374,0.8849,-0.2913,-0.4928,0.5682,93,24.299,468,9.8717,-0.5253,-14.0962,0.8217,-0.7173,-0.8922,91,24.54,473,-1.4381,-5.3613,-7.2447,0.3784,0.3777,0.8424,96,24.956,481,0.0291,-1.0099,-5.5595,-0.303,0.8753,0.6651,64
24.488,472,1.3115,11.4893,0.5325,0.4289,-0.2495,0.6885,93,24.351,469,11.1697,-0.5812,-12.4691,-0.0588,0.1007,-0.4683,91,24.592,474,-3.7627,-1.634,-7.423,-0.3771,1.0217,1.2453,96,25.008,482,-3.9425,-0.4011,-7.7691,0.4927,1.3497,0.7662,64
24.539,473,1.5754,13.7337,0.4083,-0.0022,0.1457,0.7423,93,24.403,470,5.2341,-1.5818,-12.7889,-0.4834,0.7534,-0.7112,91,24.644,475,-7.598,0.2171,-6.432,-0.0965,0.3426,0.7204,96,25.06,483,-4.3763,-0.7291,-6.4412,1.0056,0.4422,0.6709,64
24.591,474,3.7091,12.3681,0.9279,-0.5889,-0.347,0.4937,93,24.455,471,4.7665,-2.0045,-12.8815,-0.0703,-0.122,-0.5252,91,24.695,476,-6.1222,-0.0793,-4.2338,0.2156,-0.3557,0.1602,96,25.111,484,-4.8216,0.7066,-4.2858,1.3802,-0.3099,0.6288,64
24.643,475,7.6908,12.9948,-1.8359,-1.1401,-1.1112,0.2245,93,24.507,472,3.3115,-1.4972,-12.5561,0.4989,0.5909,-0.5109,91,24.747,477,-7.5271,0.6917,-2.8304,0.8558,-0.4833,-0.5789,96,25.163,485,-6.2596,-0.2427,-4.0115,0.919,-0.8245,0.5486,64
24.695,476,10.5968,10.6764,-1.1597,-1.5424,-0.9855,0.2942,93,24.558,473,1.5028,-1.8518,-12.8501,0.0797,-0.0861,-0.3699,91,24.799,478,-10.52,6.2797,-7.4562,1.323,-0.4656,-1.0374,96,25.215,486,-1.8207,2.272,1.9739,0.414,-1.2426,0.4061,64
24.746,477,6.0036,8.578,-0.0234,-0.4981,-0.243,0.3097,93,24.61,474,2.8093,-1.4729,-11.7341,0.6867,-0.5005,-0.0404,91,24.851,479,-4.983,5.1935,-4.2805,0.8901,0.2242,-1.373,96,25.267,487,0.5753,-0.1321,-1.8799,0.2805,-0.3994,0.274,64
24.798,478,3.0763,9.1454,-0.6178,0.2779,-0.9491,0.1159,93,24.662,475,7.2657,-0.6562,-14.983,1.0574,-1.0372,-0.0193,91,24.903,480,-0.9418,7.085,-3.1059,0.7407,-0.0243,-0.3476,96,25.319,488,3.0009,0.1014,-2.6385,0.4593,0.4192,0.6047,64
24.85,479,2.5811,9.9274,-0.295,-0.1573,-0.3884,-0.432,93,24.714,476,10.5184,0.2081,-15.5854,0.2269,-0.6353,-0.033,91,24.955,481,0.8344,9.1017,-3.6941,0.2936,0.7232,0.3672,96,25.37,489,3.263,-1.7412,-3.622,0.9416,1.0168,0.3665,64
24.902,480,1.3125,9.4603,-1.0199,0.1277,-0.4006,-0.4471,93,24.766,477,7.1565,-0.6678,-12.8371,-0.5158,0.2162,0.4907,91,25.007,482,-4.1713,6.4407,-6.5432,0.5086,1.2738,-0.2498,96,25.422,490,-4.8709,0.3125,-6.4507,0.1419,0.9438,0.3014,64
24.954,481,0.3794,8.9426,-0.7906,0.619,-0.4317,-0.5761,93,24.817,478,1.8044,-1.5144,-12.9965,0.1893,-0.2925,0.7246,91,25.058,483,-4.612,4.6396,-5.2432,-0.1608,0.324,-0.3067,96,25.474,491,-5.7057,-0.3146,-4.8781,-0.0197,0.0479,0.3494,64
25.006,482,3.9411,10.7885,-1.1193,1.0932,-1.0116,-0.6955,93,24.869,479,3.9791,-0.6639,-11.8092,0.8085,-0.7128,0.5764,91,25.11,484,-1.9774,4.1647,-3.1475,0.2689,-0.3693,-0.7913,96,25.526,492,-5.9298,-0.9304,-3.6791,-0.6522,-0.6059,0.4315,64
25.057,483,7.8602,13.4598,-2.7286,0.5141,-0.8878,-0.4188,93,24.921,480,1.8406,0.8675,-11.83,0.8073,0.1597,0.3584,91,25.162,485,-4.5384,3.1462,0.8639,0.3874,-0.4584,-0.9944,96,25.578,493,-7.7542,1.4553,-5.9261,-0.8175,-0.9998,0.4265,64
25.109,484,9.4449,13.6014,-0.8237,0.22,-0.2979,0.2269,93,24.973,481,0.8451,0.3262,-11.6938,-0.0922,-0.2833,0.1807,91,25.214,486,-3.8658,2.5476,5.829,0.6508,-0.9403,-0.7937,96,25.629,494,-2.9115,4.2636,-6.4168,-0.8389,-1.3117,-0.2635,64
25.161,485,3.1278,12.8837,-1.2931,-0.5378,0.2765,0.5069,93,25.025,482,5.8322,1.5043,-12.6508,0.0086,-0.8786,-0.1304,91,25.266,487,-1.1446,1.2984,1.5869,0.4928,0.0163,-0.3122,96,25.681,495,0.6229,5.5044,-7.6768,-0.6591,-0.6299,0.1417,64
25.213,486,3.1814,12.2555,-0.9745,-0.7848,-0.5933,0.2096,93,25.076,483,9.4721,0.6386,-15.9188,-0.4693,-0.0239,-0.1322,91,25.317,488,1.8595,0.501,0.2202,-0.2523,-0.4576,0.4199,96,25.733,496,3.2025,5.7606,-5.8023,-0.1203,0.2511,0.6252,64
25.265,487,1.7163,11.2191,-0.9582,-0.8136,-0.1357,0.2615,93,25.128,484,12.1285,0.5933,-14.7428,-0.9606,0.2215,0.1356,91,25.369,489,2.9092,4.948,-1.4046,-0.8067,0.412,0.9624,96,25.785,497,4.5657,2.3953,-9.0262,0.6261,0.8942,0.253,64
25.316,488,0.7459,10.9154,-0.5376,-0.7849,-0.2961,0.3537,93,25.18,485,6.6618,0.2527,-11.8042,-1.3825,0.8415,0.33,91,25.421,490,-2.2145,4.4352,-4.8475,-0.6717,1.0467,0.4317,96,25.836,498,-1.0801,0.82,-7.0016,-0.1485,0.1146,0.0699,64
25.368,489,1.0029,9.8364,-0.2195,-0.7567,-0.517,0.3258,93,25.232,486,2.7887,-1.6683,-13.0577,-0.4802,-0.038,0.4253,91,25.473,491,-3.2333,2.3969,-3.6751,-1.1435,0.1582,0.1335,96,25.888,499,-2.8753,0.5925,-5.4657,-0.1782,-0.5523,0.1727,64
25.42,490,5.7157,10.5725,-1.367,-0.3391,-1.2352,0.4214,93,25.284,487,5.4577,-0.3467,-12.6853,0.3199,-0.3412,0.2978,91,25.525,492,0.0226,2.6076,-1.3249,-0.304,-0.4271,-0.5615,96,25.94,500,-4.4236,-0.4655,-4.5466,-0.2283,-1.0397,0.4747,64
25.472,491,9.1553,11.3596,-1.9992,-0.4525,-1.0369,0.6369,93,25.336,488,1.3354,1.0662,-12.7862,-0.2071,0.1353,0.3633,91,25.576,493,-4.288,2.0384,0.4984,0.4076,0.4144,-1.0611,96,25.992,501,-5.8173,-1.1954,-2.3219,-0.1986,-1.1344,0.5924,64
25.524,492,9.6928,10.7855,-0.5409,-0.0995,-0.3312,0.5871,93,25.387,489,1.7758,-0.0885,-12.1678,-0.2258,-0.5731,0.3113,91,25.628,494,-2.1428,-3.3062,5.5622,0.0556,-0.3033,-0.3434,96,26.044,502,-1.4979,4.4137,-1.2208,-0.7828,-1.108,0.1476,64
25.575,493,1.47,11.4509,-2.3875,0.2179,0.2516,0.4954,93,25.439,490,3.75,0.9443,-11.2278,0.4296,-0.9848,0.0826,91,25.68,495,1.131,-5.4419,1.3946,-0.2826,0.0487,-0.5835,96,26.095,503,-2.0499,4.1444,-4.4441,-0.4312,-0.9182,0.4613,64
25.627,494,3.9159,11.8094,-1.4206,-0.5415,-0.6742,-0.1707,93,25.491,491,7.9525,0.7834,-15.4997,0.4499,-1.3906,-0.5065,91,25.732,496,3.5204,-0.4657,0.0552,-0.6984,-0.5702,0.221,96,26.147,504,1.2013,2.6429,-4.03,0.3992,0.0379,0.4532,64
25.679,495,1.6266,10.2202,-1.633,-1.0769,-0.0651,-0.3391,93,25.543,492,11.0195,-0.2277,-13.321,-0.3512,-0.8285,0.053,91,25.784,497,1.7294,1.3716,-1.8173,-0.7685,0.2494,0.8014,96,26.199,505,0.8585,1.6844,-5.4437,0.8698,0.7385,0.6475,64
25.731,496,1.2461,10.6907,-1.2477,-0.5894,-0.3944,-0.3504,93,25.595,493,9.5045,-1.4167,-12.4177,-0.3034,0.0752,0.2951,91,25.835,498,-1.4622,1.6276,-0.5436,-0.5223,0.444,0.9765,96,26.251,506,-1.4226,0.2362,-3.3849,0.9336,0.9484,0.4076,64
25.782,497,1.2969,10.2127,-0.6086,-0.478,-0.5172,-0.5082,93,25.646,494,2.9618,-1.7799,-13.5339,0.4104,0.3493,0.3943,91,25.887,499,-3.5483,1.4147,-0.869,-0.5612,0.9521,1.3686,96,26.303,507,-3.4863,1.3444,-2.383,1.3953,1.4031,0.3712,64
25.834,498,5.5859,10.0194,-0.3235,-0.469,-1.2103,-0.5696,93,25.698,495,3.6904,-0.8047,-13.5456,0.9698,-0.4169,0.5033,91,25.939,500,-5.269,1.376,-0.5418,-0.0523,0.9799,1.4122,96,26.354,508,-4.9246,-0.0665,-2.7162,1.7322,1.6486,0.3547,64
25.886,499,9.0606,11.4351,-1.9353,-1.052,-0.6533,-0.0607,93,25.75,496,2.4303,0.1592,-13.582,0.7575,0.3754,0.6406,91,25.991,501,-6.9396,3.0898,-0.7131,0.3428,0.7467,0.9884,96,26.406,509,-0.8464,5.2377,2.9192,1.6981,0.5623,0.5803,64
25.938,500,10.4496,9.5014,-0.9372,-0.9814,-0.2906,-0.0805,93,25.802,497,1.5017,-0.6628,-13.6344,-0.1286,-0.3535,0.7336,91,26.043,502,-9.8378,6.2299,0.1365,0.9486,1.291,0.9621,96,26.458,510,-8.4598,2.2822,-3.0879,1.9397,1.1213,-0.0271,64
25.99,501,5.5327,8.8674,-0.795,-0.1319,0.2818,0.0626,93,25.854,498,6.3114,-1.8833,-17.9015,0.3485,-0.9298,0.0588,91,26.094,503,-9.0745,-0.2346,-1.5968,0.5547,0.3365,0.2938,96,26.51,511,-9.3628,-2.1627,-3.1173,0.7778,1.5293,0.2119,64
26.041,502,3.4255,9.7745,-0.471,0.509,-0.186,-0.0029,93,25.906,499,-0.7666,0.5967,-14.0417,-0.074,0.0013,-0.0567,91,26.146,504,-5.5567,-3.8938,-3.9787,-0.1416,0.2107,0.373,96,26.562,512,-7.635,-5.0946,-3.2951,0.3785,1.3387,0.318,64
26.093,503,2.0586,9.6553,-0.2932,0.315,-0.0802,-0.1074,93,25.957,500,-0.4097,-1.9348,-12.4666,-0.1336,-0.6709,-0.5412,91,26.198,505,-3.481,-2.5033,-3.8146,0.0519,-0.2653,0.0439,96,26.613,513,-5.7756,-4.4192,-2.6412,-0.0265,0.9443,0.267,64
26.145,504,1.4584,10.1629,-0.3168,0.5526,-0.1057,-0.119,93,26.009,501,4.2668,1.6917,-12.5851,-0.1445,-1.1615,-0.0519,91,26.25,506,-2.5014,-2.0122,-3.8269,-0.1188,-0.1453,-0.0729,96,26.665,514,-4.3932,-3.2718,-1.367,-0.048,0.5851,0.2971,64
