right_hand_timestamp,right_hand_index,right_hand_accel_x,right_hand_accel_y,right_hand_accel_z,right_hand_gyro_x,right_hand_gyro_y,right_hand_gyro_z,right_hand_battery_percentage,left_hand_timestamp,left_hand_index,left_hand_accel_x,left_hand_accel_y,left_hand_accel_z,left_hand_gyro_x,left_hand_gyro_y,left_hand_gyro_z,left_hand_battery_percentage,right_leg_timestamp,right_leg_index,right_leg_accel_x,right_leg_accel_y,right_leg_accel_z,right_leg_gyro_x,right_leg_gyro_y,right_leg_gyro_z,right_leg_battery_percentage,left_leg_timestamp,left_leg_index,left_leg_accel_x,left_leg_accel_y,left_leg_accel_z,left_leg_gyro_x,left_leg_gyro_y,left_leg_gyro_z,left_leg_battery_percentage
0.468,9,2.9256,6.6286,-20.9856,-0.8411,0.9821,-1.0895,84,0.345,6,8.8361,7.6243,-0.6703,1.1935,-1.012,1.5566,90,0.023,0,6.6633,-1.6293,-13.8859,0.2789,-0.2891,0.6364,88,0.874,16,14.2699,4.5299,-12.6774,1.1381,-1.7998,1.6706,51
0.519,10,6.9553,0.1812,-23.3127,-1.2913,1.3635,-1.4703,84,0.397,7,4.1202,8.2223,-0.5349,1.5402,-0.6001,1.6712,90,0.075,1,5.5436,-0.1231,-13.7173,-0.4281,-0.7548,0.7718,88,0.925,17,15.5321,1.7147,-8.4966,0.1581,-0.9219,1.8996,51
0.571,11,5.486,-5.0655,-25.0112,-1.095,0.3885,-1.7482,84,0.449,8,3.0165,10.2848,-0.3603,1.5728,-0.7462,0.7635,90,0.127,2,8.9975,-0.221,-14.4959,-0.3821,-0.9558,0.4989,88,0.977,18,13.2229,1.4397,-9.8051,-0.1199,0.0121,1.9925,51
0.623,12,5.0562,-7.1232,-25.3839,-0.1248,-0.3858,-1.951,84,0.501,9,2.2848,12.8138,2.0915,1.0686,-0.0831,-0.1291,90,0.179,3,10.9133,1.1342,-13.4752,-0.5551,-1.0968,0.3696,88,12.417,239,11.6511,2.9119,-14.3879,-1.3547,1.1994,-0.0009,51
0.675,13,7.184,-8.0312,-20.9124,0.5833,-0.9509,-2.099,84,0.553,10,6.5866,14.6789,4.1743,0.0999,0.5998,-0.7806,90,0.23,4,11.8046,0.2202,-12.1499,-1.0803,-1.0564,0.307,88,12.469,240,11.0115,-0.7212,-18.4821,-1.6658,1.5603,-0.4632,51
0.727,14,7.2921,-7.2335,-15.2336,0.7038,-0.9417,-1.2455,84,0.605,11,9.7261,16.0402,4.5421,-0.6071,1.1169,-1.2561,90,0.282,5,13.4746,-0.7424,-9.973,-1.2775,-1.4444,-0.0811,88,0.02,0,7.5162,-2.5026,-21.4702,-1.3407,0.925,-0.5291,51
0.778,15,10.3784,-10.477,-16.5267,1.1241,-0.0049,-0.2324,84,0.656,12,12.0176,13.5056,-3.3663,-1.1231,1.4942,-1.6031,90,0.334,6,13.3504,-0.1727,-15.2836,-1.6076,-1.7276,-0.2774,88,0.072,1,3.6491,-1.7962,-19.1907,-0.3038,0.046,-0.4275,51
0.83,16,12.6309,-12.5057,-20.0584,1.4948,0.4477,0.507,84,0.708,13,11.0197,7.6086,-10.3967,-0.2541,1.3562,-0.7559,90,0.386,7,11.7078,-0.387,-16.1822,-0.4969,-1.7651,-0.688,88,0.124,2,7.7806,-0.4538,-12.1908,-0.8955,0.3806,0.3683,51
0.882,17,13.4664,-6.3491,-14.4285,1.4601,-0.2466,1.0467,84,0.76,14,9.9348,4.6269,-12.3596,0.4863,0.3172,0.1137,90,0.438,8,8.7679,2.5021,-17.9528,0.1655,-0.6099,-0.4275,88,0.176,3,10.7959,-1.9939,-15.0241,-0.2031,0.0957,-0.1189,51
0.934,18,11.2876,0.063,-16.6899,1.74,0.5025,0.0888,84,0.812,15,9.5636,3.57,-12.6673,1.0266,-0.4412,0.7484,90,0.489,9,1.2656,3.64,-20.671,0.1107,0.2333,-0.3255,88,0.227,4,10.2929,-1.9886,-16.3981,-0.0268,0.1251,-0.1853,51
0.985,19,4.7006,5.4359,-18.7631,1.7199,1.0491,-0.6103,84,0.864,16,10.6304,7.4918,-9.7673,1.421,-0.9947,1.2116,90,0.541,10,1.421,0.7274,-19.2943,0.7112,0.6343,-0.1944,88,0.279,5,12.6295,2.6242,-11.1244,0.6475,0.7305,-0.7176,51
1.037,20,8.4869,3.8361,-21.6907,0.5779,1.0033,-1.1205,84,0.915,17,6.8458,10.7947,-5.9239,0.7964,-1.3986,1.3982,90,0.593,11,3.7766,1.3991,-16.8359,1.1956,0.8369,-0.7938,88,0.331,6,6.9055,2.1421,-12.2907,1.1473,0.7031,-1.1952,51
1.089,21,7.6232,0.778,-22.8232,0.4131,1.0094,-1.4929,84,0.967,18,5.7505,12.1671,-1.6757,0.5155,-1.5273,0.5547,90,0.645,12,4.0449,1.0916,-13.9826,1.4825,1.0327,-1.0082,88,0.383,7,6.2589,3.0377,-12.502,0.1603,1.0763,-0.9135,51
1.141,22,8.0145,0.7567,-19.0745,0.4098,0.0673,-1.7647,84,1.019,19,9.116,14.207,1.4248,0.6612,-0.6271,-0.2815,90,0.697,13,4.5076,1.6071,-10.6898,0.9784,1.332,-0.5434,88,0.435,8,3.9299,-0.5221,-12.6361,0.7916,1.1613,-1.3381,51
1.193,23,10.9056,-2.7437,-15.236,-0.3783,-0.0668,-1.3318,84,1.071,20,10.6699,12.0576,0.8379,-0.1975,0.2214,-0.8918,90,0.748,14,5.0623,1.4459,-7.7047,0.3474,1.6505,-0.1447,88,0.486,9,2.439,-5.2402,-12.9394,0.466,1.0279,-0.5528,51
1.244,24,13.0157,-7.2002,-13.5448,0.2919,0.6247,-1.6471,84,1.123,21,10.4881,6.8489,-3.0605,-0.8241,0.8407,-1.3373,90,0.8,15,8.9604,0.3057,-8.2625,0.2562,1.883,0.2128,88,0.538,10,-2.1569,-9.1214,-17.4249,-0.1037,0.2036,0.2769,51
1.296,25,14.5558,-8.1564,-12.9396,0.2923,0.6083,-0.819,84,1.174,22,8.7328,1.8797,-8.028,-0.6413,1.2553,-0.3106,90,0.852,16,11.8055,0.6576,-11.7739,-0.4069,2.0526,0.7748,88,0.59,11,3.5431,-11.938,-15.1414,-0.7153,-0.2846,0.8398,51
1.348,26,13.641,-7.7108,-12.9679,0.2682,0.3819,-0.297,84,1.226,23,9.0904,2.5711,-7.1432,0.0871,0.3812,0.4387,90,0.904,17,7.9479,0.7405,-16.188,-0.9653,1.5631,0.4968,88,0.642,12,3.4192,-6.2007,-18.2694,0.0466,-0.6157,1.2931,51
1.4,27,10.3224,-5.8532,-13.2059,0.8701,0.9289,0.4447,84,1.278,24,9.5048,3.871,-3.9873,-0.5242,-0.3944,0.9855,90,0.956,18,6.7785,-0.0074,-15.433,-0.7663,0.5693,0.1285,88,0.694,13,7.6128,-3.7568,-15.5664,0.2124,-0.1804,1.6241,51
1.452,28,9.0749,-6.3564,-14.8596,1.0226,0.9254,0.7815,84,1.33,25,10.7248,6.7884,-0.2623,0.2891,0.2977,1.2834,90,1.008,19,5.762,-2.2148,-16.6015,-1.1676,-0.2579,-0.0092,88,0.745,14,10.2956,0.8991,-14.3705,0.6038,-0.7977,1.8657,51
1.504,29,11.2977,-4.4912,-16.8269,1.4207,0.0527,1.2081,84,1.382,26,10.8306,10.2813,2.4564,-0.469,0.8963,0.5355,91,1.059,20,6.2417,-1.5463,-14.875,-1.4913,-0.8616,-0.0738,88,0.797,15,12.6315,-1.3641,-16.6062,-0.2364,-1.249,2.042,51
1.711,33,15.3654,-3.1277,-18.8346,2.1385,-1.7596,2.1368,84,1.589,30,2.3849,6.7693,-16.6073,0.4475,-0.6644,1.0001,91,1.266,24,11.6165,-1.4398,-17.0118,-1.4347,-1.2217,-0.4468,88,1.004,19,7.8842,-1.8143,-16.5267,-0.7136,0.9,-0.1491,51
1.762,34,10.5944,3.1072,-17.5798,2.2351,-1.6117,1.8519,84,1.641,31,0.9649,10.2674,-9.4729,0.8791,-1.1575,0.0504,91,1.318,25,13.744,-2.0164,-13.3288,-1.6426,-0.333,-0.1844,88,1.056,20,6.8958,-2.907,-16.7344,-1.0244,1.3418,-0.7802,51
1.814,35,9.7468,7.6577,-15.9767,0.955,-0.6036,1.9291,84,1.693,32,5.6233,10.1424,-4.2659,0.0232,-0.3797,-0.6496,91,1.37,26,7.3714,-2.3598,-17.7328,-1.8741,-0.6433,-0.7302,88,1.108,21,4.5968,-3.312,-20.1947,-1.0807,1.6643,-1.2409,51
1.866,36,8.6362,6.1004,-14.75,0.0197,0.2419,1.459,84,1.744,33,8.9497,12.7292,-0.4656,-0.6631,-0.5657,-1.1605,91,1.422,27,10.6457,-2.7475,-16.5652,-0.8634,-1.1429,-1.1775,88,1.16,22,5.6932,-5.1089,-22.7201,-0.2471,1.7689,-1.1957,51
1.918,37,11.3594,0.5405,-16.0703,-0.663,0.859,0.3897,84,1.796,34,11.1893,8.2038,-6.0149,-1.164,0.2662,-1.3391,91,1.474,28,13.0355,0.771,-16.1481,-1.2976,-1.5075,-1.2872,88,1.212,23,6.0878,-3.8183,-22.7142,0.2891,0.6242,-0.6245,51
1.97,38,12.9641,-4.8032,-19.7253,-1.1613,0.7486,0.9611,84,1.848,35,9.8795,1.6338,-11.8388,-1.5296,-0.3093,-0.312,91,1.525,29,9.8125,0.0726,-16.1645,-0.4171,-0.6175,-1.2632,88,1.263,24,9.5604,2.5054,-14.0124,-0.3693,-0.2112,-0.2735,51
2.021,39,11.7156,-8.7033,-18.8915,-0.1732,0.5017,1.2563,84,1.9,36,12.1296,1.7145,-12.1251,-1.0335,-0.8984,0.4377,91,1.577,30,7.0434,3.5687,-19.8024,0.3721,0.2277,-1.0831,88,1.315,25,11.0643,1.2834,-15.9171,-0.4483,-0.8209,-0.3675,51
2.073,40,10.1389,-6.2648,-16.4206,0.3589,1.0486,1.509,84,1.952,37,11.8187,6.5781,-12.6113,-0.692,-1.3284,0.9848,91,1.629,31,3.7824,3.0085,-22.4576,-0.0457,0.8445,-0.9525,88,1.367,26,13.1925,1.6889,-16.6472,0.0603,-0.6338,-0.3418,51
2.125,41,6.7308,-1.4121,-18.9424,-0.4038,1.4477,1.7779,84,2.004,38,10.5556,7.0494,-9.5609,-0.6541,-1.6422,1.3841,91,1.681,32,-0.6839,3.0116,-22.2344,0.1195,1.1371,-1.1397,88,1.419,27,14.154,1.0768,-10.6416,0.5089,-0.0993,-0.7118,51
2.177,42,6.3329,4.3593,-18.8176,0.3796,1.739,1.9743,84,2.056,39,10.0551,10.4718,-4.3302,0.1469,-1.8712,0.9449,91,1.733,33,-1.9476,2.0991,-18.0448,0.3685,0.6991,-1.251,88,1.471,28,12.7564,5.0835,-7.9966,1.0461,-0.6662,-1.1307,51
2.229,43,3.6036,5.5136,-17.2204,-0.4003,1.9516,1.0056,84,2.107,40,12.2577,12.9696,-0.5125,-0.5184,-2.018,0.0033,91,1.784,34,-0.3344,1.2393,-13.0156,0.3586,0.6999,-0.8192,88,1.522,29,9.3318,0.4398,-6.9218,1.4156,0.1987,-1.4936,51
2.28,44,-1.6194,1.9305,-20.5647,-0.9695,2.1068,0.8961,84,2.159,41,13.8653,11.0021,0.0641,-1.0584,-0.895,-0.684,91,1.836,35,2.4713,0.0548,-9.3986,0.7389,1.1892,-0.0629,88,1.574,30,7.0164,-2.0152,-10.4817,1.7078,0.83,-1.6475,51
2.332,45,-2.4699,-1.9807,-21.8137,-0.0332,0.8683,0.0277,84,2.211,42,13.3516,8.5874,-4.1452,-1.4525,0.0259,-1.1856,91,1.888,36,2.6436,-0.5131,-7.7105,0.1218,1.5463,0.6318,88,1.626,31,2.341,-4.6476,-15.3165,1.9211,0.5281,-0.8103,51
2.384,46,-4.6886,-3.457,-22.3611,-0.7016,1.1773,0.6968,84,2.263,43,9.0713,3.4979,-8.9502,-1.4203,-0.4753,-1.3348,91,1.94,37,3.7044,-1.3633,-11.0808,0.6176,1.8069,1.1389,88,1.678,32,6.8258,0.051,-14.4768,2.0768,-0.0365,-0.1932,51
2.436,47,-7.6809,-6.9318,-23.4115,-0.2024,0.1904,0.2188,84,2.315,44,11.5397,4.7373,-5.3666,-0.3649,-0.8571,-0.6877,91,1.992,38,7.9694,0.4978,-16.0922,0.7639,1.9971,1.3933,88,1.73,33,10.0991,-4.5254,-14.5835,1.9861,-0.6133,0.2751,51
2.488,48,-6.074,-5.5886,-22.1125,0.5267,-0.5304,0.7846,84,2.366,45,11.3176,4.4842,-3.8552,0.1224,-0.6226,0.1028,91,2.043,39,5.959,-3.007,-19.7497,0.5307,0.7842,0.5535,88,1.781,34,10.6376,0.0504,-14.165,1.6693,-0.5079,0.8811,51
2.539,49,-4.8871,0.9675,-18.6772,0.585,-1.0564,1.2493,84,2.418,46,9.599,4.306,-4.0031,0.7558,-0.6722,0.7404,91,2.095,40,5.1575,-0.3598,-19.7839,0.6818,-0.1004,-0.0754,88,1.833,35,12.5621,1.2214,-12.649,1.4124,-1.0375,1.3234,51
2.591,50,-3.4731,1.3234,-19.6067,-0.2504,-0.2258,0.5429,84,2.47,47,8.4063,4.2372,-4.9454,1.031,-0.9207,1.2058,91,2.147,41,6.7909,-1.8347,-20.3554,-0.1776,-0.7467,0.4437,88,1.885,36,14.2857,-0.2436,-15.036,0.4793,-1.424,1.6462,51
2.643,51,-3.9084,-4.2318,-20.1776,-0.8466,-0.4763,-0.2789,84,2.522,48,7.6498,5.1044,-5.3984,0.9856,-1.009,1.5065,91,2.199,42,7.5296,-2.0628,-18.979,-0.1339,-0.8996,0.5063,88,1.936,37,11.5893,-1.4746,-15.9209,-0.3273,-0.536,1.8465,51
2.695,52,-6.5021,-4.4991,-19.2594,0.0565,-0.1403,0.1257,84,2.574,49,7.0488,6.2841,-5.5882,0.993,-0.8657,1.267,91,2.251,43,7.0965,-3.5739,-17.0794,-0.3833,-0.7456,0.2983,88,1.988,38,8.3892,-1.2342,-16.927,-0.3992,0.2938,1.2759,51
2.746,53,-6.8876,-1.5453,-16.192,-0.183,-0.7717,-0.041,84,2.625,50,6.2727,6.384,-5.9435,1.0541,-0.5179,0.7793,91,2.303,44,8.4053,-2.4849,-15.8454,-0.4344,-0.6847,0.0061,88,2.04,39,6.6643,-1.7758,-18.0234,-0.8062,0.8994,0.5287,51
2.798,54,-5.3141,-2.9825,-15.5973,-0.811,-1.2326,-0.5436,84,2.677,51,6.1021,7.353,-4.9467,1.0373,-0.0856,0.1941,91,2.354,45,8.4634,-2.448,-15.2074,-0.2225,-0.6616,-0.1637,88,2.092,40,5.2533,-3.5824,-20.6009,-0.9143,1.3414,-0.1037,51
2.85,55,-3.7238,-2.2052,-14.3988,-0.1,-1.0085,-0.1918,84,2.729,52,4.9409,7.5649,-4.1359,0.9971,0.6036,-0.3853,91,2.406,46,8.4686,-2.789,-14.281,-0.4972,-0.7618,-0.163,88,2.144,41,3.6125,-3.773,-20.4782,-0.8132,1.664,-0.4578,51
2.902,56,-4.9017,-0.3726,-13.7964,-0.4637,-0.336,0.2754,84,2.781,53,3.2485,5.1609,-3.1894,0.1236,1.1096,-0.6158,91,2.458,47,8.8929,-2.5352,-13.8843,-0.7681,-0.9267,-0.1729,88,2.195,42,2.1297,-3.6459,-18.4927,-0.2648,1.8407,-0.8057,51
2.954,57,-4.895,0.5089,-13.9404,-1.0158,-0.4973,-0.2826,84,2.833,54,1.6608,6.6615,0.3201,0.0152,1.4889,-0.9273,91,2.51,48,9.5824,-1.5206,-14.4917,-0.8213,-0.968,-0.1399,88,2.247,43,1.276,-2.6291,-16.7928,-0.6376,1.8816,-0.8996,51
3.006,58,-4.0199,-0.8536,-14.7903,-1.4188,-0.1695,-0.8814,84,2.884,55,4.9695,10.1887,2.8814,-0.3382,1.7658,-1.3632,91,2.562,49,9.6184,-2.0155,-13.6763,-0.9927,-0.8363,-0.1344,88,2.299,44,2.0798,-2.4901,-16.7655,-1.1422,1.768,-0.8803,51
3.057,59,-3.1556,-1.4384,-13.0326,-1.7129,-0.1472,-1.3184,84,2.936,56,8.5461,10.2705,3.5152,-0.9268,1.9678,-1.6813,91,2.613,50,9.4475,-1.9975,-12.7325,-1.3997,-1.1988,-0.2692,88,2.351,45,1.8201,-2.1237,-17.1361,-1.1854,1.6414,-1.0152,51
3.109,60,0.2984,-6.2475,-17.5083,-1.9275,0.4671,-0.7472,84,2.988,57,9.3693,3.697,-0.4462,-1.3565,2.1153,-0.9774,91,2.665,51,12.1609,-0.5345,-11.4361,-1.6968,-1.5483,-0.7504,88,2.403,46,0.9844,-1.6315,-20.42,-0.6382,0.7399,-0.4831,51
3.161,61,1.2004,-9.7574,-20.7748,-0.8319,-0.2832,-0.0588,84,3.04,58,7.3773,1.2152,-5.6691,-0.7636,1.4018,-0.048,91,2.717,52,14.1413,-5.0887,-14.0429,-1.481,-1.7081,-0.9522,88,2.454,47,1.9142,-5.4555,-19.7434,-0.6232,-0.0426,0.3278,51
3.213,62,1.4801,-9.686,-21.8998,0.0672,0.46,0.2218,84,3.092,59,6.7402,2.1007,-8.2149,-0.4508,0.3504,0.6304,91,2.769,53,9.7211,-0.1186,-18.1058,-1.7561,-1.0867,-0.2058,88,2.506,48,6.3012,-6.5046,-19.7141,-0.7301,-0.6979,-0.1128,51
3.265,63,-3.1348,-1.6793,-21.3132,0.7235,1.0181,-0.013,84,3.143,60,4.7432,3.1081,-7.4616,-0.496,-0.4169,0.9578,91,2.821,54,3.353,2.4584,-18.3729,-1.0965,-0.6027,0.2586,88,2.558,49,7.6144,-4.8106,-18.9048,-0.6146,-0.4429,-0.0207,51
3.316,64,-1.9207,1.7243,-15.6285,-0.1367,0.077,-0.6846,84,3.195,61,0.9606,4.4387,-6.5001,0.0563,-0.8173,0.8507,91,2.872,55,1.4456,5.4585,-18.4668,-1.283,-1.0227,0.3294,88,2.61,50,10.6746,-2.4851,-16.509,-0.2448,0.3407,-0.2506,51
3.368,65,3.6545,0.6768,-14.2613,-0.7771,0.7386,-1.022,84,3.247,62,-0.8014,4.7019,-5.7984,-0.1025,-1.1627,0.2073,91,2.924,56,1.0273,3.1658,-17.0579,-0.876,-1.4193,-0.4267,88,2.662,51,10.0134,-3.021,-13.1857,0.4926,0.9336,-0.8447,51
3.42,66,3.5977,0.9188,-17.6839,-1.2446,1.2215,-1.0054,84,3.299,63,1.3745,3.8325,-4.6965,0.1622,-1.5213,-0.2321,91,2.976,57,4.019,1.5197,-14.4586,0.0372,-1.7093,-0.9855,88,2.713,52,11.6197,0.2399,-10.667,0.8123,0.3711,-0.5066,51
3.472,67,4.0725,-0.006,-18.9637,-1.5856,1.5739,-0.2504,84,3.351,64,5.889,7.6351,-2.0442,0.6677,-1.7307,-0.5642,91,3.028,58,5.5913,0.0104,-11.4452,-0.4882,-0.866,-1.0598,88,2.765,53,6.7314,-0.4386,-11.4807,1.2675,0.5624,-1.0412,51
3.524,68,0.7404,-2.4056,-18.4392,-0.8014,1.1572,-0.8579,84,3.403,65,5.2224,7.0548,-1.4513,1.159,-1.9358,-1.0982,91,3.08,59,6.3963,-1.2534,-8.1128,-0.3657,0.0463,-0.4279,88,2.817,54,3.9411,-2.9576,-13.1875,1.5998,0.7472,-1.3458,51
3.575,69,5.5967,0.2097,-21.4523,-0.9915,0.5995,-1.3012,84,3.454,66,4.5036,3.5075,-1.3442,0.1659,-1.6678,-1.3085,91,3.131,60,9.3222,-1.5013,-8.7325,0.4096,0.7121,0.3654,88,2.869,55,4.7781,-5.8731,-14.9902,0.4905,-0.1152,-0.3019,51
3.627,70,9.141,-3.8699,-23.6534,-1.401,1.059,-1.1817,84,3.506,67,4.674,3.3916,-0.6478,0.7928,-1.5576,-0.788,91,3.183,61,12.0695,-3.0001,-13.7763,0.9755,1.1981,0.8874,88,2.92,56,6.1892,-2.919,-14.1815,-0.2716,-0.5691,0.3071,51
3.679,71,7.4806,-6.1048,-24.2201,-0.3482,0.543,-1.5376,84,3.558,68,7.8635,5.8008,0.0121,0.4762,-1.7349,-0.5993,91,3.235,62,14.0746,-6.8061,-18.0594,1.3885,1.5528,-0.0263,88,2.972,57,4.9318,-4.3886,-13.1494,-0.6386,0.1394,0.802,51
3.731,72,6.9268,-6.8573,-18.9196,0.3578,0.4903,-0.6366,84,3.61,69,7.2888,5.3098,0.0295,0.171,-1.0569,-0.4966,91,3.287,63,12.4734,0.3845,-10.5965,0.4109,0.4615,0.1813,88,3.024,58,4.6073,-3.5019,-13.9478,-0.3308,-0.075,0.8109,51
3.782,73,5.8138,-10.2025,-21.8049,0.9355,-0.2037,-1.1397,84,3.662,70,5.6006,3.5502,-1.6188,0.5205,-0.0923,0.1333,91,3.338,64,9.2243,3.2005,-12.1886,0.9765,0.5419,-0.3106,88,3.076,59,6.9744,-2.2939,-13.8745,0.2422,-0.6177,0.8733,51
3.834,74,8.4166,-2.3856,-23.9107,1.3572,-0.0944,-1.5069,84,3.714,71,4.2423,4.742,-3.655,0.9581,0.6087,0.5163,91,3.39,65,9.6401,1.7819,-11.9587,0.0374,0.6711,0.1833,88,3.128,60,7.8632,-0.6923,-16.0494,0.3874,-0.7095,1.0099,51
3.886,75,4.6116,3.1056,-23.1737,1.6649,-0.5582,-0.8147,84,3.765,72,3.1308,5.1503,-3.8947,0.7014,0.2373,0.2679,91,3.442,66,9.1482,1.8158,-11.3493,0.3847,0.4935,0.2953,88,3.179,61,6.2392,-0.7777,-17.0846,0.9574,-1.0925,0.069,51
3.938,76,4.4617,2.967,-20.2043,1.8895,-0.6351,-0.4386,84,3.817,73,2.7527,5.1753,-4.2147,0.2957,-0.0115,-0.1435,91,3.494,67,9.6488,0.8004,-10.1644,0.2744,0.0659,0.2745,88,3.231,62,5.1504,-1.2622,-17.4792,1.3734,-1.4641,-0.621,51
3.99,77,4.5391,1.6954,-18.3726,2.0534,-0.5056,-0.343,84,3.869,74,3.475,4.0862,-4.1117,-0.137,0.01,-0.164,91,3.546,68,9.029,0.5104,-10.7459,0.8768,-0.4844,-0.223,88,3.283,63,4.652,-2.0251,-17.1971,1.6771,-1.7354,-1.1247,51
4.041,78,4.6463,-0.7024,-17.464,1.9301,-0.3038,0.0116,84,3.921,75,6.7819,4.7594,-3.2732,0.5132,0.4863,0.1981,91,3.597,69,9.48,0.3504,-9.6809,1.3165,-1.0269,-0.8368,88,3.335,64,5.5468,-2.1932,-15.571,1.8987,-1.9333,-1.4922,51
4.093,79,4.2684,-3.0501,-17.7267,1.5311,-0.3207,0.5943,84,3.973,76,8.0623,4.5807,-2.9771,0.901,1.034,0.7463,91,3.649,70,7.1008,-4.9813,-12.5571,1.6373,-1.0115,-1.0328,88,3.387,65,6.6083,-2.3126,-14.1374,2.0604,-2.059,-1.738,51
4.145,80,6.3294,-5.4477,-17.7557,1.433,-0.8298,-0.2414,84,4.024,77,8.2964,4.1106,-2.9371,0.8012,1.4337,1.2101,91,3.701,71,6.2473,-5.6776,-13.4369,0.6992,-0.6055,-0.9,88,3.438,66,6.4656,-2.3748,-13.4127,2.1785,-1.9087,-1.9398,51
4.197,81,6.0497,-6.064,-18.5263,1.3549,-1.275,-0.4403,84,4.076,78,8.0572,4.4924,-3.6774,1.2565,1.7255,1.5485,91,3.753,72,9.2195,-1.8114,-13.1018,0.661,-0.496,-0.9411,88,3.49,67,7.3778,-2.6328,-13.1332,2.2251,-1.2945,-2.07,51
4.249,82,4.9289,-8.249,-19.8883,0.8251,-1.5999,-0.1997,84,4.128,79,6.9237,5.2447,-5.0576,0.8776,1.9384,1.7956,91,3.805,73,8.9989,-1.458,-13.2936,0.4351,-0.2236,-0.8448,88,3.542,68,8.1007,-3.2272,-12.5274,2.2987,-0.764,-2.1822,51
4.3,83,4.0167,-6.809,-19.2456,1.077,-1.837,-0.5522,84,4.18,80,5.2837,5.9793,-7.5078,1.2521,2.0938,1.9759,91,3.857,74,8.7955,-0.6665,-13.0814,0.4298,-0.0335,-0.8183,88,3.594,69,9.0534,-3.425,-12.0198,1.8876,-0.1523,-2.1426,51
4.352,84,2.8846,-6.7607,-18.9615,0.3001,-2.01,-0.8279,84,4.232,81,4.4526,6.1251,-8.9885,1.5852,1.9566,2.1075,91,3.908,75,8.885,0.311,-12.7012,0.2819,0.0868,-0.7254,88,3.645,70,9.0796,-3.8687,-11.6214,1.6901,0.5445,-1.7613,51
4.404,85,2.0499,-6.5203,-18.6717,0.7327,-2.1364,-1.2794,84,4.283,82,3.5124,9.6804,-8.1689,1.8287,1.9828,2.2035,91,3.96,76,9.0356,0.3904,-12.0629,0.1072,0.1418,-0.75,88,3.697,71,8.9561,-2.7205,-11.6241,1.4019,0.9368,-1.4634,51
4.456,86,1.113,-4.0856,-16.5531,0.7279,-2.2284,-1.4973,84,4.335,83,3.6104,12.392,-3.3142,2.0064,1.203,1.036,91,4.012,77,8.9546,0.2034,-12.8072,0.0524,-0.1196,-0.9501,88,3.749,72,8.0943,-2.1277,-11.9459,0.9784,1.0407,-1.3147,51
4.508,87,-0.2432,-4.9374,-16.9732,0.2312,-1.6186,-1.7679,84,4.387,84,2.323,14.3711,0.229,1.0598,1.5571,0.0697,91,4.064,78,10.1216,0.9688,-12.2967,0.352,-0.0142,-1.2779,88,3.801,73,7.924,-1.2236,-12.094,0.9613,0.9162,-1.4326,51
4.559,88,0.2957,-4.7153,-18.2013,0.3132,-1.4951,-1.9654,84,4.439,85,5.2525,15.8155,0.0209,0.0934,1.8155,-0.6355,91,4.115,79,12.2062,-1.2593,-11.7154,0.3349,0.0496,-1.5966,88,3.853,74,7.4654,-4.3179,-16.8079,0.9175,0.0848,-0.786,51
4.611,89,5.2721,-8.6325,-21.2806,-0.4336,-1.5742,-1.4925,84,4.491,86,8.7526,14.6222,-7.9246,-0.6118,2.0041,-1.1502,91,4.167,80,12.0874,-2.4755,-11.9136,0.8949,-0.4729,-1.8393,88,3.904,75,3.2184,-3.4432,-12.9254,0.1216,-0.2566,-0.2202,51
4.663,90,8.9042,-10.1336,-22.6271,-0.1904,-1.8182,-0.4127,84,4.542,87,8.6695,5.4111,-13.0147,0.2072,0.9188,-0.4739,91,4.219,81,12.5267,-0.8516,-13.6594,1.3296,-1.0186,-2.0164,88,3.956,76,1.8084,-2.2524,-13.0726,0.4483,-0.7952,-0.3072,51
4.715,91,8.2728,-5.9966,-22.3628,0.5354,-1.8947,0.3755,84,4.594,88,11.2464,7.4595,-6.8509,0.823,-0.0021,0.3195,91,4.271,82,13.2106,0.6078,-14.4929,0.2952,-0.7614,-1.4854,88,4.008,77,3.903,-2.5531,-14.4868,0.3186,-1.051,-0.2797,51
4.767,92,6.8284,-0.0137,-16.5695,-0.2866,-0.7004,-0.4011,84,4.646,89,6.2714,6.339,-5.1339,-0.0794,0.123,0.8975,91,4.323,83,9.5202,-0.0197,-15.8724,0.892,-0.2343,-1.007,88,4.06,78,6.3129,-2.6683,-15.812,0.443,-0.8369,-0.2429,51
4.818,93,4.957,0.0318,-15.6021,-0.8866,0.1712,-0.933,84,4.698,90,2.774,6.8889,-6.7835,0.6138,0.7688,1.2989,91,4.374,84,7.7208,1.525,-16.041,1.3275,0.2363,-0.4785,88,4.112,79,9.7247,-1.5976,-13.4196,0.7025,-0.0916,-0.7101,51
4.87,94,4.4529,-2.2828,-19.3836,-1.2487,0.7217,-0.5168,84,4.75,91,-0.5165,7.8168,-7.0942,0.1077,1.2266,0.7217,91,4.426,85,4.9428,0.7721,-14.3994,0.9774,0.8508,0.06,88,4.163,80,4.5496,-1.0143,-13.278,1.1874,0.0451,-1.0274,51
4.922,95,4.2856,-5.0307,-18.6937,-1.5687,-0.0661,0.2994,84,4.802,92,-5.4059,10.8245,-3.173,0.6265,1.1647,0.0534,91,4.478,86,4.1257,0.7213,-13.0064,1.1956,1.2993,0.419,88,4.215,81,3.7634,0.5478,-10.494,1.4915,0.3602,-1.3731,51
4.973,96,2.7159,-4.7305,-16.5056,-0.4819,-0.2208,0.6928,84,4.853,93,-8.294,10.3852,0.332,-0.2076,0.8238,-0.6474,91,4.53,87,2.9686,0.1364,-11.938,1.5492,1.6266,0.5488,88,4.267,82,3.5083,-1.5591,-10.5506,0.7819,0.7804,-1.6735,51
5.025,97,3.1025,-7.0712,-17.5727,0.3226,-0.6134,1.1548,84,4.905,94,-4.5082,5.3357,0.9854,-0.8315,1.2506,-1.1567,91,4.582,88,2.9957,2.0334,-11.5545,1.2344,1.8655,0.4895,88,4.319,83,1.2067,-6.3413,-12.2362,0.4472,0.3682,-1.0074,51
5.077,98,2.0933,-9.8576,-20.8218,0.9043,-1.0963,1.5195,84,4.957,95,-1.44,3.7039,-2.6822,-0.9615,1.5919,-0.3962,91,4.633,89,2.2332,-0.2567,-15.8432,1.3692,2.0399,0.5977,88,4.371,84,5.998,0.664,-10.8887,0.6632,-0.3593,-0.5298,51
5.129,99,0.8806,-9.5954,-19.371,0.5542,-1.4695,1.5812,84,5.009,96,-0.6626,4.9775,-4.0426,-1.3817,0.6173,0.1996,91,4.685,90,6.8956,3.0809,-18.6418,0.982,2.0897,0.191,88,4.422,85,7.636,0.6523,-13.2594,1.113,-0.9284,-0.1673,51
5.181,100,2.276,-8.2054,-15.7773,1.0788,-1.4185,1.3181,84,5.061,97,-0.7788,4.3218,-3.1972,-1.6735,-0.2221,0.1896,91,4.737,91,10.0756,6.9526,-21.6105,0.7667,0.8518,0.1372,88,4.474,86,9.5158,0.4523,-13.3589,1.487,-0.9943,0.1683,51
5.232,101,3.2281,-3.0305,-16.4439,1.2191,-0.6271,1.6387,84,5.112,98,-1.6373,1.5136,-3.5302,-1.3674,-0.8348,0.2768,91,4.789,92,8.7529,-0.1627,-18.4012,0.8598,0.0131,0.1625,88,4.526,87,10.3369,2.4762,-13.8864,1.7599,-1.3925,0.6938,51
5.284,102,3.2766,-3.5798,-18.6846,0.534,0.2247,1.6725,84,5.164,99,-2.1348,1.7984,-0.0224,-1.1108,-1.2819,0.8674,91,4.841,93,7.4117,-0.9074,-18.4679,-0.0477,-0.4904,0.5142,88,4.578,88,12.6616,-0.4676,-18.1161,1.0695,-1.6831,1.1867,51
5.336,103,1.762,-5.8896,-19.1525,-0.1419,0.4447,0.5455,84,5.216,100,-4.9654,0.7887,2.6315,-1.304,-0.291,1.2984,91,4.892,94,8.0097,-0.9416,-17.647,-0.1954,-0.56,0.6398,88,4.629,89,11.689,-3.1934,-19.8671,0.1035,-1.4471,1.4488,51
5.388,104,0.2256,-6.1244,-17.6247,-0.503,0.4601,-0.277,84,5.268,101,-6.6208,0.7893,2.2617,-1.6318,0.4667,1.613,91,4.944,95,8.5944,-2.7577,-15.8018,-0.6422,-0.5807,0.5552,88,4.681,90,8.1872,-2.8356,-17.7733,0.0327,-0.4133,0.9894,51
5.439,105,-1.4968,-9.6675,-16.0516,-1.0445,0.0668,-0.8772,84,5.32,102,-7.6669,0.8043,-2.1796,-1.7163,1.0197,1.431,91,4.996,96,8.9682,-3.0739,-13.5986,-0.9526,-1.0827,0.2701,88,4.733,91,6.6862,-1.8932,-16.4424,-0.5178,0.3833,0.2422,51
5.491,106,-3.8089,-12.2535,-18.8375,-0.0879,-0.1475,-0.0566,84,5.371,103,-7.959,0.0984,-5.8267,-1.9326,1.4233,1.1114,91,5.048,97,7.8508,-2.0474,-14.8026,-0.7795,-1.4635,-0.0852,88,4.785,92,3.598,-0.2033,-15.6492,-0.8521,0.9647,-0.0056,51
5.543,107,-4.3148,-13.0949,-21.745,0.3495,-0.777,0.6353,84,5.424,104,-9.7766,-1.619,-8.7706,-0.7953,1.7179,1.1727,91,5.1,98,10.2871,-1.8111,-14.6687,-0.9452,-1.2082,-0.0038,88,4.837,93,2.1277,0.2864,-16.152,-1.299,1.3891,-0.3465,51
5.595,108,-2.0046,-8.6483,-18.8149,0.9099,-1.2364,0.9752,84,5.475,105,-12.2926,-1.5541,-10.8273,0.0913,1.6203,0.9242,91,5.151,99,10.4184,-3.1709,-12.6217,-1.3651,-0.9653,-0.0288,88,4.888,94,1.3692,-1.5419,-19.7697,-1.5974,1.6988,-0.7124,51
5.647,109,-1.9192,-10.2069,-15.1133,0.7684,-1.2644,0.7925,84,5.527,106,-11.8506,-3.1751,-11.9404,0.7312,1.0844,0.8983,91,5.203,100,10.9345,-3.4254,-11.4704,-1.6715,-1.3309,-0.2789,88,4.94,95,1.6491,-1.5596,-22.41,-0.6993,1.2822,-0.5619,51
5.698,110,2.6312,-12.6471,-17.6569,1.2352,-1.1724,0.965,84,5.579,107,-8.4285,-4.4407,-15.7336,1.2054,0.1188,1.3191,91,5.255,101,9.7365,-7.7371,-16.3765,-0.754,-1.6448,-0.8742,88,4.992,96,-3.8497,-6.4351,-24.337,-0.4304,1.0666,-0.6531,51
5.75,111,-0.0304,-14.4281,-19.003,1.3906,-1.2721,0.9603,84,5.631,108,-1.2324,0.3201,-18.2042,1.5515,-0.586,1.6281,91,5.307,102,11.9886,-3.0213,-18.9554,-1.051,-1.7749,-0.4557,88,5.044,97,-8.2823,0.5955,-25.7434,-0.9043,0.4495,0.1944,51
5.802,112,1.6452,-13.2164,-13.5013,1.6893,-0.867,0.0258,84,5.683,109,4.0196,2.6161,-16.5261,1.8041,-1.1004,1.8536,91,5.359,103,9.544,-1.9565,-19.6806,-0.8218,-0.617,0.159,88,5.095,98,-6.429,1.2368,-23.6487,0.0147,-0.0312,-0.1026,51
5.854,113,5.5473,-4.256,-10.3326,1.002,-0.419,-0.6563,84,5.734,110,7.8528,1.9014,-13.5072,1.8743,-1.4758,2.0183,91,5.41,104,6.7307,2.1295,-22.3686,0.0767,0.228,0.3144,88,5.147,99,-0.9235,-2.4083,-22.8295,-0.5727,-0.3705,-0.2224,51
5.906,114,1.1956,-0.2044,-15.534,1.1638,0.3766,-1.1541,84,5.786,111,10.044,5.9972,-8.1365,2.0397,-1.7497,2.1384,91,5.462,105,1.5755,2.5355,-23.5499,-0.2329,0.8432,0.0297,88,5.199,100,4.4433,0.6587,-19.8057,0.2177,-0.0491,-0.8337,51
5.958,115,1.7496,3.9569,-17.9552,0.172,-0.3945,-1.4034,84,5.838,112,5.8958,9.7039,-3.2906,2.0673,-1.4243,2.2261,91,5.514,106,-0.5683,2.1835,-19.4712,0.5066,0.5893,-0.6196,88,5.251,101,0.3442,0.9889,-14.1894,0.8336,0.4027,-1.2233,51
6.009,116,2.1409,-0.9662,-19.4691,-0.5518,0.1883,-0.9759,84,5.89,113,5.9051,12.1567,0.2462,0.9676,-1.6939,1.4165,91,5.566,107,-0.7591,1.163,-14.2805,0.8215,0.675,-0.8364,88,5.303,102,5.3685,5.5564,-7.7483,1.2745,0.4749,-1.5459,51
6.061,117,1.4967,-1.5687,-18.5998,-1.0801,0.3501,-0.1828,84,5.942,114,8.3182,13.1491,2.8275,0.7948,-0.7105,1.0256,91,5.618,108,0.6021,0.6486,-9.9808,1.1887,1.171,-0.6226,88,5.355,103,6.6648,3.0693,-9.2187,1.5716,1.0316,-1.7996,51
6.113,118,-0.6304,-5.2168,-19.7459,-1.4657,0.9379,0.5433,84,5.993,115,6.1549,8.1047,2.9599,-0.1,0.1605,0.8787,91,5.669,109,2.8775,0.7642,-8.3624,1.3101,1.533,-0.3424,88,5.407,104,1.4579,0.2128,-13.8284,1.681,1.1963,-1.7865,51
6.165,119,-5.0584,-7.0885,-21.1652,-1.1112,1.3669,0.006,84,6.045,116,9.1274,2.6937,-4.1817,0.5988,0.2872,1.3067,91,5.721,110,6.4431,0.4584,-8.9035,1.0663,1.7972,0.1247,88,5.458,105,-2.3607,-5.1415,-18.0738,1.4938,1.3581,-1.4104,51
6.217,120,-4.315,-10.3712,-23.4438,-1.4731,0.4229,-0.6707,84,6.097,117,11.5807,4.2916,-4.0997,-0.2334,-0.463,1.6191,91,5.773,111,9.9682,0.0775,-14.5031,0.8732,1.99,0.7658,88,5.51,106,3.3943,-0.7765,-19.5773,0.7511,0.7491,-0.3731,51
6.268,121,-3.006,-9.837,-19.2473,-0.5035,-0.3607,-0.3604,84,6.149,118,12.5111,0.0423,-4.363,-0.3597,-1.0106,1.847,91,5.825,112,3.7323,5.4085,-18.5899,-0.0379,0.9142,0.2173,88,5.562,107,6.4614,2.5857,-19.0478,1.2229,0.0877,0.3823,51
6.32,122,-0.715,-7.5043,-15.6615,0.3069,-0.0467,-0.9381,84,6.201,119,14.0502,2.6214,-4.7597,0.4092,-1.4102,2.0134,91,5.877,113,7.9898,3.7834,-12.5041,0.4777,-0.0062,-0.5154,88,5.614,108,9.0986,3.2525,-16.6308,1.1604,-0.6028,0.9594,51
6.372,123,2.0682,-9.291,-19.4269,-0.1885,0.0229,-0.0344,84,6.253,120,14.9617,5.2325,-2.0988,-0.3814,-1.7019,2.1349,91,5.928,114,6.0516,1.8911,-13.5597,-0.3266,-0.6779,-0.0803,88,5.666,109,11.7579,0.9401,-20.1191,0.9519,-1.1067,1.3805,51
6.424,124,2.5756,-11.9221,-19.7851,0.4936,-0.5359,-0.025,84,6.304,121,13.4704,2.9048,1.116,-0.5124,-1.1663,1.968,91,5.98,115,7.1257,0.2451,-13.8542,-0.5681,-0.9266,-0.0198,88,5.717,110,9.6834,0.9978,-18.9497,0.0177,-1.3627,1.6879,51
6.476,125,1.9721,-10.8913,-17.9569,1.0346,-0.859,-0.2877,84,6.356,122,13.4092,0.1544,-0.3641,-1.054,-0.455,2.0799,91,6.032,116,7.9761,-1.8937,-14.1691,-1.0899,-1.2687,-0.1277,88,5.769,111,6.4682,-0.361,-17.8279,-0.1014,-0.3096,1.4704,51
6.527,126,0.1693,-13.1291,-18.6067,1.342,-0.7227,0.3208,84,6.408,123,7.9026,-0.1162,-5.5893,-0.0975,0.347,1.6612,91,6.084,117,8.6565,-1.5613,-14.477,-1.1234,-1.5814,-0.556,88,5.821,112,5.2275,0.1802,-16.7842,-0.361,0.459,0.6458,51
6.579,127,-0.9108,-14.7799,-20.0593,1.6538,-1.1717,0.9107,84,6.46,124,5.3448,1.8259,-9.4201,-0.0282,0.0047,1.2158,91,6.136,118,10.4414,-1.2453,-15.3314,-1.2146,-1.41,-0.7826,88,5.873,113,4.8088,-0.268,-17.004,-0.6949,1.02,-0.1474,51
6.631,128,-0.9102,-12.1043,-18.8642,1.8814,-1.0126,1.3413,84,6.512,125,3.0645,2.528,-8.5532,0.3838,-0.2522,0.7357,91,6.187,119,12.8863,-2.0816,-13.2931,-1.1525,-0.6234,-0.7445,88,5.925,114,2.6374,-0.691,-16.6332,-1.0569,1.4294,-0.7076,51
6.683,129,4.392,-3.4443,-17.118,1.9196,-0.5901,0.9571,84,6.563,126,7.1557,-2.2435,-6.9755,-0.3999,-0.6869,-0.1494,91,6.239,120,11.8773,-3.1388,-12.4199,-1.5163,-0.7451,-0.661,88,5.976,115,-0.8458,-1.448,-19.2155,-1.4471,1.7282,-1.1641,51
6.734,130,2.509,2.2709,-16.7079,0.7237,-0.2543,1.0553,84,6.615,127,10.1416,-5.7139,-5.1961,0.2017,-0.4634,-0.7954,91,6.291,121,9.5593,-5.3171,-17.0695,-0.5544,-1.2172,-0.9364,88,6.028,116,-2.8917,-3.0371,-22.0055,-0.9733,1.2959,-1.4862,51
6.786,131,6.8875,2.2312,-14.5938,-0.0909,-0.258,0.5815,84,6.667,128,11.0923,-8.0603,-6.2476,-0.4471,0.3409,-1.0474,91,6.343,122,12.2425,-0.8262,-17.2818,-0.9025,-1.5618,-0.7723,88,6.08,117,1.5176,-3.6412,-24.0418,-0.0357,0.3441,-1.3527,51
6.838,132,7.3338,-3.5693,-18.6477,-0.7437,0.43,-0.2507,84,6.719,129,8.565,-7.4677,-9.5648,-0.3324,0.9279,-1.437,91,6.395,123,11.0204,-0.2862,-17.664,-0.2002,-1.0745,-1.1122,88,6.132,118,3.0881,-7.9543,-14.939,-0.7031,0.4662,-0.3069,51
6.89,133,7.6945,-7.8027,-21.6064,0.0407,-0.3555,-0.7055,84,6.771,130,3.6858,-4.2331,-12.6155,0.4291,0.8148,-1.0108,91,6.446,124,10.3631,1.0779,-19.1636,0.5304,-0.1058,-0.7012,88,6.184,119,7.3711,-7.8217,-15.4826,-0.6829,-0.3266,-0.5116,51
6.942,134,6.9578,-8.2547,-17.0329,0.7041,-0.9288,0.159,84,6.822,131,3.1237,-1.5303,-12.8529,0.6052,-0.078,-0.9732,91,6.498,125,6.9394,1.0761,-21.9913,0.8276,0.6011,-0.3599,88,6.235,120,8.6145,-6.1796,-16.7537,-0.7925,-0.5437,-0.4948,51
6.993,135,6.3403,-3.2426,-15.0193,1.1883,0.0045,0.637,84,6.874,132,3.2475,-0.872,-12.4526,0.9548,-0.5072,-1.3261,91,6.55,126,5.0077,2.2228,-23.702,0.3687,1.1171,-0.3042,88,6.287,121,11.4045,-1.7554,-16.9419,0.096,-0.1409,-0.7395,51
7.045,136,4.5115,3.0233,-13.3409,0.7004,0.6857,0.2927,84,6.926,133,3.0044,-1.2393,-10.8901,0.7076,-1.0237,-1.4439,91,6.602,127,1.61,1.8371,-21.5078,0.9456,1.4001,-0.5317,88,6.339,122,12.0991,-0.9713,-14.5518,0.7447,0.3907,-1.211,51
7.097,137,3.2729,3.4794,-17.5216,-0.1662,1.1829,-0.0554,84,6.978,134,7.1118,-1.5717,-7.9236,1.1648,-1.3415,-1.475,91,6.654,128,0.2512,1.9474,-18.0532,0.9662,1.5544,-0.5953,88,6.391,123,9.6372,3.527,-13.5484,1.2182,-0.3816,-1.5117,51
7.149,138,0.4459,2.0925,-18.9569,-0.7987,1.333,-0.1574,84,7.03,135,9.559,-1.4457,-6.0755,1.2017,-1.0733,-1.1937,91,6.706,129,-1.5158,0.5668,-15.054,1.215,1.7672,-0.3621,88,6.443,124,7.6971,2.999,-11.4771,0.9232,0.1454,-1.7747,51
7.201,139,-0.6949,-1.9542,-17.9562,-1.2603,0.9346,-0.0658,84,7.081,136,11.772,-0.4668,-5.8878,1.5488,-0.5914,-0.4177,91,6.757,130,-1.0762,1.1686,-12.6168,1.5633,1.9076,-0.1075,88,6.494,125,5.2057,-1.2686,-12.1187,1.3016,0.702,-1.9667,51
7.252,140,-3.0452,-4.611,-19.251,-1.5953,1.1059,0.0569,84,7.133,137,13.5108,1.8038,-5.8881,1.8021,-0.8143,0.0603,91,6.809,131,1.2704,1.4467,-11.722,0.8454,2.0706,0.2866,88,6.546,126,-1.6065,-6.2227,-16.8259,0.6108,0.1268,-1.0215,51
7.304,141,-3.61,-6.8522,-20.2039,-1.1901,0.6687,-0.23,84,7.185,138,12.3255,2.1588,-7.2873,0.6352,-0.542,-0.5461,91,6.861,132,6.193,-1.6499,-16.5601,0.7626,2.1854,0.8578,88,6.598,127,-2.9351,-1.8744,-17.0715,0.1113,0.1274,-0.1406,51
7.356,142,-3.4769,-8.7501,-20.3539,-0.8849,0.8912,-0.6059,84,7.237,139,11.3719,-1.5967,-9.3875,0.6647,0.2835,-0.8874,91,6.913,133,9.7856,-6.4412,-9.5023,0.3198,1.3188,0.9659,88,6.65,128,1.8053,-2.1818,-16.2116,0.33,-0.3319,0.5207,51
7.408,143,2.5188,-6.7502,-21.3046,0.0285,1.1484,-1.1084,84,7.289,140,7.3882,-1.2847,-9.6602,1.1568,0.5986,-0.5859,91,6.965,134,8.521,-1.9509,-11.5721,0.5564,0.7854,0.5793,88,6.702,129,6.4349,0.2897,-14.9933,0.7542,-0.909,1.0604,51
7.46,144,4.6668,-8.4544,-21.5036,-0.6566,0.2026,-1.0156,84,7.341,141,5.7549,0.6753,-8.9327,1.516,0.5492,-0.3901,91,7.016,135,11.4848,0.208,-10.9483,0.6016,0.5415,0.2739,88,6.753,130,9.8137,2.1927,-15.2276,0.5865,-1.265,1.4542,51
7.511,145,4.5125,-7.5973,-19.7028,-0.3967,0.288,-1.4164,84,7.392,142,5.5836,1.6373,-8.5391,0.971,0.2606,-0.4691,91,7.068,136,10.6269,0.6433,-10.0611,0.5396,0.5521,0.1229,88,6.805,131,7.798,1.4747,-15.0026,0.0831,-0.6887,1.275,51
7.563,146,4.4406,-6.6729,-17.6038,-0.1031,0.4499,-1.7088,84,7.444,143,5.9755,3.7732,-8.5592,1.3804,0.4695,-0.743,91,7.12,137,9.1523,-0.2895,-10.5932,-0.0787,0.5439,0.0733,88,6.857,132,5.6431,-2.2053,-15.584,0.0022,0.1823,0.8213,51
7.615,147,3.7892,-5.1925,-16.0213,0.0231,0.7417,-1.7266,84,7.496,144,5.9158,5.0371,-8.8037,0.8792,0.2827,-0.9336,91,7.172,138,8.8573,-0.2883,-10.8827,-0.7327,0.352,0.0287,88,6.909,133,3.9692,-5.3565,-17.1496,0.0288,0.818,1.1025,51
7.667,148,5.2241,-4.377,-16.4524,0.4048,1.1978,-1.3299,84,7.548,145,6.2416,4.2588,-9.3071,-0.0384,-0.4262,-0.9817,91,7.223,139,9.2174,-0.3831,-10.6306,-1.095,0.0717,-0.127,88,6.96,134,1.9763,-7.5448,-18.4727,0.5641,1.188,1.485,51
7.718,149,4.6682,-2.8035,-16.6843,0.0718,1.4582,-0.3904,84,7.6,146,5.6723,3.4352,-9.1019,-0.708,-0.9837,-0.8732,91,7.275,140,8.743,-0.1003,-11.6117,-1.4744,-0.0469,-0.1778,88,7.012,135,1.6849,-2.6806,-15.3476,1.0858,1.5501,1.7642,51
7.77,150,4.109,-2.164,-16.8252,-0.625,1.3307,0.3912,84,7.652,147,6.1862,3.2953,-10.4148,-1.1968,-1.3906,-0.7596,91,7.327,141,8.8484,-0.1701,-11.2,-0.9965,-0.1691,-0.481,88,7.064,136,0.8072,1.7202,-11.1719,0.1195,1.8163,1.9679,51
7.822,151,2.9652,-2.6103,-16.871,-1.1335,1.2242,0.8852,84,7.703,148,9.434,2.0424,-12.1579,-1.5535,-1.6876,-0.394,91,7.379,142,9.4623,-0.0813,-11.1499,-0.8028,-0.2916,-0.8015,88,7.116,137,2.7185,4.0637,-11.6859,-0.5899,2.0106,1.1536,51
7.874,152,2.5393,-2.7615,-16.3786,-0.8366,1.2076,1.0159,84,7.755,149,10.7052,6.8175,-10.2009,-0.5153,-0.7326,0.3671,91,7.431,143,8.8972,-0.3254,-11.4796,-0.7001,-0.0991,-1.1689,88,7.168,138,7.1014,4.8364,-16.5101,-1.0947,2.1524,0.1705,51
7.926,153,2.8896,-1.2452,-16.307,-0.6721,1.2176,1.4141,84,7.807,150,9.5834,4.809,-9.7448,-0.9005,-1.0542,0.2917,91,7.482,144,9.326,-1.3836,-12.3658,-0.8978,0.3203,-1.2816,88,7.219,139,5.2546,1.324,-19.9906,-0.283,2.2559,-0.547,51
7.977,154,6.1882,1.436,-19.8905,-1.1679,1.5478,1.6975,84,7.859,151,6.9529,5.6404,-9.4786,-1.2485,-0.7624,0.2542,91,7.534,145,9.2299,-0.8625,-13.9114,-1.3285,0.7118,-0.7511,88,7.271,140,8.9523,1.0103,-11.9822,0.2418,1.8976,-0.8247,51
8.029,155,5.6414,-4.1497,-21.8116,-1.5298,1.8058,1.9066,84,7.911,152,6.0471,4.7839,-9.4724,-1.5913,-1.027,0.238,91,7.586,146,9.3146,0.3855,-15.561,-1.6448,0.7812,0.1215,88,7.323,141,4.5914,-4.5594,-13.9082,0.5167,1.5611,-1.2209,51
8.081,156,3.5876,-5.7342,-23.2961,-0.4434,1.516,1.303,84,7.962,153,6.7091,5.3365,-10.0348,-1.8318,-1.2875,0.4161,91,7.638,147,8.2988,-2.5377,-14.7678,-1.8757,0.2037,0.2398,88,7.375,142,8.4683,-3.2598,-14.0955,-0.2186,1.4082,-0.9656,51
8.133,157,3.0183,-3.46,-20.8799,0.2104,1.7828,1.2865,84,8.014,154,8.2609,5.2159,-10.8044,-2.017,-1.0021,0.6194,91,7.69,148,9.1508,-1.8204,-13.9188,-1.8403,-0.5248,-0.0463,88,7.427,143,7.8253,-5.0603,-13.7581,-0.1481,1.2913,-1.0313,51
8.185,158,2.5483,-2.948,-19.2314,0.196,1.3889,1.3792,84,8.066,155,8.0939,4.202,-11.4424,-1.9676,-0.7603,0.3712,91,7.741,149,9.2412,-2.2237,-13.2833,-2.0184,-1.0564,-0.1004,88,7.478,144,7.8785,-2.9932,-13.3771,-0.4831,1.1809,-1.0526,51
8.236,159,4.255,-1.1497,-18.7397,-0.1101,1.294,1.1811,84,8.118,156,8.1154,3.8697,-11.7963,-1.8589,-0.6067,0.1987,91,7.793,150,10.1863,-2.7327,-11.4438,-2.1483,-1.2922,0.2061,88,7.53,145,8.3067,-2.674,-12.8322,-0.4585,1.0512,-1.1155,51
8.288,160,4.7484,-1.0369,-18.1548,-0.6941,1.1997,1.0977,84,8.17,157,7.3605,3.4606,-11.8264,-2.0367,-0.5924,0.0216,91,7.845,151,9.7666,-3.1442,-10.9262,-2.2432,-0.908,0.6448,88,7.582,146,8.8345,-1.5029,-12.8307,-0.8464,0.9231,-1.0887,51
8.34,161,5.6385,-0.0165,-17.7406,-0.9166,1.0839,0.6066,84,8.221,158,7.4586,2.3052,-11.7009,-2.1665,-0.7109,-0.1359,91,7.897,152,10.9063,-6.3249,-7.8796,-2.1186,0.0063,1.1483,88,7.633,147,8.4269,0.5473,-12.5248,-0.7024,0.6404,-0.8826,51
8.392,162,6.2122,-0.0717,-17.4021,-1.0514,1.3077,-0.1121,84,8.273,159,7.7507,1.0933,-11.3169,-1.4755,-0.3294,-0.0321,91,7.949,153,9.8224,-6.1943,-8.7587,-1.4613,0.4332,1.1016,88,7.685,148,8.6213,0.7289,-12.3439,-0.7047,0.4644,-0.4834,51
8.444,163,6.0246,-0.1783,-17.2219,-0.7586,1.2454,-0.7503,84,8.325,160,8.0088,1.5383,-10.8154,-1.0942,0.0196,-0.1174,91,8.0,154,9.4199,-4.6976,-9.4216,-1.2913,0.5319,1.0092,88,7.737,149,8.517,0.7759,-12.2049,-0.6793,0.3682,-0.0664,51
8.495,164,5.837,0.1534,-17.2006,-0.7165,0.8163,-0.7779,84,8.377,161,8.3474,1.5425,-10.5583,-1.1889,0.0661,-0.1987,91,8.052,155,9.5126,-3.6311,-9.7399,-0.9329,0.4162,0.8859,88,7.789,150,8.474,0.5231,-11.9598,-0.4327,0.25,0.242,51
8.547,165,6.0833,-0.6428,-16.8672,-1.2003,0.1986,-0.2244,84,8.429,162,8.3765,1.3477,-9.8839,-1.2136,0.0029,-0.1556,91,8.104,156,9.5506,-3.3492,-10.0107,-0.6845,0.2825,0.7946,88,7.841,151,8.5511,0.1152,-11.9351,-0.1709,0.1145,0.4906,51
8.599,166,6.4982,-0.4265,-16.7086,-0.9601,-0.0268,-0.1142,84,8.48,163,8.2688,1.0908,-9.6199,-1.3017,-0.0142,-0.1364,91,8.156,157,9.7371,-3.1509,-10.5139,-0.3705,0.1723,0.6841,88,7.892,152,8.9288,-0.0289,-11.7886,-0.0945,-0.0445,0.8316,51
