right_hand_timestamp,right_hand_index,right_hand_accel_x,right_hand_accel_y,right_hand_accel_z,right_hand_gyro_x,right_hand_gyro_y,right_hand_gyro_z,right_hand_battery_percentage,left_hand_timestamp,left_hand_index,left_hand_accel_x,left_hand_accel_y,left_hand_accel_z,left_hand_gyro_x,left_hand_gyro_y,left_hand_gyro_z,left_hand_battery_percentage,right_leg_timestamp,right_leg_index,right_leg_accel_x,right_leg_accel_y,right_leg_accel_z,right_leg_gyro_x,right_leg_gyro_y,right_leg_gyro_z,right_leg_battery_percentage,left_leg_timestamp,left_leg_index,left_leg_accel_x,left_leg_accel_y,left_leg_accel_z,left_leg_gyro_x,left_leg_gyro_y,left_leg_gyro_z,left_leg_battery_percentage
0.195,3,6.847,11.9694,-3.3039,-0.8832,0.0055,0.5544,93,0.021,0,2.2759,-1.2107,-11.7588,1.5683,0.0853,0.7056,92,0.227,4,-10.2992,0.3847,3.8239,-0.1538,-0.5929,0.249,97,0.648,12,0.3495,5.7179,-4.242,-0.5624,-0.5912,0.276,64
0.247,4,3.887,12.2891,-2.3319,-1.3051,-0.5205,0.3019,93,0.073,1,6.8766,-2.9511,-16.183,1.815,-0.6083,0.0199,92,0.279,5,-5.8362,1.3268,0.7968,0.1609,-0.7991,0.031,97,0.7,13,3.0029,5.3712,-3.8663,-0.074,0.2794,0.3853,64
0.298,5,2.8156,11.4655,-1.7173,-1.6628,-0.3213,0.0333,93,0.125,2,10.2342,-3.2662,-18.0986,1.995,-0.1037,-0.6727,92,0.331,6,-1.5646,-0.5697,-1.0877,-0.1151,0.1628,-0.1418,97,0.752,14,2.0562,3.0748,-5.3728,0.6599,0.9148,0.1805,64
0.35,6,2.1216,10.8867,-1.0592,-1.3512,-0.3166,-0.0604,93,0.177,3,10.123,-3.5002,-15.851,1.226,0.5241,-0.7229,92,0.383,7,0.9231,0.6543,-1.5896,0.2779,0.8648,-0.0287,97,0.803,15,-2.8661,2.3517,-4.891,-0.1052,0.3823,0.1923,64
0.402,7,1.5724,10.9207,-0.3645,-0.7037,-0.3075,-0.1749,93,0.229,4,4.2809,-3.5795,-13.8542,0.8622,1.0624,-0.5896,92,0.434,8,-5.0709,-0.3099,-1.8743,0.2185,0.974,-0.524,97,0.855,16,-3.476,2.0532,-3.5582,0.3694,-0.2369,0.3752,64
0.454,8,6.1314,11.8948,-1.9908,-0.6764,-1.0823,-0.2353,93,0.281,5,2.8625,-3.2431,-12.1,0.5585,0.1035,-1.0935,92,0.486,9,-3.6651,-0.0352,0.5004,-0.4938,0.4054,-0.2205,97,0.907,17,-4.3345,0.7575,-2.7255,0.0945,-0.6613,0.3147,64
0.506,9,9.4587,12.9042,-3.2771,-1.204,-0.5271,0.3063,93,0.332,6,3.3102,-3.148,-11.0915,0.2162,0.4872,-0.6837,92,0.538,10,-4.7964,1.1645,0.1419,-0.0098,0.4407,-0.1526,97,0.959,18,-6.4356,0.0312,-0.8752,-0.5681,-0.648,0.4886,64
0.557,10,9.8064,10.5012,-2.2711,-0.4362,-0.2113,0.2841,93,0.384,7,1.8714,-3.2951,-10.7436,0.5698,0.5877,-0.4053,92,0.59,11,-6.7429,1.2921,-0.3759,0.3255,0.2879,-0.2589,97,1.011,19,-1.9491,2.964,-4.4488,-0.9156,-0.6919,-0.0879,64
0.609,11,2.7572,12.5993,-1.8232,0.3231,0.2321,0.8836,93,0.436,8,2.1473,-2.3702,-10.2962,0.9949,0.4131,-0.3953,92,0.641,12,-2.2263,-1.8344,-5.6648,-0.0695,-0.0759,0.2418,97,1.062,20,1.3253,3.8665,-5.958,-0.635,-0.1228,0.2212,64
0.661,12,3.6193,12.6625,-0.6006,0.2651,-0.3481,0.5121,93,0.488,9,6.7826,-2.6772,-15.3906,1.1445,-0.3703,-0.2754,92,0.693,13,1.0144,-3.0568,-7.0224,-0.1753,0.1914,0.0058,97,1.114,21,1.7225,3.5713,-4.4655,-0.1543,0.6212,0.4023,64
0.713,13,1.6336,12.2313,-0.4702,-0.3933,-0.2499,0.2497,93,0.54,10,10.1658,-1.3544,-14.8304,0.8946,-0.6127,-0.1653,92,0.745,14,2.9847,-3.6094,-4.8056,0.0347,0.8857,-0.0204,97,1.166,22,-3.6787,4.4204,-8.685,0.4835,1.1643,0.3672,64
0.765,14,0.8457,11.2171,-0.2314,0.0021,-0.3127,0.003,93,0.591,11,8.1243,-1.0675,-11.9199,-0.0285,0.2195,0.208,92,0.797,15,1.1513,-1.482,-8.6697,-0.5431,1.3924,0.272,97,1.218,23,-5.2583,1.9519,-6.8099,0.5297,0.5169,0.2814,64
0.816,15,2.1988,12.0386,0.2162,0.2418,-0.6664,-0.1836,93,0.643,12,0.9771,-1.5031,-11.8777,-0.4275,0.6659,-0.061,92,0.849,16,-3.796,0.3132,-7.5837,-0.0863,0.5871,0.2931,97,1.27,24,-5.1612,1.0296,-5.0226,0.5009,-0.1558,0.4099,64
0.868,16,6.5885,13.8022,-3.2155,-0.5338,-1.3443,0.2682,93,0.695,13,2.5557,-1.4162,-11.1607,0.0656,-0.1859,-0.4082,92,0.901,17,-3.4958,-0.3782,-4.3044,-0.6114,0.0984,0.2392,97,1.321,25,-6.2488,-0.0397,-3.2214,-0.1653,-0.4717,0.4661,64
0.92,17,9.7923,11.5239,-2.7514,-0.764,-1.0873,0.2743,93,0.747,14,0.9714,-0.5732,-10.5319,0.0085,0.5442,-0.1162,92,0.952,18,-4.7682,0.972,-2.472,-0.2351,-0.0657,0.1677,97,1.373,26,-1.8128,2.774,2.3561,-0.6888,-0.9852,0.3339,64
0.972,18,6.8788,11.3201,-1.6872,0.0838,-0.2997,0.6297,93,0.799,15,0.6405,-0.7924,-10.475,-0.1585,0.0657,-0.2048,92,1.004,19,-7.206,3.1657,-7.1946,0.4277,0.4489,-0.0987,97,1.425,27,-0.8481,0.8626,-1.1959,-0.5385,-0.9883,-0.0924,64
1.024,19,2.4611,12.3461,-1.4543,0.1492,-0.8697,0.5571,93,0.851,16,5.3438,-0.4331,-11.9373,-0.2019,-0.6145,-0.3955,92,1.056,20,-2.5643,4.1147,-8.0355,0.5194,-0.1066,-0.5362,97,1.477,28,2.1289,1.8078,-1.8932,0.2597,-0.0104,0.3268,64
1.075,20,2.071,10.8579,-0.9338,-0.4548,-0.5024,0.3258,93,0.902,17,9.1155,-0.4613,-14.9805,0.0158,0.2314,-0.1606,92,1.108,21,0.8234,3.8547,-8.0331,0.3592,0.567,-0.3931,97,1.528,29,4.0624,-0.3792,-2.0965,0.8398,0.7033,0.2339,64
1.127,21,1.0911,10.4168,-0.4505,-0.2963,-0.5949,0.3069,93,0.954,18,11.8683,-0.3923,-13.8181,-0.6002,0.1311,0.0798,92,1.16,22,0.7347,3.8144,-6.9205,0.5406,1.1599,-0.1944,97,1.58,30,-4.6307,0.9477,-4.072,0.5377,0.708,0.2355,64
1.179,22,0.4361,10.7044,-0.1118,0.2205,-0.4871,0.1922,93,1.006,19,6.1004,-1.2408,-11.9839,-0.6724,0.7756,0.1291,92,1.211,23,-3.6763,2.8998,-10.4413,0.506,1.5925,-0.4625,97,1.632,31,-5.1047,1.3465,-2.9066,0.7477,-0.1241,0.3012,64
1.231,23,5.3021,11.2397,-0.8386,-0.0896,-1.2101,-0.0184,93,1.058,20,4.6018,-1.0765,-11.0378,0.0908,-0.1058,-0.0759,92,1.263,24,-3.5298,3.8914,-8.6406,0.3674,0.5565,-0.3203,97,1.684,32,-5.3032,0.314,-1.7963,0.2005,-0.7314,0.335,64
1.282,24,8.8534,11.4338,-2.6275,-0.7577,-0.4059,0.2812,93,1.11,21,5.7408,0.3478,-9.7242,-0.045,0.4702,-0.0941,92,1.315,25,-5.3396,3.7506,-4.4874,0.2653,-0.1931,-0.4185,97,1.736,33,-6.3601,-0.267,-3.9177,-0.3318,-0.7961,0.3858,64
1.334,25,11.1103,10.8094,-1.7576,-0.0211,-0.286,0.4604,93,1.161,22,2.8729,-0.1746,-9.6869,-0.7143,0.9898,-0.1543,92,1.367,26,-7.7289,3.3161,-2.6962,0.3816,-0.08,-0.5739,97,1.787,34,-1.894,4.9325,-3.0298,-0.88,-1.2219,0.288,64
1.386,26,2.6227,12.0461,-2.2635,0.5326,0.2851,0.9969,93,1.213,23,2.731,-0.7691,-9.1671,-0.0085,0.7685,-0.2577,92,1.419,27,-2.9459,-1.1182,3.2307,0.1392,-0.6641,0.0334,97,1.839,35,-0.4904,4.3291,-5.2131,-0.5156,-0.6167,0.6575,64
1.438,27,3.3538,11.7691,-0.6171,-0.0178,-0.5433,0.4257,93,1.265,24,7.2088,0.7512,-11.8181,0.6641,-0.111,-0.5613,92,1.47,28,0.5449,1.083,1.3201,0.2032,-0.8136,0.2008,97,1.891,36,2.3899,3.829,-5.6074,0.1362,0.2608,0.9106,64
1.49,28,1.1863,10.8372,-0.7793,-0.4858,-0.2501,0.2889,93,1.317,25,10.4767,0.4956,-14.3501,0.29,0.5115,-0.4967,92,1.522,29,3.0926,0.3733,0.6721,-0.131,-0.6825,0.2321,97,1.943,37,2.1315,0.9422,-6.3473,0.8133,0.9012,0.527,64
1.541,29,1.0939,10.0593,-0.301,-0.3943,-0.3273,0.2966,93,1.369,26,11.3604,0.5888,-12.8117,-0.37,0.5124,0.0692,92,1.574,30,4.9358,4.2841,0.4677,0.1345,0.2418,0.4313,97,1.994,38,-4.5121,2.657,-5.2671,0.211,1.0104,0.5151,64
1.593,30,0.9977,9.1749,0.4551,-0.2577,-0.4744,0.2285,93,1.42,27,5.2651,1.0311,-11.109,-0.9515,1.0539,0.2829,92,1.626,31,-1.3985,2.0008,-5.0491,0.437,0.9225,-0.1737,97,2.046,39,-5.2337,2.1281,-4.1171,0.4895,0.3773,0.5818,64
1.645,31,5.7119,9.7303,-1.5031,-0.2429,-1.2041,0.1547,93,1.472,28,2.938,-1.0029,-10.5385,-0.9238,0.0973,-0.0125,92,1.678,32,-2.3876,2.2259,-3.4517,-0.3344,0.0675,0.1019,97,2.098,40,-5.5012,0.9382,-2.9733,0.0207,-0.1516,0.5012,64
1.697,32,9.1526,9.9375,-2.452,-0.6759,-0.6354,0.3327,93,1.524,29,4.0454,-0.398,-10.0956,-0.251,0.4209,-0.0432,92,1.729,33,-4.5808,3.168,-1.7101,0.1997,-0.0798,-0.004,97,2.15,41,-6.6605,0.8779,-2.0048,-0.4985,-0.3559,0.513,64
1.749,33,10.2226,8.9176,-1.6371,-0.3711,-0.1018,0.1084,93,1.576,30,1.8743,-0.4776,-9.9295,0.0061,0.6954,0.0068,92,1.781,34,-6.7098,3.0497,-1.6198,0.8288,-0.0458,-0.1281,97,2.202,42,-9.5379,2.6073,3.4385,-0.6089,-0.5627,0.5199,64
1.8,34,2.6245,9.0876,-2.4,0.3463,0.4196,0.4621,93,1.628,31,1.9471,-0.5241,-9.6963,0.4135,0.6273,-0.0629,92,1.833,35,-9.4086,3.826,-6.5727,0.9333,0.5242,-0.2716,97,2.254,43,-4.2133,1.0406,0.515,-0.4164,-0.3897,0.3876,64
1.852,35,3.0002,10.6098,-1.1553,-0.0634,-0.0754,0.1269,93,1.679,32,4.7953,0.5105,-10.4995,0.4628,-0.1786,-0.1309,92,1.885,36,-4.1719,1.514,-8.167,0.7365,-0.0091,-0.4903,97,2.305,44,-1.1684,2.6522,-2.0012,0.3015,0.4265,0.708,64
1.904,36,1.1487,9.4118,-1.1028,-0.6327,-0.0413,0.0091,93,1.731,33,8.7153,-0.0325,-14.5869,0.3953,0.5496,0.0204,92,1.936,37,-0.3499,2.2201,-9.0267,0.38,0.7393,-0.1956,97,2.357,45,-0.1223,0.3637,-2.4988,0.4686,1.0221,0.7149,64
1.956,37,0.2918,9.8125,-0.6887,-0.0834,-0.1258,0.0044,93,1.783,34,11.5762,0.0073,-13.8916,0.0581,0.3,0.2078,92,1.988,38,1.272,0.2675,-6.8893,0.8112,1.2856,-0.0365,97,2.409,46,-7.1759,2.7274,-3.6606,0.4358,1.139,0.6053,64
2.007,38,0.3777,9.3566,-0.2719,-0.2265,-0.3573,-0.2908,93,1.835,35,6.4361,0.5627,-11.13,-0.5748,0.8988,0.4244,92,2.04,39,-3.2848,0.1457,-10.4186,0.0779,1.6843,0.0786,97,2.461,47,-7.9286,1.578,-3.015,0.5197,0.2981,0.5182,64
2.059,39,4.4338,9.3477,-0.321,0.229,-1.0545,-0.4364,93,1.887,36,2.6411,-0.1594,-11.1751,-0.3188,-0.0158,0.3846,92,2.092,40,-5.0501,2.1175,-7.7183,-0.3034,0.6235,0.4392,97,2.513,48,-7.1874,0.6933,-2.3852,0.214,-0.4233,0.6113,64
2.111,40,8.2197,10.0426,-2.6772,-0.3752,-0.3672,0.0139,93,1.938,37,4.3931,0.7536,-10.7483,0.192,0.315,0.169,92,2.144,41,-5.7715,0.9994,-4.7249,-0.5753,0.1859,0.2585,97,2.564,49,-7.3036,0.3291,-0.7716,-0.4098,-0.9388,0.5784,64
2.163,41,10.9829,9.2458,-1.4451,-0.0605,-0.3794,0.1967,93,1.99,38,1.9956,0.9616,-10.2123,-0.2521,0.7202,0.1904,92,2.196,42,-6.3328,1.1454,-3.0648,-0.5225,-0.2385,0.2298,97,2.616,50,-2.5827,1.7308,4.205,-0.6381,-1.3261,0.4779,64
2.215,42,4.5918,10.5917,-1.3557,0.4405,0.2169,0.7725,93,2.042,39,1.6379,0.8098,-9.9361,-0.1378,0.3102,-0.0383,92,2.247,43,-10.0871,2.8729,-7.6273,0.1415,0.422,-0.0455,97,2.668,51,0.8629,0.4902,3.1153,-0.5313,-1.3012,0.1125,64
2.266,43,2.9472,11.2392,-1.0939,-0.1234,-0.5681,0.4338,93,2.094,40,6.4109,1.5187,-10.8284,-0.4321,-0.4455,-0.4536,92,2.299,44,-5.8698,2.617,-5.7698,0.0715,-0.1579,-0.6701,97,2.72,52,3.3776,0.8758,0.9335,-0.0086,-0.2388,0.5346,64
2.318,44,1.5187,10.5594,-1.201,-0.7278,-0.3303,0.1085,93,2.146,41,9.8945,0.3199,-14.7386,-0.5483,0.3548,-0.2423,92,2.351,45,-1.5891,2.3449,-6.4258,0.4343,0.0611,-0.3196,97,2.772,53,4.1543,-2.3204,-1.458,0.6885,0.5366,0.3004,64
2.37,45,0.8568,10.0276,-0.5613,-0.2736,-0.4214,0.1006,93,2.197,42,12.4369,0.3435,-14.1723,-0.8849,0.3576,0.4478,92,2.403,46,1.5352,3.3331,-3.7943,0.1198,0.7144,0.2638,97,2.823,54,-4.2524,0.1981,-2.5735,0.4047,0.7876,0.3409,64
2.422,46,0.4985,10.0141,1.0034,0.1953,-0.4719,-0.0542,93,2.249,43,4.0509,0.3635,-13.6727,-1.2129,0.9409,0.0432,92,2.455,47,-3.4525,0.9165,-8.1597,0.0075,1.2674,-0.0167,97,2.875,55,-4.7823,1.3583,-1.5892,0.9215,0.1008,0.3871,64
2.474,47,5.2854,10.5807,1.6098,0.5147,-1.1399,-0.578,93,2.301,44,3.7115,-0.4165,-12.7001,-0.2226,0.0148,-0.1838,92,2.506,48,-2.9355,1.9448,-5.0241,-0.1853,0.3732,0.0027,97,2.927,56,-5.1573,0.4614,-1.1847,0.48,-0.2731,0.4347,64
2.525,48,8.8412,11.0325,-0.9643,-0.3346,-0.34,-0.157,93,2.353,45,3.9882,0.4124,-11.3116,0.4919,0.6628,-0.1667,92,2.558,49,-5.2138,2.1199,-3.4994,0.5632,0.228,-0.3089,97,2.979,57,-6.9999,-0.0557,-1.2796,-0.1144,-0.2733,0.4829,64
2.577,49,11.3794,9.4053,-0.2643,-0.9509,-0.2527,0.1578,93,2.405,46,1.0136,0.5801,-11.1412,0.189,0.6364,-0.1651,92,2.61,50,-6.7135,2.2068,-2.7778,1.0636,0.2873,-0.5518,97,3.03,58,-12.107,2.944,-6.6212,-0.03,-0.5029,0.5416,64
2.629,50,3.3602,9.2016,-1.4465,-0.3485,0.3094,0.5905,93,2.457,47,1.5613,-0.1613,-10.633,0.485,0.3274,-0.121,92,2.662,51,-8.2863,2.2547,-1.4317,1.0885,0.3819,-0.6688,97,3.082,59,-6.0884,-0.8429,-10.2298,-0.5128,-0.7241,0.3199,64
2.68,51,2.6963,10.3526,-1.4406,-0.7838,-0.6122,0.1249,93,2.508,48,2.4042,0.2986,-10.0613,0.3595,-0.3653,-0.1647,92,2.714,52,-3.3528,-0.5347,0.9027,0.2279,0.2088,-0.8536,97,3.134,60,-1.6957,0.3911,-10.1715,-0.205,-0.1529,0.6223,64
2.732,52,0.7916,8.7577,-1.6333,-1.2522,-0.2676,-0.1937,93,2.56,49,6.9701,-0.0495,-14.3056,0.1581,0.1098,0.0302,92,2.765,53,0.2479,-1.9006,-4.7279,0.3202,0.8492,-0.339,97,3.186,61,0.4957,0.2664,-7.3988,0.3015,0.5993,0.6673,64
2.784,53,0.284,8.4549,-1.5696,-0.4827,-0.5961,-0.2521,93,2.612,50,10.3026,-0.5295,-14.0558,-0.4538,0.1115,0.0303,92,2.817,54,0.5699,-2.7804,-3.614,0.355,1.3658,0.0469,97,3.237,62,-4.243,0.6821,-10.1743,0.9339,1.1483,0.504,64
2.836,54,0.0687,7.9439,-1.0577,0.2892,-0.7423,-0.2367,93,2.664,51,6.8298,-0.8251,-12.397,-0.216,0.7613,0.184,92,2.869,55,-1.3558,-0.8971,-7.1089,-0.3942,1.7428,0.3011,97,3.289,63,-5.1554,-0.3553,-7.9756,1.0534,0.3965,0.2884,64
2.888,55,3.6505,9.5357,-0.6587,0.8525,-1.3006,-0.2083,93,2.716,52,2.0341,-0.9212,-11.9182,-0.2888,0.2641,-0.0784,92,2.921,56,-4.6295,1.624,-5.7344,0.0494,0.742,0.4584,97,3.341,64,-5.226,-0.2991,-5.8808,0.8326,-0.3427,0.2568,64
2.939,56,7.648,12.341,-2.5153,0.0003,-1.1244,0.392,93,2.767,53,2.3294,-1.096,-11.2767,0.2937,-0.2669,-0.3486,92,2.973,57,-4.0111,0.6467,-3.1369,-0.1168,0.0453,0.1609,97,3.393,65,-6.3369,-1.1207,-4.3345,0.1142,-0.6991,0.2567,64
2.991,57,10.5656,11.3169,-1.4247,-0.5086,-1.1597,0.4587,93,2.82,54,1.0111,0.0456,-10.8475,0.6294,0.2342,-0.4305,92,3.024,58,-5.1448,1.5846,-2.3078,0.1695,-0.3656,0.0306,97,3.445,66,-7.2013,2.1031,-8.8508,-0.5267,0.0441,0.4702,64
3.043,58,6.7646,11.1707,-0.3057,-0.0771,-0.3525,0.5393,93,2.871,55,-0.2345,-0.0512,-10.8734,0.5768,0.2303,-0.4349,92,3.076,59,-6.8956,2.2459,-0.1546,0.2739,-0.5156,-0.1553,97,3.496,67,-3.401,0.0622,-8.9982,-0.4182,-0.4346,-0.0167,64
3.095,59,2.6399,11.3807,-0.2307,-0.1353,-1.0394,0.4152,93,2.923,56,2.2583,0.3868,-10.5179,0.441,-0.5038,-0.3867,92,3.128,60,-2.6369,7.414,-1.6193,-0.0402,-0.4533,-0.4713,97,3.548,68,-3.0242,1.5264,-10.0195,0.3285,0.3903,0.485,64
3.146,60,1.5812,10.8736,-0.561,-0.809,-0.6895,0.0539,93,2.975,57,6.8636,0.6119,-13.867,0.5644,-0.2458,0.098,92,3.18,61,0.7623,1.2576,-5.6969,0.4523,0.4152,0.1212,97,3.6,69,-3.4328,0.0172,-8.6593,0.3098,0.9957,0.5769,64
3.198,61,0.5098,8.7989,-1.0608,-1.3008,-0.7109,-0.0624,93,3.027,58,10.2247,0.7659,-13.7294,0.1162,-0.5614,0.6824,92,3.232,62,1.0764,-0.5827,-4.3509,0.6006,1.049,0.3966,97,3.652,70,-10.3475,2.2933,-10.3165,0.3968,1.2402,0.6147,64
3.251,62,0.036,8.307,-0.9237,-0.3079,-0.5524,0.0092,93,3.079,59,7.023,0.2848,-10.7713,0.5555,0.2701,1.0396,92,3.283,63,-1.9968,-0.4835,-4.7245,0.268,1.5116,0.2265,97,3.704,71,-9.1722,0.8192,-8.261,0.9719,0.285,0.6164,64
3.302,63,2.5594,8.5379,-0.2077,0.4167,-1.0653,0.0835,93,3.13,60,3.786,1.8084,-10.8983,0.9876,-0.4747,0.7727,92,3.335,64,-2.8212,1.8407,-3.9325,0.3021,0.4975,0.4814,97,3.756,72,-8.5188,0.668,-5.7845,0.5396,-0.3859,0.5372,64
3.354,64,6.8517,8.927,-4.4701,0.0028,-1.0111,0.0309,93,3.182,61,5.6514,1.7848,-10.5965,0.1829,0.1355,0.3351,92,3.387,65,-4.4624,0.8194,-2.4767,0.8824,-0.1076,-0.0374,97,3.807,73,-8.6402,0.6705,-4.4488,0.0399,-0.6716,0.3672,64
3.406,65,9.565,7.0423,-2.2346,-0.5918,-1.5958,0.7076,93,3.234,62,3.2461,0.9964,-10.4764,0.1615,0.6987,-0.2779,92,3.439,66,-5.853,1.4398,-1.9361,1.2683,-0.4789,-0.2845,97,3.859,74,-8.9236,1.1988,-3.3522,0.4732,-0.5428,0.1366,64
3.458,66,5.699,8.0275,-1.8632,0.2095,-0.6708,0.9855,93,3.286,63,1.4911,0.9053,-10.4795,0.7882,0.9214,-0.7337,92,3.491,67,-6.9071,1.6114,0.4788,0.8354,-0.3858,-0.4454,97,3.911,75,-3.765,-4.4044,-8.1339,0.223,-1.0369,0.2518,64
3.509,67,4.3259,11.3464,-0.9856,-0.0633,-1.3475,0.3936,93,3.338,64,-0.0356,5.8767,-7.0221,1.2456,0.0889,-0.9844,92,3.542,68,-2.3462,-3.638,5.0487,0.229,-0.8873,0.1873,97,3.963,76,0.0,-1.736,-9.8766,0.7915,-0.0459,0.6852,64
3.561,68,3.2382,10.5635,-1.6447,-0.7565,-0.6859,-0.0645,93,3.389,65,5.1895,8.8508,-12.3011,0.2277,0.7132,-0.7056,92,3.594,69,0.8695,-2.196,0.3886,0.2642,0.002,0.361,97,4.014,77,2.7479,2.7089,-5.6425,0.4274,0.6774,0.9753,64
3.613,69,2.1034,8.9286,-2.0872,-1.1814,-0.6702,0.0077,93,3.441,66,9.0029,7.0628,-15.0435,-0.5152,0.7786,0.0823,92,3.646,70,3.3295,-6.4168,-2.0704,-0.1294,0.7474,0.2426,97,4.066,78,-5.8366,7.2633,0.7835,0.8596,1.2053,1.2308,64
3.665,70,0.1475,8.2322,-2.4888,-1.2987,-0.8133,0.1822,93,3.493,67,6.0348,3.2896,-16.8617,-1.0575,1.2482,0.6359,92,3.698,71,-3.4763,1.0843,-6.9015,-0.7477,1.2915,0.833,97,4.118,79,-7.0197,4.0054,-5.1155,-0.0105,0.4043,0.7514,64
3.716,71,0.8277,3.3544,-3.9155,-1.6582,-1.4515,0.7882,93,3.545,68,5.2532,2.7835,-17.3715,-0.1014,0.2391,1.1084,92,3.75,72,0.1578,5.1955,-10.4275,-0.601,0.3369,0.2295,97,4.17,80,-3.5382,4.5642,-3.9253,0.7063,-0.3458,-0.0263,64
3.768,72,5.5878,-0.2055,-8.3765,-0.5688,-1.9172,1.2603,93,3.597,69,4.6804,3.438,-14.8369,0.5963,0.8544,0.683,92,3.802,73,0.8923,3.8004,-11.0092,-1.092,-0.3599,-0.3843,97,4.222,81,-3.7485,2.4263,2.0368,0.0965,-0.8932,-0.2677,64
3.82,73,9.062,-0.0576,-10.3759,0.2264,-1.9818,1.4986,93,3.648,70,0.6721,1.3382,-13.8699,0.2989,0.0308,0.7607,92,3.854,74,-2.5517,-2.0404,-2.8365,-1.4503,-0.8684,-0.92,97,4.273,82,-3.2268,-2.2189,6.3882,-0.5674,0.059,0.2035,64
3.872,74,8.3382,7.8122,-9.4945,0.8067,-1.0019,1.2524,93,3.7,71,4.9633,3.6773,-12.7527,0.8885,-0.3952,0.6216,92,3.905,75,-2.5638,-5.7467,3.1283,-0.4972,0.1122,-0.0981,97,4.325,83,-2.9423,-1.8176,4.2499,-0.3063,0.7539,0.9232,64
3.924,75,4.6577,10.7748,-12.4483,-0.1216,-1.5891,0.2473,93,3.752,72,4.8143,3.8824,-11.3147,0.4702,-0.4079,0.8667,92,3.957,76,-1.985,-4.3398,-0.2027,0.3355,0.8279,0.1334,97,4.377,84,-0.2629,-0.1696,-0.8809,-0.335,1.2611,1.4443,64
3.975,76,6.8333,8.0711,-10.6144,-0.799,-0.8534,-0.4647,93,3.804,73,1.1197,3.1037,-10.4015,0.2658,0.3822,0.7242,92,4.009,77,1.2462,-5.6637,-5.2407,0.8225,1.3502,0.5428,97,4.429,85,2.556,5.1624,4.2587,-0.8322,0.6175,1.4074,64
4.027,77,2.0853,3.2369,-8.9158,-1.2935,-0.9072,-0.6022,93,3.856,74,-0.4803,3.244,-9.4417,0.8643,0.0101,0.3906,92,4.061,78,-0.3669,-1.1307,-9.2154,0.5205,1.7315,0.8888,97,4.48,86,2.3361,1.7719,-1.4957,-0.4982,-0.1902,0.6559,64
4.079,78,2.6566,4.7981,-7.2432,-0.3664,-0.2544,-0.4199,93,3.908,75,1.6141,5.7934,-10.48,0.5961,-0.6162,-0.2493,92,4.113,79,2.4272,4.9497,-8.6251,0.1923,0.7146,0.3641,97,4.532,87,4.4528,1.2066,-4.1481,0.3502,0.5721,0.6281,64
4.131,79,4.2178,3.5363,-7.0312,-0.9777,-0.1869,-0.8726,93,3.959,76,6.3934,5.615,-13.0867,-0.2464,-0.6984,-0.5849,92,4.164,80,4.4579,3.3668,-11.6855,0.2831,1.2675,0.8489,97,4.584,88,5.535,-2.1526,-4.17,0.1174,1.1284,0.6307,64
4.183,80,2.5996,3.6565,-6.1767,-0.4049,0.3101,-0.713,93,4.011,77,9.0619,2.5724,-11.0991,-0.8612,-0.3935,0.156,92,4.216,81,3.0496,2.0992,-8.5334,0.2422,1.6711,0.9019,97,4.636,89,-3.8024,1.0626,-3.2872,0.2123,1.2057,0.7487,64
4.234,81,-0.751,3.6803,-4.3778,0.3056,-0.0923,-0.0998,93,4.063,78,3.4034,-0.0092,-11.3606,-0.5258,0.3927,-0.0275,92,4.268,82,-1.0983,2.0585,-9.8983,-0.4766,1.9657,1.1788,97,4.687,90,-4.1661,1.4831,-2.684,0.8688,0.4072,0.8354,64
4.286,82,3.6845,4.3592,-4.6359,0.8367,-0.9252,0.2668,93,4.115,79,2.3147,-1.2786,-11.3077,0.2866,-0.3852,-0.0157,92,4.32,83,-1.6103,2.8287,-7.3351,-0.3133,0.8289,1.0546,97,4.739,91,-5.2129,0.1997,-1.2087,0.3235,0.1272,0.7199,64
4.338,83,7.6729,3.5882,-6.1504,0.3943,-0.9462,-0.1008,93,4.167,80,2.6542,0.4853,-10.6101,0.8795,-0.0229,0.2109,92,4.372,84,-4.3729,2.3189,-4.5451,0.4693,0.4937,0.7013,97,4.791,92,-6.759,1.464,-1.4802,0.0188,0.0443,0.7962,64
4.39,84,8.8148,3.7205,-4.8863,0.9276,-0.1968,-0.7403,93,4.218,81,0.6821,0.074,-10.5932,0.1735,0.1898,0.439,92,4.423,85,-6.5099,3.0662,-3.9009,0.946,0.4573,0.4707,97,4.843,93,-7.9572,1.2251,-2.2283,-0.2069,-0.3101,0.8274,64
4.441,85,1.569,4.6921,-3.9742,1.3184,0.3503,-0.5335,93,4.27,82,0.7261,1.0173,-9.7731,0.797,-0.2366,0.3774,92,4.475,86,-7.6499,3.9192,-2.2171,0.6605,0.2024,0.1454,97,4.895,94,-3.0596,-2.0663,-5.838,-0.6931,-0.4351,0.2398,64
4.493,86,1.2713,6.7267,-3.2597,0.4556,-0.6022,-0.9941,93,4.322,83,3.3121,4.2986,-7.0982,0.5232,-0.4125,-0.0744,92,4.527,87,-2.8883,-1.9537,-7.0086,-0.0624,-0.1711,0.6664,97,4.946,95,0.5148,0.4052,-7.8671,0.1822,0.3933,0.4424,64
4.545,87,0.3944,6.3402,-3.4861,-0.3778,-0.1001,-1.2288,93,4.374,84,7.6327,2.7483,-13.1311,-0.2996,0.1608,0.2324,92,4.579,88,-1.1694,-1.5284,-9.2524,-0.5274,0.6211,0.5749,97,4.998,96,3.1236,-1.9741,-7.719,-0.4003,0.9979,0.6912,64
4.597,88,0.1583,5.6198,-2.8763,0.1003,-0.3315,-0.9832,93,4.426,85,10.7861,3.2121,-13.8524,-0.9,-0.3253,0.8298,92,4.631,89,1.8415,-5.9296,-4.6085,-0.4999,1.1993,1.0482,97,5.05,97,2.6972,-0.9768,-9.568,-0.1582,0.0875,0.3457,64
4.649,89,-1.1907,6.1577,-2.1677,0.294,-0.2244,-0.7378,93,4.477,86,6.1135,1.124,-12.1916,-1.3383,0.4425,0.6425,92,4.682,90,-6.551,-9.0819,-5.5643,-1.018,1.209,0.0867,97,5.102,98,0.727,-0.7674,-11.2222,-0.7533,-0.4991,0.2613,64
4.701,90,2.1122,3.6789,-0.1325,-0.4695,-1.0216,-0.3132,93,4.529,87,4.9798,0.6255,-13.2318,-0.3064,-0.3489,0.4816,92,4.734,91,-2.0862,-1.7852,-9.4515,-0.2006,0.2766,-0.632,97,5.154,99,-4.8015,-3.5009,-3.2888,0.1583,-0.9108,-0.229,64
4.752,91,6.5253,6.2913,-4.7032,0.2988,-0.5459,0.4217,93,4.581,88,3.5171,0.9412,-13.2256,-0.0708,0.4253,0.2844,92,4.786,92,-2.6415,-3.6785,-1.6996,-0.7997,-0.4039,-0.9172,97,5.205,100,-9.1828,-2.8515,2.5013,0.3995,0.0462,0.0605,64
4.804,92,9.7462,9.1454,-4.7081,0.8595,-0.4857,0.2177,93,4.633,89,1.6247,-0.327,-13.2397,0.3234,-0.3615,0.6916,92,4.838,93,-5.482,-5.9069,3.958,0.0893,0.2922,-0.6861,97,5.257,101,-8.4373,-2.5257,-0.5814,-0.1389,0.7446,0.8205,64
4.856,93,1.509,14.6086,-6.3668,1.2277,0.1394,0.5135,93,4.685,90,6.4011,2.814,-11.194,0.9064,-0.8034,0.8998,92,4.89,94,-6.3896,-3.9279,3.4091,0.7636,0.9593,-0.4623,97,5.309,102,-3.9213,3.3641,-4.3701,0.3585,1.2543,1.1893,64
4.908,94,3.3526,13.9129,-6.2634,0.1858,-0.7562,-0.2919,93,4.736,91,3.4898,4.2133,-9.1097,0.8339,-0.1878,0.9366,92,4.941,95,-4.269,-1.333,0.1936,0.1387,1.4461,0.1881,97,5.361,103,-3.0873,1.7348,1.7122,0.7623,0.6109,0.4615,64
4.959,95,1.2035,8.811,-5.5252,0.0049,-0.058,-0.7749,93,4.788,92,3.3087,4.7553,-6.654,0.143,-0.0443,0.6448,92,4.993,96,-5.0046,1.5516,-5.2491,-0.0065,1.8015,-0.1998,97,5.413,104,0.4946,-1.9597,1.1061,0.0724,-0.1271,0.0675,64
5.011,96,3.2387,9.3598,-4.1286,0.4167,-0.8472,-1.2191,93,4.84,93,5.0683,4.4936,-7.8111,-0.5771,-0.5831,-0.0536,92,5.045,97,-4.6313,5.4274,1.3674,0.3165,1.9493,-0.6901,97,5.465,105,3.1088,-0.785,1.6681,-0.2104,-0.4926,0.5974,64
5.063,97,4.7897,8.0528,-2.9367,-0.4062,-0.1472,-0.958,93,4.892,94,8.9146,1.351,-13.0443,-0.3158,-0.0349,-0.5224,92,5.097,98,-0.6852,5.2963,-0.1161,-0.1936,1.6328,0.0711,97,5.517,106,1.841,-2.7909,-4.4698,0.5603,0.3514,0.1432,64
5.115,98,1.599,6.9608,-2.58,0.0611,0.2308,-0.466,93,4.944,95,8.9176,0.6074,-12.8779,-0.4402,0.6244,0.2086,92,5.149,99,2.1949,7.7573,-0.374,0.5047,1.9377,0.4915,97,5.568,107,0.7056,-3.2546,-3.3702,0.4478,-0.3844,-0.1588,64
5.167,99,-0.901,7.3848,-1.1915,0.6861,0.2527,-0.2365,93,4.995,96,2.6491,0.6019,-12.2417,-0.6621,1.1356,0.7107,92,5.201,100,-6.293,3.5002,4.9255,0.4497,2.1602,-0.3371,97,5.62,108,-1.3915,-1.8844,-3.0558,-0.2437,-0.9214,0.024,64
5.218,100,4.3261,11.1466,-1.8515,1.0329,-0.6735,-0.3342,93,5.047,97,3.2486,0.1128,-12.5788,0.146,0.1569,0.1034,92,5.252,101,-4.6408,2.9506,2.2092,0.4425,0.9709,-0.1818,97,5.672,109,-3.5132,-2.7813,-2.2123,-0.8157,-1.1923,-0.0084,64
5.27,101,8.1411,12.5314,-2.2001,1.3752,-0.3463,-0.2178,93,5.099,98,3.5855,-1.4799,-11.7763,0.7769,0.7944,0.3692,92,5.304,102,-6.8625,3.3231,2.8245,0.7646,0.9015,-0.7034,97,5.724,110,-6.2575,-2.2661,-1.9824,-0.8994,-0.8985,-0.0602,64
5.322,102,10.1108,14.865,-1.0343,1.6443,0.1477,0.0745,93,5.151,99,0.0812,-0.1651,-12.3994,1.2373,-0.0534,0.8064,92,5.356,103,-7.5845,2.6375,2.6615,0.7376,0.8772,-0.707,97,5.776,111,-7.4525,-2.4534,-1.1237,-0.2647,-0.5962,-0.0897,64
5.374,103,1.9156,13.9556,-3.1931,0.4898,0.6017,-0.0154,93,5.203,100,0.7295,3.822,-10.8003,0.951,-0.4698,1.0416,92,5.408,104,-9.2039,1.9595,1.3009,-0.0174,1.0612,-0.4154,97,5.827,112,-2.6913,-0.4176,-0.0403,-0.831,-0.4947,0.3029,64
5.425,104,1.6551,11.5722,-2.618,-0.3528,-0.3499,-0.3068,93,5.255,101,2.0502,4.2472,-8.4527,0.0127,-0.5449,0.3487,92,5.46,105,-4.0224,-3.384,-4.441,-0.666,0.4005,0.3527,97,5.879,113,-0.7633,0.7368,-5.0312,-0.2183,0.2295,0.5817,64
5.477,105,-0.4697,11.0016,-2.8822,-0.9108,-0.2648,-0.263,93,5.306,102,6.7117,1.8098,-11.3524,-0.6721,-1.03,0.679,92,5.511,106,-1.481,-3.2115,-6.2166,-0.4276,0.7889,0.011,97,5.931,114,2.1908,3.4137,-1.886,0.2482,0.8784,0.6822,64
5.529,106,-0.3477,9.3196,-2.4293,-1.2569,-0.4997,-0.3098,93,5.358,103,10.1139,-0.1105,-13.6908,-1.172,-0.4631,0.4154,92,5.563,107,1.6141,-6.864,-3.0663,-0.1072,1.3218,0.5183,97,5.983,115,-6.2432,7.7137,-2.4212,0.8703,0.5442,1.2749,64
5.581,107,0.3744,7.034,-2.0269,-1.1405,-0.9871,-0.3889,93,5.41,104,8.004,-0.6134,-12.0093,-1.4731,0.3419,0.2665,92,5.615,108,-4.0181,-3.12,-3.5224,-0.7315,1.7107,1.0342,97,6.035,116,-1.9553,7.1386,-1.2682,0.6112,0.0062,0.977,64
5.633,108,4.1014,5.7302,-1.3411,-0.8599,-1.5783,0.4012,93,5.462,105,4.8461,-1.1932,-12.4931,-0.4048,-0.4153,-0.4927,92,5.667,109,-0.2376,-0.8781,-0.9183,0.1645,0.6428,0.0981,97,6.086,117,-1.0644,4.2496,0.3572,-0.047,-0.575,0.4888,64
5.684,109,7.9771,6.8982,-5.83,-0.0068,-2.0098,0.9014,93,5.514,106,3.9273,0.4558,-12.0702,0.3749,0.3246,-0.832,92,5.719,110,-5.0516,0.1493,0.207,0.7123,1.202,-0.4002,97,6.138,118,-8.6181,3.1922,2.5522,0.2342,0.2912,0.7389,64
5.736,110,10.8058,8.3099,-5.0576,0.6365,-1.8553,0.1636,93,5.565,107,1.3589,-1.477,-12.6898,-0.3966,0.4044,-0.5469,92,5.77,111,-5.1236,-1.7761,0.6949,0.5771,1.61,-0.2259,97,6.19,119,-10.2834,3.8331,0.3913,-0.4304,0.9234,1.0605,64
5.788,111,6.857,9.3531,-1.0037,1.0102,-0.8602,0.0374,93,5.617,108,1.3079,-1.5358,-11.4746,-0.7715,-0.3767,-0.209,92,5.822,112,-6.3419,-1.7909,-0.4757,1.1196,1.9211,-0.0406,97,6.242,120,-8.845,4.3493,-2.5782,0.088,1.3849,1.1154,64
5.84,112,3.4982,12.5757,-3.331,0.0728,-1.4855,-0.6394,93,5.669,109,2.5297,-1.5052,-10.1467,-0.4215,-0.7704,0.3009,92,5.874,113,-8.1363,0.5352,-2.2446,0.2331,2.0127,0.4084,97,6.294,121,-3.7076,8.4605,3.0199,0.0295,0.3699,0.4045,64
5.892,113,6.8189,8.6492,-3.2086,-0.6572,-1.441,-0.9364,93,5.721,110,2.631,0.0523,-8.4331,0.3627,-0.3657,0.291,92,5.926,114,-12.5956,6.1655,-7.0287,0.511,1.6576,-0.1997,97,6.345,122,-3.3653,11.4611,1.81,-0.1845,-0.0768,0.1616,64
5.943,114,4.314,6.0584,-2.9146,0.1585,-0.5578,-0.8989,93,5.773,111,7.1356,0.9745,-11.4652,-0.3847,-0.9387,0.1068,92,5.977,115,-9.859,-0.0678,-8.8011,0.3229,0.6805,0.1969,97,6.397,123,0.2917,10.4213,0.0472,-0.0587,0.6188,0.6082,64
5.995,115,3.3467,8.0978,-2.6769,0.7572,-0.3854,-0.7174,93,5.825,112,10.4232,3.9035,-13.5855,0.301,-1.2397,0.5943,92,6.029,116,-4.5006,0.4663,-7.9359,-0.0592,0.5781,0.5603,97,6.449,124,2.9607,4.0148,-1.7807,0.5785,1.1625,0.3341,64
6.047,116,1.392,10.3782,-2.2616,0.5607,-0.254,-0.7907,93,5.876,113,12.2479,4.4156,-13.0682,-0.4617,-0.2985,1.0982,92,6.081,117,-0.5898,1.7241,-5.6178,0.0785,1.1679,0.911,97,6.501,125,-5.5674,4.1812,-1.2921,0.0758,0.5641,0.2089,64
6.099,117,1.9592,9.9291,-1.4576,-0.3011,-0.5101,-0.9565,93,5.928,114,6.7867,2.3583,-12.6815,-0.6369,0.462,0.7437,92,6.133,118,-5.7406,0.942,-9.4905,0.0048,1.5984,0.3065,97,6.553,126,-5.8127,3.6676,-0.7394,0.2039,0.0482,0.3977,64
6.151,118,6.4136,9.8294,-2.921,0.1149,-1.2302,-1.1204,93,5.98,115,3.6444,1.023,-13.2266,0.2055,-0.3346,0.7206,92,6.185,119,-4.587,1.0344,-6.2124,-0.1104,0.5609,0.3164,97,6.604,127,-6.7281,1.6336,-0.6285,0.137,0.07,0.246,64
6.202,119,9.6647,13.1165,-3.9526,0.7253,-0.5279,-0.315,93,6.032,116,3.9239,2.786,-11.59,0.8203,-0.5763,0.5641,92,6.237,120,-6.5295,1.502,-3.6519,0.6178,0.9538,-0.0862,97,6.656,128,-7.5175,0.6756,-1.2801,-0.1734,0.0765,0.2609,64
6.254,120,11.1721,13.9856,-2.1954,1.1708,-0.4789,0.3654,93,6.084,117,2.8214,2.5781,-11.2557,-0.0759,-0.337,0.399,92,6.288,121,-7.1491,1.7822,-3.1351,0.8046,0.9044,-0.2193,97,6.708,129,-7.9523,0.6261,-5.9824,-0.2653,0.2122,0.2209,64
6.306,121,4.4043,14.6991,-1.4962,0.5765,0.1444,0.7341,93,6.135,118,2.4412,1.2425,-10.1994,-0.0292,-0.0184,0.1339,92,6.34,122,-8.3192,2.0741,-3.3774,1.0962,0.6137,-0.6235,97,6.759,130,-3.0561,-1.9205,-6.4239,-0.7381,-0.1486,-0.2802,64
6.358,122,3.7971,12.2709,-0.8231,-0.1954,-0.7525,0.2245,93,6.187,119,3.4952,1.7336,-9.217,0.5572,-0.3973,-0.2192,92,6.392,123,-3.3768,-3.3003,-7.8554,0.7361,0.0487,-0.592,97,6.811,131,-2.7914,1.6828,-8.0643,-0.1489,0.5598,0.1004,64
6.41,123,1.6281,12.0711,-1.1498,0.4989,-0.0553,0.5125,93,6.239,120,7.7665,0.6622,-13.7235,0.1062,-0.7836,0.321,92,6.444,124,-0.2612,-2.6769,-9.74,0.04,0.6707,-0.3324,97,6.863,132,-0.8307,2.718,-7.1748,-0.1484,1.1195,0.2851,64
6.461,124,0.7562,12.6581,-0.4082,-0.0468,-0.1732,0.3719,93,6.291,121,10.8839,1.6061,-13.6963,-0.504,-1.0561,0.7453,92,6.496,125,0.77,-4.2409,-7.0497,-0.4023,1.2355,0.3271,97,6.915,133,-6.8736,3.928,-10.9237,0.344,1.5279,0.4165,64
6.513,125,0.0372,10.446,-0.344,-0.4572,-0.3581,0.0783,93,6.343,122,8.1291,1.8705,-11.2268,-1.0493,-0.0909,0.8457,92,6.547,126,-0.5734,-1.9047,-10.5356,-0.5816,1.6477,0.4041,97,6.967,134,-5.8919,3.0889,-7.5673,0.2745,0.6875,0.3151,64
6.565,126,3.3355,10.4174,-0.182,0.3078,-0.6797,0.0964,93,6.394,123,3.8162,0.7632,-12.0735,-0.0955,-0.7382,0.7006,92,6.599,127,-6.0171,1.1279,-8.6163,-0.5552,0.8234,0.5083,97,7.018,135,-5.6435,1.5962,-5.8939,-0.4375,-0.1391,0.4473,64
6.617,127,7.4181,12.6543,-4.0491,-0.014,-0.7427,0.3562,93,6.446,124,6.5162,2.5123,-10.37,0.6007,-0.9657,0.6498,92,6.651,128,-4.4931,0.4753,-5.3928,-0.496,-0.0048,0.234,97,7.07,136,-6.9728,1.356,-4.5312,-0.9571,-0.7121,0.512,64
6.668,128,10.3978,12.255,-2.4089,-0.2373,-1.1363,0.8022,93,6.498,125,3.6329,2.9192,-10.9836,-0.2169,-0.347,0.4888,92,6.703,129,-6.4454,1.065,-4.4514,-0.0091,-0.4199,0.0115,97,7.122,137,-7.0399,0.6727,-8.9944,-1.0434,-0.6368,0.7215,64
6.72,129,5.5285,13.2614,-0.9797,0.156,-0.3354,1.081,93,6.55,126,2.8023,0.9434,-11.099,-0.8397,0.0302,0.3712,92,6.755,130,-7.2935,1.3844,-2.0055,-0.2157,-0.6646,0.0195,97,7.174,138,-2.3901,-4.2652,-12.2518,-1.1711,-0.7297,0.083,64
6.772,130,2.8124,13.1107,-1.1165,-0.5542,-1.1027,0.2521,93,6.602,127,2.7544,1.1958,-10.4333,-0.3323,-0.347,0.3035,92,6.807,131,-2.6281,-3.8037,3.7348,-0.4729,-1.0908,0.3333,97,7.226,139,1.0034,-0.8501,-12.3395,-0.6489,-0.0129,0.6027,64
6.824,131,1.7224,11.404,-1.5502,-1.1148,-0.3109,-0.276,93,6.653,128,7.2256,-0.7577,-15.5652,-0.5322,-0.1652,0.6272,92,6.858,132,-2.7619,-3.5438,-0.5675,-0.6705,-0.1425,0.4206,97,7.277,140,3.4802,0.0236,-6.4505,-0.2222,0.7014,0.6929,64
6.876,132,1.227,9.3048,-1.1561,-1.4167,-0.7032,-0.3981,93,6.705,129,10.489,0.2163,-15.205,-0.7768,-0.393,0.6261,92,6.91,133,0.6792,-5.2159,-0.7682,-1.1427,0.642,0.952,97,7.329,141,-5.1849,4.9445,-9.9987,0.5518,1.2228,1.1529,64
6.927,133,0.6165,8.3931,-0.9504,-0.4129,-0.5074,-0.1599,93,6.757,130,7.8219,0.524,-13.2394,-1.2483,0.3931,0.587,92,6.962,134,-2.5167,-1.2379,-4.497,-1.4873,1.2146,1.3498,97,7.381,142,-5.2065,4.2215,-6.924,1.1166,0.5361,0.9347,64
6.979,134,2.3513,8.6952,0.273,0.2916,-0.7846,0.1033,93,6.809,131,2.1825,-1.9738,-13.1995,-1.3049,-0.276,0.3268,92,7.014,135,-7.0841,-0.4964,-4.8276,-1.1233,0.4335,0.9827,97,7.433,143,-4.871,3.4144,-5.0598,0.8917,-0.2496,0.7099,64
7.031,135,6.6999,10.0474,-2.8096,-0.4448,-1.4305,0.1835,93,6.861,132,4.5841,-2.4312,-12.2652,-0.282,-0.8733,0.4064,92,7.065,136,-4.8219,0.0759,-2.9496,-0.3746,-0.2894,0.1073,97,7.484,144,-6.1819,1.7454,-4.4469,0.1534,-0.7043,0.5612,64
7.083,136,9.8736,9.4884,-2.5529,-0.6916,-1.3029,0.3205,93,6.912,133,3.2053,0.6168,-12.0243,0.4641,0.0425,0.1606,92,7.117,137,-6.9679,0.7809,-1.6825,-0.3028,-0.317,-0.0728,97,7.536,145,-7.0437,0.9938,-3.0522,-0.5259,-0.9378,0.5164,64
7.135,137,5.8722,8.7545,-0.6528,-0.0158,-0.457,0.3878,93,6.964,134,1.6535,-0.6346,-12.0916,-0.0073,-0.0397,-0.1147,92,7.169,138,-7.9445,0.8521,-0.8446,-0.4504,-0.1505,0.1097,97,7.588,146,-12.1362,3.6748,-7.9149,-0.4906,-0.9874,0.7138,64
7.186,138,2.1319,10.4387,-1.1081,-0.1244,-1.171,0.2157,93,7.016,135,1.1962,-0.1837,-11.0849,0.2101,-0.1815,0.0834,92,7.221,139,-10.3977,6.3967,-6.0069,-0.2798,0.5121,0.3644,97,7.64,147,-6.1097,3.512,-7.7524,-0.2449,-0.8911,0.6434,64
7.238,139,1.5806,9.0012,-1.0085,-0.8011,-0.4699,0.0216,93,7.068,136,6.0884,0.2509,-12.8853,-0.5243,-0.8043,0.1605,92,7.273,140,-4.8937,1.7394,-6.0682,-0.098,0.1059,-0.2211,97,7.692,148,-1.7113,3.4825,-7.4036,0.2115,-0.0568,0.9365,64
7.29,140,0.6353,9.216,-0.8263,-0.2482,-0.7736,0.0284,93,7.12,137,9.659,0.229,-15.1528,-0.5378,-0.7558,0.3139,92,7.324,141,-1.3539,3.3774,-7.8407,-0.1103,0.4347,0.4604,97,7.743,149,0.85,2.8725,-4.3759,0.3269,0.6694,0.9138,64
7.342,141,0.1303,9.649,-0.9877,0.0547,-0.639,-0.0725,93,7.171,138,12.2649,-0.0224,-13.915,-1.0536,0.0345,0.156,92,7.376,142,1.0924,3.3284,-7.4738,0.5277,0.9834,0.6914,97,7.795,150,-7.2217,4.4781,-3.5988,0.2903,0.9565,0.7498,64
7.393,142,0.2796,9.5129,-0.4131,0.3329,-0.6935,-0.3848,93,7.223,139,6.5273,-0.9881,-11.6175,-1.3744,0.7051,-0.0848,92,7.428,143,-3.7674,3.3526,-10.8452,-0.2611,1.4637,0.9256,97,7.847,151,-7.778,3.4813,-2.8927,0.8266,0.3294,0.695,64
7.445,143,5.1878,10.278,-0.3946,0.6198,-1.3621,-0.4795,93,7.275,140,4.0967,-1.9512,-12.3991,-0.5389,-0.1573,-0.2488,92,7.48,144,-4.1793,3.3777,-7.8946,-0.0586,0.4626,0.6801,97,7.899,152,-7.5202,2.0286,-2.5672,0.1235,-0.3995,0.6261,64
7.497,144,8.77,11.6406,-3.1557,-0.134,-0.5384,-0.0992,93,7.327,141,5.1686,-0.5766,-12.0996,0.2771,0.1597,-0.5053,92,7.532,145,-2.8843,2.8366,-5.5819,0.6044,-0.1008,-0.0408,97,7.95,153,-8.0832,1.2202,-2.128,-0.5477,-0.8064,0.6236,64
7.549,145,11.3845,9.2,-1.9336,-0.1871,-0.2101,-0.4668,93,7.379,142,2.564,0.5313,-12.0245,-0.3881,0.7957,-0.6007,92,7.584,146,-4.9719,2.9518,-4.0553,0.887,-0.5079,-0.3433,97,8.002,154,-6.7686,-0.4274,-7.2404,-0.7578,-0.1011,0.703,64
7.601,146,3.4158,9.3637,-2.2355,-0.2836,0.3406,-0.1811,93,7.43,143,1.6022,-0.6134,-11.6411,-0.6533,0.301,-0.572,92,7.635,147,-6.2323,2.8722,0.1197,0.5207,-0.38,-0.3812,97,8.054,155,-2.1922,3.1144,-7.7676,-1.1909,0.0325,0.2717,64
7.653,147,5.2583,8.8388,-1.484,-0.9133,-0.6093,-0.2528,93,7.482,144,2.5308,0.8877,-9.829,0.1746,-0.3861,-0.5754,92,7.687,148,-1.8536,-2.7178,-1.5859,0.8495,-0.8831,0.0403,97,8.106,156,0.0478,5.5553,-9.1648,-0.7687,0.6322,0.6929,64
7.704,148,2.5632,7.9804,-1.6322,-0.6668,0.0115,0.1007,93,7.534,145,7.0625,1.0047,-13.8279,-0.2428,-0.3264,-0.5004,92,7.739,149,-1.3857,-3.889,-5.0094,0.8732,0.0466,0.2096,97,8.158,157,2.7828,5.4613,-6.1585,-0.0839,1.1723,0.9695,64
7.756,149,1.5657,8.5707,-1.1947,-0.049,-0.2763,0.3859,93,7.586,146,10.3699,1.9423,-13.4651,-0.0918,-0.2958,-0.5307,92,7.791,150,1.6836,-5.5908,-6.1088,-0.016,0.78,0.7096,97,8.209,158,2.3065,1.4683,-8.9594,0.6527,1.5665,0.6538,64
7.808,150,0.6401,8.3574,-1.0268,0.1758,-0.4203,0.453,93,7.638,147,8.64,2.3646,-11.9425,-0.4457,0.464,0.0222,92,7.842,151,1.1129,-0.0299,-8.4951,-0.6375,1.3153,1.1598,97,8.261,159,-0.3674,-0.2754,-6.6078,0.3171,0.5024,0.4064,64
7.86,151,2.6844,7.9762,-0.0088,0.6044,-0.8524,0.4053,93,7.69,148,2.8386,1.9912,-11.9891,-1.0067,1.0185,-0.5532,92,7.894,152,-5.2941,-0.7464,-6.5708,-0.1095,1.706,0.1635,97,8.313,160,-1.9815,-0.8983,-5.1334,0.3747,-0.2737,0.4175,64
7.912,152,6.9429,10.0717,-2.0495,0.2801,-1.48,0.6738,93,7.742,149,4.4368,0.923,-11.0842,-0.4055,0.2241,-1.0909,92,7.946,153,-4.8309,-1.014,-5.2112,-0.6336,0.6393,0.1298,97,8.365,161,-3.2294,-0.9784,-3.9753,0.0225,-0.8406,0.3595,64
7.963,153,10.051,9.7117,-2.2344,-0.5058,-1.396,0.8774,93,7.793,150,1.8124,-0.3846,-12.1848,0.1507,0.8434,-1.2725,92,7.998,154,-5.3855,0.1397,-3.3804,-0.2073,0.2919,-0.2705,97,8.417,162,-4.6752,-1.2728,-2.2945,-0.4325,-1.1422,0.3763,64
8.015,154,8.4557,8.444,-0.3557,0.1712,-0.525,0.5054,93,7.845,151,0.8326,-1.9472,-12.6011,-0.5714,-0.0563,-0.6387,92,8.05,155,-6.4684,0.4162,-1.1164,0.1253,-0.0925,-0.3814,97,8.468,163,-3.5437,1.5114,3.227,-0.8372,-1.4745,0.3788,64
8.067,155,3.7999,9.7935,-0.8449,0.7664,-1.2256,0.5588,93,7.897,152,2.3715,-1.1782,-10.9855,-0.1328,-0.4901,-0.1235,92,8.102,156,-9.4863,6.0786,-6.2053,0.5863,0.6043,-0.3262,97,8.52,164,0.1615,-1.8646,2.1292,-0.693,-1.7151,0.4188,64
8.119,156,3.8326,10.0228,-0.27,-0.1046,-0.7943,0.207,93,7.949,153,6.9462,1.8847,-10.2962,0.1844,-1.0238,-0.1857,92,8.153,157,-4.2286,10.2113,-3.2715,0.4019,0.1034,-0.065,97,8.572,165,2.8657,-0.6123,-0.0887,-0.0408,-0.5409,0.7877,64
8.17,157,1.7943,9.6479,-0.5265,-0.7561,-0.7404,-0.0376,93,8.001,154,10.2851,5.3188,-11.0454,0.8049,-1.1403,0.4908,92,8.205,158,-1.1518,9.1799,-5.0187,0.2513,-0.1663,0.2695,97,8.624,166,4.8394,-1.7816,-0.7672,0.1561,0.3161,0.7742,64
8.222,158,0.6213,9.6664,-0.8232,-0.668,-0.6519,-0.303,93,8.053,155,12.7219,5.2814,-10.1924,0.0914,-0.6024,1.0227,92,8.257,159,1.8543,9.9732,-4.1608,0.5298,0.6231,0.7718,97,8.675,167,-4.2991,1.3882,-2.2377,0.8138,0.9105,0.707,64
8.274,159,1.7459,9.5961,-0.4485,-0.1889,-0.7131,-0.8355,93,8.104,156,3.9121,3.4509,-11.8105,-0.5474,0.2402,0.8469,92,8.309,160,-3.3761,7.5049,-8.4272,0.2205,1.2008,0.5449,97,8.727,168,-5.7908,0.7292,-1.8827,1.3078,0.2159,0.6316,64
8.326,160,6.258,10.5969,-0.7926,0.0314,-1.37,-1.0744,93,8.156,157,3.6784,1.8771,-11.5145,0.2121,-0.4965,0.9819,92,8.361,161,-3.9207,5.9371,-6.6646,-0.4712,0.2706,0.4119,97,8.779,169,-6.3184,0.5215,-1.3569,1.4621,-0.3993,0.5972,64
8.377,161,9.5511,11.9817,-2.4875,-0.6874,-0.8911,-0.4514,93,8.208,158,3.6857,2.9305,-10.9731,0.7872,0.1724,0.8639,92,8.412,162,-2.3505,3.8942,-3.9864,0.2239,-0.3306,-0.2807,97,8.831,170,-7.3061,0.0362,-1.1077,0.7699,-0.5713,0.5358,64
8.429,162,9.7688,9.6832,-0.7269,-0.6232,-0.1929,-0.1704,93,8.26,159,1.1914,1.9179,-11.5212,-0.1069,0.1167,0.4847,92,8.464,163,-5.7197,4.1663,-2.8214,0.8618,-0.1856,-0.6375,97,8.883,171,-6.2266,2.3746,-6.4958,0.04,0.0891,0.5184,64
8.481,163,1.5255,8.7173,-2.7563,0.1866,-0.1803,0.5607,93,8.312,160,1.0474,1.3694,-11.0445,-0.5011,-0.5852,0.5909,92,8.516,164,-6.4216,3.926,-1.1756,0.3413,0.0788,-0.2821,97,8.934,172,-1.7966,-1.4299,-10.4282,-0.3235,-0.2412,0.3825,64
8.533,164,4.1604,11.3518,-1.6424,-0.2933,-0.5948,0.7719,93,8.363,161,2.146,0.3464,-10.1287,-0.7888,-0.9684,0.6708,92,8.568,165,-1.9918,1.7783,-4.7387,-0.4042,0.4559,-0.5638,97,8.986,173,1.4366,0.219,-12.6221,-0.1161,0.4649,0.6591,64
8.585,165,1.6339,9.9238,-2.4614,-0.9243,-0.4319,0.7178,93,8.415,162,6.7816,-0.599,-14.7727,-0.2225,-0.9076,0.014,92,8.62,166,-1.3209,2.3184,-6.6513,-0.3106,0.9433,-0.5552,97,9.038,174,2.7706,1.433,-9.4246,0.4886,1.0502,0.8685,64
8.636,166,3.4712,8.2705,-4.7536,-1.0616,-1.1731,1.209,93,8.467,163,10.1649,-2.3744,-15.9686,-0.5192,-0.0543,-0.2854,92,8.671,167,1.7309,0.6729,-6.7106,-0.3239,1.4301,-0.1318,97,9.09,175,1.6474,0.3571,-10.5555,1.0206,1.4774,0.6857,64
8.688,167,4.7653,4.9878,-7.7437,-1.1877,-1.714,1.5674,93,8.519,164,8.1015,-2.3643,-13.622,0.0892,0.6403,-0.093,92,8.723,168,1.1888,3.1495,-6.864,-0.4334,1.7898,0.4231,97,9.142,176,-3.2091,1.1084,-8.8739,0.9786,0.7784,0.4179,64
8.74,168,5.6793,7.5618,-6.7621,-0.2254,-2.1089,1.829,93,8.571,165,0.8483,-2.5398,-14.2442,-0.126,0.968,-0.0209,92,8.775,169,-4.3443,3.1761,-4.3325,0.1914,1.985,-0.1485,97,9.193,177,-3.5023,-0.0852,-6.2701,0.401,0.0573,0.325,64
8.792,169,5.7469,7.0395,-6.1696,-0.8267,-2.3625,1.0316,93,8.622,166,1.7332,-2.2019,-13.5928,0.3092,0.0346,0.1507,92,8.827,170,-3.45,0.6983,-2.2607,-0.3296,1.1202,-0.2609,97,9.245,178,-4.9379,0.4877,-4.6204,0.2323,-0.3178,0.2927,64
8.844,170,1.9191,2.484,-5.3432,-1.308,-1.2304,0.2244,93,8.674,167,1.1342,-1.0267,-13.1796,0.2809,0.5031,0.3,92,8.879,171,-5.3406,1.6824,-1.4525,0.156,0.7762,-0.4099,97,9.297,179,-6.5538,-1.205,-3.466,-0.4614,-0.5353,0.2417,64
8.895,171,0.2287,2.5027,-6.7244,-0.3132,-0.9011,0.2623,93,8.726,168,0.9213,-1.2875,-12.7245,0.1162,-0.0895,0.1516,91,8.93,172,-7.1161,1.4539,-1.0787,-0.018,0.7,-0.4017,97,9.348,180,-2.0354,3.9004,2.372,-0.9746,-1.0315,0.4219,64
8.947,172,-0.9737,6.6789,-4.4123,-0.0083,-1.347,0.8765,93,8.778,169,1.2026,-0.8794,-11.5202,0.4578,-0.3629,0.2634,91,8.982,173,-10.1705,6.4894,-6.1777,0.6853,0.2311,-0.8622,97,9.401,181,-0.1731,2.3591,-2.8409,-0.5442,-0.5401,0.5677,64
8.999,173,-1.4942,8.7144,-3.792,0.1986,-0.9957,1.1555,93,8.83,170,6.0931,0.1735,-15.3028,-0.3473,-0.9367,-0.0965,91,9.034,174,-4.7279,6.9166,-5.9123,0.4989,-0.4051,-0.4901,97,9.452,182,2.6215,1.0445,-4.2822,0.2318,0.3167,0.4911,64
9.051,174,-0.2236,9.877,-3.7763,-0.5653,-1.0675,1.2285,93,8.882,171,9.6624,-0.4101,-17.1242,-0.9349,-0.2218,0.5941,91,9.086,175,-0.7557,8.0182,-6.5128,0.225,0.1377,-0.1638,97,9.504,183,4.6612,0.0433,-5.4864,0.6122,0.942,0.6757,64
9.103,175,-0.6974,9.3387,-3.5613,-1.0681,-1.1002,1.1962,93,8.933,172,9.9629,-2.0931,-17.4571,-0.7208,0.518,0.7343,91,9.138,176,2.1396,6.4329,-5.0562,0.0471,0.8465,0.4978,97,9.556,184,-4.4401,-1.2288,-6.327,0.4192,0.73,0.5265,64
9.154,176,-1.7656,6.1734,-3.4883,-1.1904,-1.1786,1.5309,93,8.985,173,1.8984,-1.5934,-18.7491,0.1443,0.6738,0.9405,91,9.189,177,-2.9692,5.4296,-9.0807,0.0055,1.3638,0.4082,97,9.607,185,-5.2334,0.5626,-4.1199,0.7558,0.0709,0.5639,64
9.206,177,-4.339,2.3604,-7.2011,-0.6707,-1.0869,1.8024,93,9.037,174,3.1326,-0.1959,-16.7803,0.1671,-0.1801,1.0447,91,9.241,178,-3.1944,4.4682,-5.1596,-0.5155,0.3896,0.5933,97,9.659,186,-6.1083,0.0957,-2.9263,0.8037,-0.1636,0.5818,64
9.258,178,-5.2801,-0.1553,-10.7745,-0.4055,-1.3946,0.7861,93,9.089,175,1.1371,0.1593,-16.0461,-0.0768,0.4856,0.8063,91,9.293,179,-4.6806,3.5001,-2.76,-0.1247,0.5878,0.3802,97,9.711,187,-7.7263,-0.4509,-2.8329,-0.0311,-0.1957,0.6264,64
9.31,179,-5.7706,0.3927,-9.167,0.3293,-1.5961,-0.0282,93,9.141,176,1.2734,-0.4379,-15.6807,0.5512,-0.3175,0.324,91,9.345,180,-6.1443,3.9574,-2.3778,0.5653,0.4892,0.1453,97,9.763,188,-6.6881,-1.5958,-7.7549,-0.4557,0.3884,0.7913,64
9.362,180,-3.3272,5.2191,-5.1111,0.8818,-2.0228,-0.3148,93,9.192,177,1.1865,-0.5622,-14.1002,0.7457,-0.6397,0.1542,91,9.396,181,-7.6965,5.2217,-3.5301,0.7521,0.3678,-0.1398,97,9.815,189,-2.1334,-6.4674,-7.3116,-0.7648,-0.3574,0.2443,64
9.413,181,-2.7632,5.7218,-5.0106,-0.0667,-2.0176,-0.8693,93,9.244,178,5.2277,-2.6828,-12.1417,0.6631,-1.0694,0.0478,91,9.448,182,-9.1611,9.5859,-6.944,0.9594,0.6733,-0.4658,97,9.866,190,-0.5323,-4.2399,-8.3314,-0.3711,0.2004,0.3696,64
9.465,182,-0.7045,7.2744,-3.7577,-0.0675,-1.5961,-0.9767,93,9.296,179,9.0308,1.934,-16.2019,1.1543,-0.4551,-0.539,91,9.5,183,-7.1707,5.856,-8.5279,0.2155,1.2352,-0.5941,97,9.918,191,1.0712,-1.2762,-5.8692,0.2038,0.8572,0.4297,64
9.517,183,-0.5657,7.8602,-2.9086,-0.6686,-0.9289,-1.1968,93,9.348,180,11.8066,1.2326,-16.4453,0.161,0.3478,0.2712,91,9.552,184,-5.7544,2.6109,-5.1729,-0.1114,1.6475,0.1009,97,9.97,192,-4.2821,-1.2883,-9.9709,0.3881,1.3365,0.3782,64
9.569,184,-1.3631,6.1983,-3.6746,-0.8091,-0.3746,-1.1023,93,9.4,181,6.1637,-1.0996,-15.862,-0.4651,0.9337,0.1286,91,9.604,185,-5.7377,3.5815,-9.1659,-0.2858,1.9484,-0.0295,97,10.022,193,-4.5159,-1.8647,-7.1052,0.5598,0.5541,0.2738,64
9.621,185,-1.1918,2.6007,-3.5908,-0.432,-0.5675,-0.5752,93,9.451,182,3.3887,-0.9202,-15.2957,0.3309,0.0096,-0.0013,91,9.656,186,-9.2813,4.921,-7.5619,-0.4208,1.1676,0.031,97,10.074,194,-4.9338,-1.6429,-4.8563,0.3086,-0.0482,0.2598,64
9.672,186,-0.9299,-0.7557,-8.1396,-0.5402,-0.3799,-0.6782,93,9.503,183,5.1425,0.9657,-13.8166,0.9118,-0.0043,-0.0086,91,9.708,187,-7.1475,3.242,-4.3344,-0.1261,0.5395,-0.1983,97,10.125,195,-5.9476,-1.2847,-3.5051,0.0566,-0.2042,0.2985,64
9.724,187,0.0514,-3.1251,-8.162,0.2472,-0.0645,-0.4459,93,9.555,184,2.4874,0.5332,-14.0561,-0.0159,0.6262,-0.0946,91,9.759,188,-7.9296,3.0219,-2.8369,-0.024,0.3482,-0.1941,97,10.177,196,-7.5969,-1.4503,-3.197,-0.5965,-0.0895,0.4777,64
9.776,188,-0.9615,-1.1678,-5.7848,0.6942,-0.1284,-0.1579,93,9.607,185,1.5233,-0.1915,-13.3435,-0.2635,-0.1206,0.1151,91,9.811,189,-8.4822,2.6505,-1.428,0.0599,0.2736,-0.1837,97,10.229,197,-2.7967,0.8734,-8.0206,-1.0611,0.2949,-0.0987,64
9.828,189,-2.0073,3.7889,-5.1757,0.7592,0.2526,0.3918,93,9.659,186,3.8946,-0.3224,-12.5971,-0.3814,-0.7599,0.6586,91,9.863,190,-3.4957,-2.8796,-3.0644,-0.423,-0.406,0.3824,97,10.281,198,-5.4807,3.4257,-9.5989,-0.602,0.5871,0.1974,64
9.879,190,-1.673,6.3712,-4.3683,0.6527,-0.3384,0.3392,93,9.71,187,8.0579,-1.3441,-17.1444,-0.9598,-1.2265,0.5335,91,9.915,191,-2.5659,-2.3922,-5.214,-0.523,-0.0051,0.0796,97,10.332,199,-1.3457,3.4196,-7.9423,0.1841,1.1394,0.4226,64
9.931,191,-1.4928,8.2235,-4.6925,-0.1897,-0.7021,0.6347,93,9.762,188,11.0964,-1.4055,-18.1086,-1.3819,-0.3192,1.0125,91,9.966,192,0.8222,-2.8897,-5.7622,-0.8936,0.742,0.5061,97,10.384,200,1.0635,2.4692,-6.4775,0.5568,1.5425,0.4508,64
9.983,192,-1.4545,8.4585,-4.0866,-0.8488,-0.9499,0.7808,93,9.814,189,9.0807,-2.07,-16.8757,-0.7878,0.4469,1.0946,91,10.018,193,2.4723,-1.6866,-5.7023,-0.8952,1.2876,1.0199,97,10.436,201,-5.3553,2.189,-6.7978,0.1873,1.1135,0.3502,64
10.035,193,-1.1486,4.2546,-2.2213,-0.9501,-1.5477,0.7856,93,9.866,190,1.2545,-0.2801,-16.9058,0.0954,-0.0785,0.9594,91,10.07,194,-2.342,0.2868,-7.7702,-0.3349,1.6857,0.7994,97,10.488,202,-5.7523,2.5241,-4.6612,0.2262,0.1801,0.4159,64
10.087,194,-5.5922,0.4515,-7.14,-1.3196,-1.3283,0.0246,93,9.918,191,2.7574,0.7395,-14.846,0.0593,-0.671,0.832,91,10.122,195,-3.0184,0.2209,-5.3678,-0.8977,0.6246,0.6742,97,10.54,203,-6.0993,1.6005,-3.842,0.0141,-0.5094,0.4427,64
10.138,195,-6.9845,-2.3243,-8.332,-0.9336,-1.0792,0.2089,93,9.969,192,1.1281,0.4775,-14.4488,-0.2957,0.0566,0.435,91,10.174,196,-3.3229,0.5867,-3.0959,-0.6114,0.0451,0.3083,97,10.591,204,-6.2955,0.882,-8.4913,-0.6266,-0.6679,0.5553,64
10.19,196,-5.45,1.5887,-7.1151,-0.0399,-0.8309,0.462,93,10.021,193,1.008,0.1119,-13.8047,-0.1185,-0.2886,0.0392,91,10.225,197,-4.858,0.4531,-1.2567,-0.385,-0.4813,0.0049,97,10.643,205,-2.139,5.93,-5.6643,-0.5152,-1.1283,0.2231,64
10.242,197,-4.6583,6.6694,-5.5614,0.199,-0.7654,0.6274,93,10.073,194,1.4158,-0.7171,-12.3051,0.1268,-0.5456,0.0538,91,10.277,198,-9.677,2.1596,-6.3077,0.4175,-0.6138,-0.678,97,10.695,206,0.9397,6.2765,-7.6938,-0.3525,-0.9267,0.6129,64
10.294,198,-3.3296,8.1425,-4.2216,-0.348,-1.0929,0.0945,93,10.125,195,6.2487,-0.3952,-15.5941,0.7528,-1.07,-0.6001,91,10.329,199,-4.3678,0.2079,-6.8527,0.3234,-0.2435,-0.4186,97,10.747,207,3.4337,5.6505,-5.8623,0.2754,0.0346,0.9228,64
10.346,199,-1.9448,7.6103,-2.9821,-0.5562,-0.857,-0.0495,93,10.177,196,9.776,0.2581,-16.3373,-0.1058,-0.6403,-0.0025,91,10.381,200,-0.4928,1.2265,-7.4328,-0.1337,0.4583,0.1064,97,10.799,208,4.2481,2.1561,-6.1496,0.8713,0.7361,0.6235,64
10.397,200,-1.5467,8.029,-2.1262,-0.2926,-0.3837,-0.0335,93,10.228,197,8.6899,-0.4708,-14.9036,-0.6873,0.2126,0.4244,91,10.433,201,2.3353,4.1,-7.1556,0.1746,1.0805,0.5901,97,10.85,209,-4.2819,3.5819,-5.8019,0.4874,1.2239,0.5608,64
10.449,201,-2.3546,6.4431,-1.9228,0.2305,-0.1006,0.2745,93,10.28,198,0.9693,-0.917,-15.6948,-0.6913,0.7191,0.4491,91,10.484,202,-3.5119,4.1216,-6.702,0.1852,1.5346,0.1142,97,10.902,210,-5.7174,3.4766,-3.9948,0.8157,0.4215,0.5748,64
10.501,202,-6.2042,2.0487,-4.9095,-0.2046,0.4158,0.1875,93,10.332,199,2.4439,-0.7974,-14.3577,0.1653,-0.147,0.4031,91,10.536,203,-3.5923,3.0375,-5.4838,-0.5182,0.5143,-0.0119,97,10.954,211,-5.7795,2.2481,-3.6825,0.3314,-0.3333,0.4347,64
10.553,203,-5.9504,-1.1585,-4.877,-0.043,0.113,0.1734,93,10.384,200,1.4542,0.0756,-13.3998,-0.206,0.3521,0.5089,91,10.588,204,-3.4094,2.0668,-2.9837,-0.3779,0.1487,-0.4056,97,11.006,212,-6.246,1.2921,-2.9956,-0.396,-0.8841,0.3954,64
10.605,204,-5.3924,0.6065,-4.3584,0.6101,-0.1181,0.2869,93,10.436,201,0.901,-0.8493,-12.9143,-0.1669,-0.1423,0.148,91,10.64,205,-4.7397,1.8179,-1.0797,0.1019,-0.352,-0.5875,97,11.057,213,-1.8108,5.9907,2.7153,-0.2511,-1.2861,0.412,64
10.656,205,-2.8775,5.5384,-4.1275,1.0636,-0.6192,0.6859,93,10.488,202,1.347,-0.4067,-11.6152,0.068,-0.6152,0.1806,91,10.692,206,-8.6756,7.1016,-6.1784,-0.0402,-0.8623,-0.9122,97,11.109,214,1.4263,2.6474,-1.1096,-0.2584,-1.2522,-0.0612,64
10.708,206,-2.5476,7.9087,-4.2953,0.2115,-0.9629,0.055,93,10.539,203,6.1986,-0.5641,-14.313,-0.0246,-1.1208,-0.2231,91,10.743,207,-3.6368,4.7027,-6.1,-0.0263,-1.2351,-0.3294,97,11.161,215,3.7379,0.6077,-3.0919,0.2871,-0.2647,0.3282,64
10.76,207,-1.9973,8.2145,-2.891,-0.5559,-0.5242,-0.4706,93,10.591,204,9.7394,1.3361,-16.1772,-0.2218,-0.3604,0.0016,91,10.795,208,0.0406,4.146,-7.8699,-0.1794,-0.2699,-0.0267,97,11.213,216,5.4333,0.3121,-4.0622,0.4653,0.5177,0.5284,64
10.812,208,-1.4808,8.1851,-1.9136,-0.2654,-0.0735,-0.3839,93,10.643,205,10.6272,-0.6078,-16.2514,-0.8433,0.4169,0.3303,91,10.847,209,2.7246,4.4907,-6.8306,0.249,0.3849,0.5356,97,11.265,217,-3.8766,0.4724,-5.2586,0.4749,1.0887,0.4295,64
10.864,209,-2.0544,6.9111,-1.6973,-0.1465,0.0101,-0.2359,93,10.695,206,4.1953,-0.4166,-16.4668,-1.2743,0.9841,0.1668,91,10.899,210,-2.5758,4.2534,-10.3757,0.4071,1.0269,0.424,97,11.316,218,-4.6881,0.3681,-3.4806,0.6296,0.3396,0.358,64
10.915,210,-4.2657,2.3902,-2.223,-0.5792,0.4096,-0.2561,93,10.747,207,2.4944,-1.9525,-15.8409,-0.956,0.0741,-0.0911,91,10.951,211,-4.3977,4.8752,-7.5295,-0.1073,0.1438,0.3649,97,11.368,219,-5.2368,0.2702,-2.7335,0.9791,-0.3421,0.4207,64
10.967,211,-5.5379,-0.9093,-4.2283,-1.133,0.1581,-0.4495,93,10.798,208,3.1175,-1.1557,-14.0485,-0.0274,-0.0252,-0.2545,91,11.003,212,-4.3695,3.1632,-4.2177,0.2874,0.1439,-0.1091,97,11.42,220,-6.1502,0.1701,-1.8539,0.3891,-0.8087,0.3145,64
11.019,212,-4.3464,-3.0945,-4.7383,-0.1855,-0.1222,0.3546,93,10.851,209,1.4275,-0.7772,-13.645,-0.1005,0.1512,-0.4181,91,11.054,213,-5.6074,3.5929,-3.076,0.4759,-0.015,-0.2026,97,11.472,221,-7.0472,-0.49,-7.0404,-0.3159,-0.2522,0.4856,64
11.071,213,-2.9142,5.1825,-4.4176,0.5061,-0.0509,0.9439,93,10.902,210,0.592,-0.5183,-12.6125,0.3586,-0.232,-0.3226,91,11.106,214,-7.3467,4.1796,-0.8941,0.6635,0.2038,-0.3058,97,11.523,222,-2.3955,-4.462,-4.5547,-0.5573,-0.7361,0.1634,64
11.123,214,-2.3807,8.0998,-4.8776,0.2216,-0.4532,0.3815,93,10.954,211,3.7797,-0.6949,-11.5788,0.4055,-0.8412,-0.065,91,11.158,215,-2.667,7.5716,-3.8125,-0.1691,-0.457,0.4327,97,11.575,223,-3.0066,-1.0324,-7.2162,-0.2446,0.1737,0.3579,64
11.174,215,-1.0143,7.4857,-4.2707,-0.5486,-0.6974,-0.1947,93,11.006,212,7.974,-0.2054,-16.4012,0.6929,-1.2858,-0.0055,91,11.21,216,-2.3022,4.0151,-8.173,0.2022,0.0677,0.525,97,11.627,224,-0.8304,0.7081,-5.085,0.3778,0.8376,0.5966,64
11.226,216,-1.3288,7.7723,-3.1896,-0.6309,-0.5617,-0.2461,93,11.058,213,11.0353,-1.3636,-15.8966,-0.0117,-0.3389,0.2491,91,11.262,217,-0.8757,-0.2435,-5.9512,-0.1464,0.7954,0.9554,97,11.679,225,-5.4697,-0.4509,-9.3986,0.7557,1.3222,0.4525,64
11.278,217,-1.4142,8.6092,-2.0813,-1.0507,-0.4188,-0.3342,93,11.11,214,7.0005,-2.0689,-14.3403,-0.1895,0.4326,0.4909,91,11.313,218,-2.9495,1.5753,-8.7924,-0.0685,1.3266,0.7254,97,11.731,226,-6.1973,-0.3815,-7.5012,1.2225,0.7034,0.3466,64
11.33,218,-1.6981,3.8523,-2.2032,-0.319,-0.0869,0.0771,93,11.161,215,0.7989,-2.0957,-14.5033,0.0533,-0.0785,0.2618,91,11.365,219,-7.3145,2.8922,-6.7102,0.0669,0.7291,0.293,97,11.782,227,-5.9394,-0.9037,-5.6139,1.4116,-0.0441,0.3544,64
11.381,219,-1.9234,0.1578,-7.1268,-0.9431,-0.4126,-0.5655,93,11.213,216,2.649,-1.0513,-13.9151,0.7093,-0.7292,0.5592,91,11.417,220,-6.3986,2.0262,-3.8115,-0.0675,0.4009,0.0382,97,11.834,228,-7.0157,-0.4971,-4.2479,0.9449,-0.5787,0.3923,64
11.433,220,-2.0886,-2.5386,-6.1684,-0.0469,-0.2305,0.139,93,11.265,217,1.8301,0.7223,-13.0378,0.571,0.1477,0.4314,91,11.469,221,-7.7414,2.2706,-3.0026,0.3342,0.0655,-0.1396,97,11.886,229,-7.2809,-0.3456,-8.7876,0.0517,-0.5261,0.5911,64
11.485,221,-2.7931,2.3814,-5.5604,0.6072,-0.1338,0.3728,93,11.317,218,1.0216,-0.7824,-13.2154,-0.0906,0.0748,0.1367,91,11.521,222,-8.7449,2.9508,-1.6565,0.4477,-0.1126,-0.2845,97,11.938,230,-2.5661,0.5381,-11.1021,-0.5003,-0.4719,-0.0222,64
11.537,222,-3.4976,7.1315,-5.9289,0.7466,-0.1696,0.1239,93,11.369,219,2.8073,-0.4571,-11.6609,0.1603,-0.5906,0.0375,91,11.572,223,-3.6874,-2.6604,3.9237,-0.2486,-0.688,0.2174,97,11.99,231,-0.3112,2.4781,-11.6203,-0.294,-0.1751,0.2458,64
11.589,223,-2.6493,7.1112,-5.6521,-0.1282,-0.6739,-0.311,93,11.42,220,7.2643,-0.8433,-16.3362,0.559,-1.1029,0.0402,91,11.624,224,-2.3398,-1.6994,-0.4704,-0.1817,-0.2892,-0.0946,97,12.041,232,2.5207,2.6595,-8.7371,0.4305,0.5831,0.5544,64
11.64,224,-2.2899,8.5687,-4.0775,-0.154,-0.9844,-0.3517,93,11.472,221,10.5172,-0.3305,-15.7585,-0.2698,-0.7817,0.3907,91,11.676,225,0.9873,-1.5367,-2.8405,-0.5102,0.5349,0.2487,97,12.093,233,3.3996,1.5279,-9.409,0.6771,1.1365,0.5776,64
11.692,225,-1.6744,8.127,-2.7276,-0.8227,-1.2161,-0.4458,93,11.524,222,8.6673,-0.9691,-14.9281,-0.8535,0.1094,0.3326,91,11.728,226,1.0445,-0.6703,-4.6849,-0.587,1.1364,0.8343,97,12.145,234,-0.4923,0.6662,-7.0585,0.478,0.2407,0.339,64
11.744,226,-0.6217,4.9079,-1.3534,-0.7161,-1.3279,-0.5035,93,11.576,223,0.9529,-2.0116,-16.6734,-0.0129,0.5195,0.3365,91,11.78,227,-3.8969,0.4953,-3.3368,-0.0202,1.5754,0.5178,97,12.196,235,-2.1793,0.9392,-4.8364,0.226,-0.415,0.3365,64
11.796,227,-1.0834,0.9282,-5.9316,-1.2329,-1.7034,-1.0331,93,11.628,224,3.1903,-0.2393,-16.5196,0.6609,-0.2927,0.1398,91,11.831,228,-4.5449,0.3551,-1.8033,-0.6592,0.5441,0.4705,97,12.249,236,-3.6005,0.576,-3.7998,-0.0412,-0.7979,0.4103,64
11.848,228,1.5783,-1.9763,-6.31,-0.7656,-1.6002,-0.436,93,11.679,225,1.5253,-0.6315,-15.7066,-0.199,0.4663,-0.1259,91,11.883,229,-5.8697,1.5164,-1.1555,-0.216,0.3274,-0.0562,97,12.3,237,-5.0087,-0.2243,-1.433,-0.5516,-0.8987,0.4643,64
11.899,229,1.1174,1.8719,-6.3999,0.0827,-0.7253,0.2117,93,11.731,226,0.9773,-2.4199,-13.6312,-0.5091,-0.2237,-0.5883,91,11.935,230,-6.2961,1.2581,-0.0892,-0.1409,-0.0344,-0.3083,97,12.352,238,-0.9078,1.509,-4.5458,-1.0405,-1.2968,0.587,64
11.951,230,-0.0025,5.8392,-4.7009,-0.2505,-0.8538,0.2102,93,11.783,227,0.9724,-2.3077,-12.5777,0.0844,-0.3479,-0.4179,91,11.987,231,-4.9413,2.4269,5.1334,0.5956,-0.5086,-0.9208,97,12.404,239,2.0853,-3.3082,-6.3039,-0.489,-0.5865,0.6866,64
12.003,231,-0.4079,6.7767,-4.4019,-0.7084,-1.0183,-0.0297,93,11.835,228,5.9251,-0.0648,-14.3583,0.6371,-0.9257,-0.2818,91,12.039,232,-0.9115,6.9763,2.8459,0.287,-0.6982,-0.3513,97,12.456,240,4.2698,-2.5037,-5.6534,-0.1083,0.2828,1.2478,64
12.055,232,0.221,7.2969,-3.0296,-0.7455,-1.0651,-0.0724,93,11.887,229,9.5398,2.1963,-13.7461,-0.216,-0.73,0.4588,91,12.09,233,2.0297,5.5946,-0.8469,-0.1365,0.2014,0.1953,97,12.508,241,4.7762,-4.3874,-4.9134,0.2128,0.9173,1.0072,64
12.107,233,-0.2316,8.345,-2.8766,-0.6829,-0.9692,0.0073,93,11.938,230,9.3501,1.4936,-13.2549,-0.839,0.1471,0.6328,91,12.142,234,4.1763,8.3934,-1.9851,0.0187,0.893,0.6758,97,12.559,242,-3.7975,1.4977,-4.9504,0.5138,1.3731,0.9502,64
12.158,234,-0.5369,7.386,-2.1717,-1.1397,-1.0113,-0.0144,93,11.99,231,1.4512,-1.5422,-16.3638,-0.0159,0.7873,0.7511,91,12.194,235,-3.4761,5.9799,-1.0345,0.5431,1.3977,-0.1707,97,12.611,243,-5.2098,1.6575,-4.288,1.0889,0.3717,0.8069,64
12.21,235,-1.9838,2.7369,-7.1039,-1.5421,-0.3841,-0.1259,93,12.042,232,2.5902,0.0983,-15.7355,0.6587,-0.0973,0.6153,91,12.246,236,-3.944,4.3123,-1.547,-0.2488,0.4144,-0.2534,97,12.663,244,-5.2228,1.3027,-3.211,1.1767,-0.3696,0.4405,64
12.262,236,-0.6558,-0.6563,-10.7035,-0.6349,-0.9085,0.3685,93,12.094,233,2.9746,1.54,-13.7793,-0.1203,0.5948,0.3406,91,12.297,237,-2.9561,3.8129,-0.7632,0.2141,-0.3033,-0.8518,97,12.715,245,-5.8879,0.8329,-1.1928,0.9254,-0.9106,0.291,64
12.314,237,0.0345,-0.9701,-8.3643,0.1763,-0.874,0.6256,93,12.146,234,-0.2579,-1.0122,-14.6388,-0.7692,0.283,0.1317,91,12.349,238,-4.9733,3.0966,1.2414,0.5329,-0.7434,-1.0873,97,12.767,246,-1.5494,3.346,4.0311,0.0376,-1.3055,0.1931,64
12.365,238,-0.2669,4.7274,-5.2172,0.7701,-1.1838,0.9269,93,12.198,235,-0.7091,-0.3011,-15.5171,-0.3573,-0.4653,0.06,91,12.401,239,-8.0814,5.4314,-2.8173,1.0874,-0.8104,-1.365,97,12.818,247,1.0582,0.5925,-2.7452,0.1108,-0.5798,0.0528,64
12.417,239,-0.5114,6.5036,-4.4906,0.6437,-1.168,0.6477,93,12.249,236,4.6978,-5.5915,-17.215,0.4096,-1.0114,-0.5294,91,12.453,240,-3.2032,9.7389,-3.099,0.7591,-1.1972,-0.6864,97,12.87,248,3.1777,-0.8561,-4.7611,0.3741,0.2876,0.3594,64
12.469,240,0.1194,7.8248,-4.8241,0.8081,-0.9549,0.5195,93,12.301,237,8.6441,-2.9207,-18.6181,0.9693,-0.8433,-0.375,91,12.505,241,0.3571,9.8754,-3.2324,0.516,-0.8568,-0.1051,97,12.922,249,4.0278,-1.6208,-3.8035,0.8678,0.9208,0.4006,64
12.521,241,-0.1067,8.8741,-4.1796,-0.0089,-0.8711,0.4852,93,12.353,238,9.5472,1.1224,-15.4859,0.5956,0.0644,-0.0129,91,12.557,242,0.1517,7.0036,-2.8008,0.6121,0.012,0.2704,97,12.974,250,-4.8276,0.1808,-7.0723,0.2268,1.3829,0.5495,64
12.573,242,-0.6292,7.5404,-3.4526,-0.3385,-0.5713,0.4569,93,12.405,239,5.6136,1.3702,-14.2786,-0.2467,0.7269,-0.0323,91,12.608,243,-3.7975,5.2679,-2.4032,0.4414,0.7547,0.1433,97,13.026,251,-5.7743,0.0025,-5.7896,0.8795,0.5199,0.5542,64
12.624,243,-0.8096,2.8496,-7.0976,-0.3243,0.0769,0.0251,93,12.457,240,1.7212,-1.4861,-16.1279,-0.8326,0.5203,-0.0808,91,12.66,244,-4.9101,5.5361,-1.8585,0.1553,-0.0549,0.0462,97,13.077,252,-5.2743,0.0737,-3.7988,0.4538,-0.2603,0.3867,64
12.676,244,-6.1951,-0.574,-10.699,-0.947,0.55,0.2254,93,12.509,241,2.8782,0.5614,-15.417,0.0627,-0.2382,-0.3597,91,12.712,245,-5.4153,3.4678,-0.0154,0.4851,-0.0756,-0.3605,97,13.129,253,-6.7658,-0.5669,-2.2145,-0.0481,-0.4572,0.3656,64
12.728,245,-4.437,1.986,-9.6284,-0.0497,-0.4274,0.7318,93,12.56,242,0.2503,-0.176,-14.4349,-0.6357,-0.0141,-0.1807,91,12.764,246,-6.6344,3.0584,1.1021,0.3483,0.0958,-0.0882,97,13.181,254,-5.8958,0.593,-7.3035,-0.6557,0.3253,0.4911,64
12.779,246,-2.278,6.7276,-7.5993,0.0106,-1.0516,1.0307,93,12.612,243,1.6187,-0.9032,-12.5479,-0.338,-0.6821,-0.2654,91,12.816,247,-12.2149,8.007,-4.5861,0.7906,0.8159,0.019,97,13.233,255,-1.5552,-4.2718,-9.1805,-0.6172,0.0859,0.7022,64
12.831,247,-2.0415,9.4961,-6.9976,-0.141,-0.8425,0.6974,93,12.664,244,6.0695,-1.2418,-12.8585,0.2048,-1.1677,-0.5585,91,12.867,248,-6.5683,10.2018,-4.7702,0.6381,0.5194,-0.5007,97,13.285,256,0.7437,-4.7253,-9.0839,-0.4258,0.7735,0.7576,64
12.883,248,-1.3674,9.7114,-6.5737,-0.7999,-1.0656,0.028,93,12.716,245,9.6454,1.3389,-15.817,0.8198,-0.3743,-0.8621,91,12.919,249,-2.0989,11.8638,-5.0144,0.6157,0.7623,-0.1656,97,13.336,257,2.1489,-3.2396,-6.8562,0.4031,1.2755,0.4787,64
12.935,249,-0.9205,10.1637,-3.5313,-1.2861,-1.2224,-0.424,93,12.768,246,11.3345,0.4562,-13.5199,0.1376,0.3757,-0.4168,91,12.971,250,1.1631,11.1643,-4.0514,0.2839,1.2452,0.5264,97,13.388,258,-6.2737,-0.7087,-5.7159,0.2083,1.1985,0.5039,64
12.987,250,-1.0443,6.1868,-3.5728,-0.6265,-0.6627,-0.1983,93,12.819,247,5.1888,-0.7603,-13.3727,0.0166,0.9541,-0.932,91,13.023,251,-3.6628,8.882,-8.2674,0.5431,1.6548,0.1985,97,13.44,259,-6.6348,0.2442,-4.1706,0.866,0.3618,0.5129,64
13.038,251,-0.7975,3.5362,-3.6355,-0.0124,-0.68,0.07,93,12.871,248,3.484,-1.0451,-14.3232,0.6817,0.0245,-0.841,91,13.075,252,-3.9749,7.3366,-5.7178,0.3546,0.602,-0.0936,97,13.492,260,-6.4546,-0.0459,-3.2159,0.6403,-0.2586,0.2813,64
13.09,252,-2.4126,-0.0729,-8.1722,-0.7194,-0.095,0.0369,93,12.923,249,4.5208,0.8238,-12.3687,0.8717,0.0807,-0.734,91,13.126,253,-3.6652,6.1791,-3.1501,0.9572,0.3386,-0.6475,97,13.544,261,-6.9772,-0.5623,-2.4332,0.2787,-0.5177,0.1164,64
13.142,253,-1.9925,-2.7069,-7.8971,0.1164,-0.4181,0.712,93,12.975,250,1.5728,-0.1569,-12.5209,-0.0452,0.6187,-0.416,91,13.178,254,-5.3427,4.515,-0.8286,0.9829,0.0739,-0.5874,97,13.595,262,-6.1773,-0.678,-7.4632,-0.1371,0.1926,0.4001,64
13.194,254,-1.481,5.4973,-5.6915,0.7264,-0.7644,1.2047,93,13.027,251,1.2889,-0.5263,-12.0395,0.1297,-0.2179,-0.2495,91,13.23,255,-6.4383,5.0251,-4.775,0.7445,0.6066,-0.3388,97,13.647,263,-1.7606,-5.7976,-11.0019,-0.3135,-0.3104,0.7784,64
13.246,255,-2.3259,7.8034,-5.5019,-0.1801,-0.8582,0.9157,93,13.078,252,4.6357,-0.2687,-11.9501,0.0111,-0.8309,-0.0029,91,13.282,256,-6.4469,7.462,-4.3446,1.014,0.1749,-0.9309,97,13.699,264,-0.9364,-3.0488,-11.2235,-0.2329,0.4168,0.8417,64
13.297,256,-1.3088,8.2568,-5.6382,0.4808,-1.1074,0.4636,93,13.13,253,8.5987,0.3464,-13.6974,-0.0164,-0.3768,0.309,91,13.334,257,-3.7746,3.7074,-8.5613,0.2148,0.8736,-0.7244,97,13.751,265,0.6311,-1.6728,-8.5882,0.491,1.0151,0.6703,64
13.349,257,-1.2726,10.4729,-4.5237,-0.3581,-1.2279,0.0201,93,13.182,254,11.4911,-0.0298,-13.1613,-0.1941,0.2439,0.1861,91,13.385,258,-1.2041,1.0184,-5.8431,0.4283,1.3643,-0.0534,97,13.803,266,-4.6682,-1.2679,-11.9554,0.8576,1.4518,0.8042,64
13.401,258,-0.9153,8.4513,-3.3757,-0.9716,-1.221,-0.3762,93,13.234,255,5.899,-0.6082,-11.1851,-0.2407,0.8579,0.0551,91,13.437,259,-4.0674,1.0327,-5.7129,-0.3407,1.7417,0.5029,97,13.855,267,-4.74,-0.7148,-8.6232,1.3116,0.5421,0.6285,64
13.453,259,-0.2981,3.5144,-3.4467,-1.2884,-1.0931,-0.5438,93,13.286,256,2.0172,-1.5331,-12.5056,0.4947,-0.0455,0.1744,91,13.489,260,-4.5044,1.0456,-4.458,-0.8908,0.6654,0.2042,97,13.906,268,-5.0128,-0.4915,-6.2796,1.0252,-0.2452,0.5819,64
13.505,260,-0.4381,-0.0888,-8.0344,-1.3561,-0.4399,-0.8933,93,13.337,257,5.1213,0.6738,-11.8249,1.0314,-0.1038,0.0471,91,13.541,261,-1.4421,0.4092,-1.906,-0.0194,-0.0858,-0.4586,97,13.958,269,-6.0651,-1.3837,-4.4388,0.4935,-0.7194,0.6247,64
13.556,261,-3.0294,-2.7186,-7.4003,-0.3514,-0.5985,0.0331,93,13.389,258,3.1528,0.8761,-10.9597,0.0713,0.6041,0.0153,91,13.592,262,-4.0633,0.5279,-1.0483,0.5366,-0.2771,-0.5838,97,14.01,270,-8.6458,-1.9884,-3.0022,-0.2579,-0.3328,0.7423,64
13.608,262,-1.1844,2.8158,-5.5307,0.385,-0.545,0.4673,93,13.441,259,1.7861,0.0962,-11.3469,0.2242,0.3914,-0.1187,91,13.644,263,-6.5092,0.8624,0.7331,0.7713,0.2365,-0.5474,97,14.062,271,-3.5623,2.4096,2.7105,-0.8261,-0.8838,0.6894,64
13.66,263,-1.8019,7.0384,-5.372,-0.1354,-0.5722,0.6093,93,13.493,260,3.2398,-0.2509,-10.3355,0.2842,-0.376,0.1066,91,13.696,264,-2.0558,-4.1846,5.7335,0.3584,-0.4331,-0.081,97,14.113,272,-0.6853,2.2433,-2.9619,-0.1723,0.0078,0.8798,64
13.712,264,-0.6578,6.5966,-6.0123,-0.501,-1.1401,0.0775,93,13.545,261,7.5799,-1.527,-15.4043,0.0937,-0.9463,-0.2247,91,13.748,265,-2.3781,-3.5096,0.337,0.2875,-0.4504,-0.1534,97,14.165,273,2.2477,2.3341,-2.2927,0.5882,0.7166,0.902,64
13.763,265,-0.0458,9.1151,-4.3952,-0.1349,-1.0066,-0.0612,93,13.596,262,10.7475,-1.8372,-14.6457,-0.1746,-0.2378,0.135,91,13.8,266,0.9593,-5.0131,-1.2961,-0.1756,0.4173,0.3967,97,14.217,274,1.6655,0.2778,-3.8227,0.7435,1.2339,0.8573,64
13.815,266,-0.3339,8.052,-3.5674,-0.073,-0.9734,-0.3584,93,13.648,263,9.7233,-1.1631,-13.1151,0.5429,0.5064,-0.0517,91,13.852,267,3.3951,-0.6255,-1.4106,-0.6094,1.0506,0.9423,97,14.269,275,-3.1896,-0.0398,-3.922,0.563,0.347,0.5617,64
13.867,267,-0.4848,5.2704,-0.9529,0.5662,-0.8859,-0.3856,93,13.7,264,2.0382,-2.3339,-13.9357,0.2201,-0.0066,-0.1177,91,13.903,268,-3.0327,-0.4924,-0.6558,-0.0376,1.5128,0.0706,97,14.321,276,-3.4509,-0.0404,-2.8651,0.9624,-0.1981,0.5064,64
13.919,268,-1.9356,1.1928,-1.9976,-0.1897,-0.409,-0.8032,93,13.752,265,3.3722,-0.6579,-12.9287,0.7058,-0.6766,0.2903,91,13.955,269,-2.7907,-1.1376,-0.5549,-0.6645,0.4983,0.0823,97,14.372,277,-5.0699,0.0012,-2.4167,0.7048,-0.4052,0.4522,64
13.971,269,-1.1095,-1.7832,-2.1513,-0.1682,-0.4558,-0.2437,93,13.804,266,2.583,0.4937,-12.2386,0.1213,0.1819,0.2971,91,14.007,270,-4.8908,-0.007,0.1758,0.0185,0.4876,-0.3154,97,14.424,278,-7.1068,0.0789,-4.6646,-0.1235,-0.3842,0.6907,64
14.022,270,-1.6576,-1.8257,-1.8142,0.5184,-0.1689,0.1263,93,13.855,267,1.323,-0.7456,-11.9785,-0.5929,-0.3059,0.0657,91,14.059,271,-6.7185,0.8511,1.1864,0.3177,0.1185,-0.515,97,14.476,279,-2.439,0.4684,-4.5625,-0.5971,-0.0209,0.2361,64
14.074,271,-1.7853,4.8344,-2.2741,1.0198,0.0095,0.4939,93,13.907,268,3.2455,-1.2817,-11.3287,-0.2405,-0.3717,-0.2412,91,14.111,272,-2.2085,-0.3449,6.0644,0.5973,-0.5183,-1.0695,97,14.527,280,0.9678,0.9948,-0.6638,-0.4042,0.2237,0.5976,64
14.126,272,-1.9555,6.8819,-3.3335,0.034,-0.6972,0.0727,93,13.959,269,7.5841,-0.9602,-14.7558,0.0219,-0.9431,-0.6117,91,14.162,273,-0.8042,-2.2845,0.9692,0.1248,-0.3132,-0.5996,97,14.579,281,3.4542,0.8197,-1.494,-0.1516,0.8742,0.8606,64
14.178,273,-1.4579,8.0115,-3.3348,-0.274,-1.207,-0.2742,93,14.011,270,10.7506,-0.3866,-14.6238,-0.4932,-0.2052,-0.0304,91,14.214,274,2.108,-1.0777,-1.6592,-0.3131,0.4081,-0.007,97,14.631,282,5.2689,0.2217,-2.4188,0.1563,1.3489,0.7656,64
14.229,274,-1.1186,7.9554,-2.2167,-0.9103,-1.4814,-0.5446,93,14.063,271,11.1973,-0.7961,-13.0078,-0.6679,0.5302,0.1889,91,14.266,275,3.1423,-1.4568,-2.0772,0.1541,1.0439,0.4631,97,14.683,283,-3.8159,1.2906,-3.6517,0.828,1.4518,0.5962,64
14.281,275,-0.2564,5.1271,-0.4243,-1.3746,-1.4037,-0.3248,93,14.115,272,4.0514,-1.5138,-12.4021,-0.6168,1.0668,0.0085,91,14.318,276,-0.2143,-0.2284,-1.3777,0.1998,1.5079,0.3706,97,14.735,284,-4.5033,1.2354,-2.7569,1.3106,0.6184,0.4802,64
14.333,276,-1.0205,1.0882,-5.2202,-1.7136,-0.5539,0.0059,93,14.166,273,3.1751,-2.2308,-12.2194,-0.2046,0.396,0.2658,91,14.37,277,-3.067,1.6954,-1.5961,-0.4409,0.5127,0.2457,97,14.786,285,-4.9483,0.5589,-2.3004,0.6851,0.0097,0.3745,64
14.385,277,-0.5505,-1.8595,-9.3288,-1.6132,-0.6355,-0.2378,93,14.218,274,2.1487,-1.3949,-11.9746,0.521,0.5798,0.4217,91,14.421,278,-2.4699,0.2623,0.6487,-0.9751,-0.0752,0.2314,97,14.838,286,-7.0515,-0.3274,-1.9824,-0.1379,-0.2397,0.4425,64
14.437,278,-0.9908,-3.3391,-8.3177,-1.4316,-0.7748,-0.2922,93,14.27,275,1.5612,-0.4812,-11.8111,0.6774,0.3875,0.446,91,14.473,279,-4.8334,0.8099,0.8204,-1.0059,-0.2906,0.2603,97,14.89,287,-2.3986,4.938,3.4548,-0.6604,-0.8158,0.7079,64
14.488,279,-0.8123,-0.9966,-5.9924,-0.4034,-0.6194,0.4718,93,14.322,276,1.8308,-0.8147,-11.2247,0.2508,0.3864,0.3776,91,14.525,280,-8.7772,6.366,-4.7917,-0.2085,0.3826,-0.0309,97,14.942,288,0.9972,1.8641,1.3138,-0.426,-0.8871,0.6462,64
14.54,280,-2.018,4.9041,-4.585,0.3165,-0.0781,0.9863,93,14.374,277,5.4266,-0.7177,-11.8505,-0.4984,-0.3898,0.3301,91,14.577,281,-3.711,9.8581,-4.9182,-0.1499,-0.3096,0.295,97,14.993,289,3.4757,2.0467,-1.467,-0.031,-0.0448,0.8999,64
14.592,281,-1.1271,6.3434,-4.2189,0.3523,-0.5319,0.6538,93,14.425,278,9.176,0.1726,-13.3807,-1.045,-0.4108,0.9018,91,14.629,282,-1.591,9.4835,-8.98,-0.5524,0.4811,0.529,97,15.045,290,4.8358,2.4464,-1.6576,-0.0873,0.6782,0.9489,64
14.644,282,-0.8122,6.2846,-4.1751,0.2062,-0.7543,0.5274,93,14.477,279,11.91,-2.1039,-13.8666,-1.4441,0.38,0.6148,91,14.68,283,0.1629,6.903,-7.5325,-0.173,0.9892,0.761,97,15.097,291,-2.2412,1.9692,-6.8971,0.6502,1.2058,0.7096,64
14.696,283,-0.3927,6.5693,-3.0383,-0.0563,-0.9334,0.411,93,14.529,280,6.6582,-3.3509,-12.7136,-0.384,0.9573,-0.1186,91,14.732,284,-2.4496,5.6244,-6.8093,-0.2131,1.468,0.7521,97,15.149,292,-3.2964,1.1766,-5.42,1.1681,0.4255,0.5079,64
14.747,284,-2.6392,3.1907,-2.8401,-0.2157,-0.5316,0.466,93,14.581,281,1.8593,-2.8172,-13.7491,0.3901,0.3381,-0.2578,91,14.784,285,-5.6566,6.2234,-4.4384,-0.2101,0.6059,0.5519,97,15.201,293,-4.1667,0.8757,-3.7737,1.2044,-0.1067,0.3911,64
14.799,285,-4.359,-0.325,-7.2849,-0.735,-0.9523,-0.3266,93,14.633,282,3.2718,-0.4906,-12.8366,0.955,-0.2805,-0.0896,91,14.836,286,-4.2626,3.2228,-2.3652,-0.0973,-0.034,0.2077,97,15.252,294,-5.7611,-0.4222,-2.7574,0.4105,-0.3024,0.4017,64
14.851,286,-1.4021,-2.891,-6.927,-0.1544,-1.4804,-0.6886,93,14.684,283,1.0413,-0.6088,-12.5986,0.0156,0.3843,-0.0569,91,14.888,287,-5.8287,3.1082,-0.8562,0.3215,0.0287,0.0277,97,15.304,295,-4.8854,0.9954,-7.6998,-0.3382,0.3891,0.6255,64
14.903,287,-1.2637,-1.2715,-5.0961,0.5287,-1.3298,0.1825,93,14.736,284,1.5985,-2.2604,-12.1869,-0.475,-0.3825,-0.0211,91,14.939,288,-7.4034,3.5088,0.5207,0.8122,0.7042,0.0065,97,15.356,296,-0.8177,-2.4388,-5.7298,-0.2253,-0.3569,0.5612,64
14.955,288,-0.4975,7.0059,-2.853,0.4467,-1.1477,0.8183,93,14.788,285,5.2754,-2.0342,-11.3621,-0.2688,-0.951,0.1744,91,14.991,289,-2.7083,0.8954,5.5785,-0.0352,0.9162,-0.3532,97,15.408,297,-2.8496,-1.2334,-8.1382,-0.1138,0.3256,0.6175,64
15.007,289,-0.0751,7.7193,-3.0988,-0.3843,-1.0723,0.4632,93,14.84,286,9.0656,-0.6625,-13.8815,-0.1429,-1.366,0.4712,91,15.043,290,-2.5465,5.0862,-0.4303,0.3817,0.8583,0.1472,97,15.46,298,-1.2106,-0.0427,-6.0572,0.5397,0.9485,0.6818,64
15.058,290,0.3915,10.1617,-2.9269,0.361,-0.291,0.1608,93,14.892,287,11.8318,-2.0385,-13.4798,-0.7785,-0.317,0.4603,91,15.095,291,-0.5688,1.8773,-0.81,0.035,1.3724,0.7202,97,15.511,299,-4.2302,-0.5815,-6.0031,0.5157,1.4032,0.6522,64
15.11,291,-0.2718,10.9515,-2.58,-0.3157,-0.1403,-0.5494,93,14.943,288,5.7272,-2.5853,-12.0813,0.1022,0.4485,-0.0686,91,15.147,292,-1.8495,2.421,-3.1265,-0.3075,1.7477,0.7413,97,15.563,300,-5.2338,-0.9155,-4.6342,0.3988,0.3832,0.395,64
15.162,292,1.0572,5.3392,-3.3068,-0.9407,-0.1103,-0.9124,93,14.995,289,2.914,-2.0439,-12.0438,0.2179,-0.3445,-0.0271,91,15.198,293,-8.2696,3.5761,-4.0413,0.0695,1.8062,0.214,97,15.615,301,-5.4009,-1.3854,-3.9038,-0.1382,-0.3612,0.3916,64
15.214,293,1.7483,1.243,-7.9323,-1.1001,0.2893,-0.542,93,15.047,290,3.5616,-1.0934,-12.1814,0.7716,-0.2859,0.2914,91,15.251,294,-6.4081,1.521,-2.7205,-0.4226,0.7125,0.042,97,15.667,302,-5.8001,-1.3929,-3.2444,-0.4153,-0.9045,0.3969,64
15.265,294,-0.0288,-1.7466,-9.0455,-1.5132,0.2708,-0.0696,93,15.099,291,2.0785,-0.4683,-12.0083,0.2887,0.0104,0.2488,91,15.302,295,-7.5364,2.2963,-2.1838,-0.2393,0.2022,-0.3885,97,15.719,303,-7.3957,-1.5956,-8.0552,-0.8948,-1.2582,0.3246,64
15.317,295,-0.6047,0.2855,-6.8316,-0.4672,-0.4158,0.6242,93,15.151,292,1.8978,-1.2253,-11.289,0.0807,-0.0217,0.0435,91,15.354,296,-8.2543,4.702,-6.9843,0.3992,0.1628,-0.766,97,15.77,304,-2.6499,-3.9392,-3.3805,-0.6125,-1.5592,0.3147,64
15.369,296,-0.8028,5.0141,-5.1257,0.2639,-1.0781,1.1406,93,15.203,293,4.9161,0.1745,-10.7622,0.3485,-0.6877,-0.0846,91,15.406,297,-3.3294,5.8925,-7.693,-0.2983,0.5269,-0.917,97,15.822,305,-3.1355,-2.3925,-6.2691,-0.6157,-0.4271,0.5659,64
15.421,297,-0.0235,8.6389,-4.1854,-0.2049,-1.5497,0.9825,93,15.255,294,8.8033,1.8174,-12.7867,-0.4195,-0.6494,0.4684,91,15.458,298,-3.1234,4.1875,-10.4324,-0.5841,1.1306,-0.7959,97,15.874,306,-0.3029,-0.9803,-4.5516,-0.2085,0.3992,0.7058,64
15.473,298,1.4552,9.3894,-3.17,-0.8598,-1.2465,0.3715,93,15.306,295,11.6405,0.4903,-12.9538,-0.9876,0.0974,0.6778,91,15.51,299,-0.1325,1.0377,-9.3247,-0.7964,1.5712,-0.0248,97,15.926,307,1.0443,-0.2185,-8.143,0.5617,1.0022,0.5851,64
15.524,299,1.0556,7.6159,-3.2019,-0.6774,-0.544,0.1177,93,15.358,296,6.4413,-1.7088,-11.7555,-0.4923,0.751,0.5223,91,15.561,300,-0.4783,3.8621,-10.3126,-1.2258,1.8927,0.6378,97,15.977,308,-1.169,-0.339,-6.6167,1.1239,0.7407,0.7408,64
15.576,300,-1.2845,4.8955,-3.9388,-1.0944,-0.109,-0.0201,93,15.41,297,2.434,-2.0175,-12.4032,0.3069,-0.0571,0.3922,91,15.613,301,-5.4209,2.5245,-6.4347,-1.5202,2.1274,0.2343,97,16.029,309,-3.4105,-1.5807,-5.6955,1.3594,0.758,0.7504,64
15.628,301,-3.736,0.9192,-8.3935,-0.714,0.2085,-0.1147,93,15.462,298,3.7377,-0.6602,-12.11,0.8944,-0.5063,0.6541,91,15.665,302,-5.1002,2.0912,-5.4068,-1.1411,1.239,0.1924,97,16.081,310,-5.5519,-1.4068,-6.1289,1.3076,0.6058,0.6809,64
15.68,302,-5.1794,-1.9829,-11.2175,-0.9346,-0.2421,-0.1562,93,15.514,299,2.3095,-0.6881,-12.3737,0.5584,-0.2091,0.5839,91,15.717,303,-6.4277,2.5897,-4.1908,-1.0447,0.7705,0.199,97,16.133,311,-1.3042,1.3699,-3.8635,1.1244,0.8852,0.2894,64
15.731,303,-4.6122,0.262,-9.227,-0.0407,-1.0346,0.0378,93,15.565,300,2.9919,-1.9615,-11.8128,-0.1191,-0.7151,0.5715,91,15.769,304,-1.9963,-2.924,0.3176,-1.4158,-0.0434,0.7929,97,16.185,312,1.796,-4.1088,-3.4627,1.2688,1.0631,0.2263,64
15.783,304,-2.0368,5.057,-5.7702,0.2357,-1.6129,0.3365,93,15.617,301,7.399,-0.9518,-13.3009,0.5834,-1.1938,0.3551,91,15.821,305,1.238,0.9717,5.4303,-1.4059,-0.1776,0.8326,97,16.236,313,1.443,-4.7813,-2.1823,0.6139,0.6741,0.1909,64
15.835,305,-0.3045,7.7104,-4.1026,-0.3811,-1.3939,-0.3943,93,15.669,302,8.0385,-1.0267,-13.9708,0.1194,-0.61,0.5263,91,15.872,306,-0.72,1.0999,2.7601,-0.4985,0.0451,0.5294,97,16.288,314,0.862,-3.4061,-2.1619,0.3118,0.3086,0.2067,64
15.887,306,1.1754,6.2064,-3.26,-0.0781,-0.5235,-0.8416,93,15.721,303,9.3234,-2.4228,-11.5065,0.0816,-0.2819,0.4494,91,15.924,307,-1.2652,0.9024,1.2848,-0.3445,-0.0485,0.2018,97,16.34,315,0.9663,-2.3576,-2.14,0.2146,0.1177,0.2428,64
