right_hand_timestamp,right_hand_index,right_hand_accel_x,right_hand_accel_y,right_hand_accel_z,right_hand_gyro_x,right_hand_gyro_y,right_hand_gyro_z,right_hand_battery_percentage,left_hand_timestamp,left_hand_index,left_hand_accel_x,left_hand_accel_y,left_hand_accel_z,left_hand_gyro_x,left_hand_gyro_y,left_hand_gyro_z,left_hand_battery_percentage,right_leg_timestamp,right_leg_index,right_leg_accel_x,right_leg_accel_y,right_leg_accel_z,right_leg_gyro_x,right_leg_gyro_y,right_leg_gyro_z,right_leg_battery_percentage,left_leg_timestamp,left_leg_index,left_leg_accel_x,left_leg_accel_y,left_leg_accel_z,left_leg_gyro_x,left_leg_gyro_y,left_leg_gyro_z,left_leg_battery_percentage
0.811,15,10.8139,-2.2602,-10.2435,-1.8797,0.4595,-1.5493,91,0.023,0,8.0116,1.4612,-11.9477,0.0264,0.0006,0.0488,88,0.239,4,10.8973,-3.27,-9.01,-0.3836,-0.5743,0.3782,88,0.025,0,-11.1596,-1.8248,-9.6764,-0.1255,1.1834,-0.6961,52
0.863,16,9.1642,-6.8473,-12.2594,-2.0492,0.5485,-0.8531,91,0.075,1,8.0353,1.7383,-12.0024,0.2438,0.0127,0.0282,88,0.291,5,10.9289,-1.961,-9.9966,-0.4195,-1.0925,0.2712,88,0.077,1,-13.6174,-0.0206,-7.287,0.2944,1.5487,-1.1795,52
0.915,17,11.4568,-10.1952,-13.3207,-2.173,-0.268,0.054,91,0.127,2,7.9752,1.9545,-11.827,0.083,0.0162,0.1352,88,0.343,6,9.8995,-1.9094,-11.7784,-0.5251,-1.3621,0.3978,88,0.128,2,-15.4112,-3.6582,-7.7844,0.65,1.8153,-1.5322,52
0.967,18,13.418,-12.6386,-16.1248,-1.7295,-0.8649,0.7161,91,0.179,3,8.0987,1.8406,-12.0111,0.1223,0.0428,0.1628,88,0.395,7,9.445,-2.11,-12.7523,-0.5386,-1.1252,0.3822,88,0.18,3,-15.0243,-3.4402,-6.6303,0.4318,1.0294,-0.8342,52
1.018,19,14.8493,-10.3549,-14.8919,-0.6075,-1.3006,1.1993,91,0.231,4,7.8302,2.1359,-12.0488,0.3678,0.1225,0.0804,88,0.446,8,10.6513,-2.0603,-13.2899,-0.4226,-0.739,0.0572,88,0.232,4,-15.0251,-5.8499,-8.3248,0.9898,0.0845,0.0715,52
1.07,20,15.894,-4.5207,-9.0564,0.231,-1.2848,1.5519,91,0.282,5,7.3487,2.4843,-12.071,0.1093,0.1143,0.1514,88,0.498,9,13.0395,-0.8278,-11.6753,-0.2142,0.1272,-0.2219,88,0.284,5,-15.2019,-7.4925,-11.4233,1.1495,-0.6051,0.7325,52
1.122,21,12.5766,-4.1175,-7.27,0.6956,-0.397,0.9371,91,0.334,6,7.2911,2.4241,-12.1081,-0.4095,-0.0791,0.4977,88,0.55,10,11.0903,-2.114,-12.3213,-0.8316,0.3861,0.2587,88,0.336,6,-12.2698,-7.617,-12.9495,1.0568,-1.1084,1.1796,52
1.174,22,10.3405,-2.4344,-8.5531,1.182,0.025,0.5738,91,0.386,7,7.1337,2.2556,-12.1399,-0.735,-0.2303,0.7714,88,0.602,11,5.5164,-4.4426,-8.0428,-1.2821,0.193,-0.4763,88,0.387,7,-6.6856,-7.1101,-16.025,0.0943,-1.4758,1.3188,52
1.225,23,8.9254,0.6375,-9.5669,1.5371,0.2911,0.0655,91,0.438,8,6.8984,2.2332,-12.0575,-0.8236,-0.4138,0.8332,88,0.654,12,4.1344,-3.6486,-5.8498,-0.2592,0.4203,0.1882,88,0.439,8,-2.6262,-5.4605,-18.3383,-0.1001,-1.4516,1.4542,52
1.277,24,7.2319,0.4003,-11.0726,1.6306,0.4776,-0.4173,91,0.49,9,8.0926,2.3789,-11.8954,-0.9321,-0.62,1.0214,88,0.706,13,3.2565,-0.906,-5.602,-0.1346,0.7273,0.284,88,0.491,9,-3.8913,-6.8586,-18.9265,0.6016,-0.6981,1.7417,52
1.329,25,6.0641,0.8081,-12.4395,1.8644,0.1741,-0.9797,91,0.541,10,8.8761,2.5965,-11.3918,-1.2697,-0.6,1.0545,88,0.757,14,-0.7222,1.366,-12.0935,-0.3183,0.1385,-0.1858,88,0.543,10,-5.9866,-6.3589,-16.3369,1.1138,0.1754,1.0176,52
1.381,26,3.2859,1.044,-12.5052,1.4881,0.3492,-1.3901,91,0.593,11,10.7204,1.3574,-11.1698,-1.5898,-0.4536,0.7276,88,0.809,15,0.4691,2.7781,-16.8312,-0.6584,-0.5723,-0.7839,88,0.595,11,-6.5102,-3.1336,-13.4155,1.4876,0.3893,0.1667,52
1.432,27,3.259,-4.0002,-12.9288,0.4087,-0.0443,-1.6897,91,0.645,12,12.1104,-0.9333,-9.6697,-0.5791,0.348,0.2477,88,0.861,16,5.3339,0.6055,-14.9419,-0.1609,-0.6576,-0.8199,88,0.647,12,-4.6855,3.0051,-7.1835,0.7465,-0.0114,-0.5497,52
1.484,28,3.2946,-8.1172,-7.918,0.6888,-0.0214,-1.9083,91,0.697,13,13.758,-1.4345,-8.7071,-0.5543,0.9228,0.2838,88,0.913,17,9.1586,0.4287,-14.8046,0.3397,-0.9615,-0.7124,88,0.699,13,-8.8923,-1.897,-8.0205,0.8938,0.5122,-0.667,52
1.536,29,7.4609,-3.1452,-3.1877,1.1771,-0.685,-1.3217,91,0.749,14,14.9604,-2.2634,-10.7835,-0.2751,1.3526,0.2157,88,0.965,18,9.7072,0.0916,-15.5067,0.0281,-1.1396,-0.6661,88,0.751,14,-10.2772,0.1302,-9.5857,1.0609,0.4453,-0.0938,52
1.588,30,7.7059,-1.7645,0.2646,0.3799,-0.0467,-1.3417,91,0.8,15,13.0121,-1.4981,-13.5101,0.4709,1.6663,0.0269,88,1.016,19,8.367,0.1873,-15.6265,0.2074,-1.4409,-0.7111,88,0.802,15,-9.6384,0.7519,-8.3856,0.0972,-0.0913,0.3031,52
1.64,31,7.3524,-0.0953,-0.8193,0.4948,0.6484,-1.4542,91,0.852,16,9.6735,0.8216,-14.1269,0.2659,1.4385,0.245,88,1.068,20,7.6076,0.2534,-14.7034,0.4791,-1.6569,-0.8769,88,0.854,16,-9.4445,2.2094,-8.1116,-0.6061,0.0128,0.3991,52
1.691,32,7.1995,1.2583,-2.1461,0.4481,1.1556,-1.7365,91,0.904,17,5.2699,0.8464,-13.3653,-0.486,0.7556,0.6802,88,1.12,21,5.8273,-0.8711,-13.8388,0.7369,-1.6221,-1.1167,88,0.906,17,-9.7227,1.9021,-7.0725,-1.1194,0.2548,0.0562,52
1.743,33,6.9991,0.8514,-4.0599,1.0014,1.5254,-1.9425,91,0.956,18,1.776,0.9272,-13.6737,-0.8616,0.2034,0.8863,88,1.172,22,4.8302,-1.3214,-13.3966,1.2144,-1.5258,-1.1636,88,0.958,18,-7.7773,-3.9086,-7.4791,-0.6069,0.5115,-0.618,52
1.795,34,7.6042,1.0747,-5.8112,1.0812,1.3134,-2.0928,91,1.008,19,0.6839,1.4667,-14.8069,-0.2884,-0.1076,0.1728,88,1.224,23,4.9205,-0.9935,-14.6279,1.258,-0.9197,-1.1456,88,1.009,19,-9.9708,-2.3708,-9.048,-0.2389,1.0583,-0.9478,52
1.847,35,5.3258,-0.1193,-6.1088,1.4635,0.6484,-2.2025,91,1.06,20,-0.4341,2.1127,-13.4743,0.2642,-0.5108,-0.5602,88,1.275,24,7.9133,0.4323,-16.9938,1.0871,-0.3794,-0.5555,88,1.061,20,-10.9158,-1.8542,-9.4318,-0.181,1.4404,-1.2725,52
1.899,36,4.4174,1.0049,-5.6113,1.7425,-0.1769,-2.2811,91,1.111,21,-2.692,1.697,-12.3477,0.8441,-0.5339,-0.8271,88,1.327,25,10.6328,1.6999,-19.6063,0.7423,-0.1261,-0.0479,88,1.113,21,-12.54,-2.0282,-9.6438,-0.4445,1.3567,-1.5699,52
1.95,37,4.095,2.6195,-9.2043,1.9461,-0.7984,-1.7836,91,1.163,22,-2.3865,2.9276,-12.9193,1.2878,-1.0624,-0.7088,88,1.379,26,10.7837,2.3573,-20.5758,0.4658,0.049,0.004,88,1.165,22,-10.2457,-3.449,-10.7306,-0.7234,1.177,-1.7177,52
2.003,38,5.4006,5.5845,-9.9621,1.5619,-1.2509,-0.6449,91,1.215,23,3.1775,4.3345,-17.3689,1.1672,-0.0963,-0.3118,88,1.431,27,9.3295,1.9679,-19.9655,0.2426,0.3494,-0.1408,88,1.217,23,-10.9873,-4.5176,-10.9904,-0.9166,0.9769,-1.5623,52
2.054,39,7.8453,5.3334,-9.6942,1.7895,-1.3634,0.206,91,1.267,24,7.2383,4.9639,-18.1561,0.1719,-0.6426,-0.9139,88,1.483,28,8.788,0.6973,-17.6003,0.0516,0.8102,-0.0996,88,1.268,24,-11.2585,-7.0727,-9.2322,-0.6101,1.241,-0.4999,52
2.106,40,8.9747,5.1794,-7.1666,1.748,-1.0563,0.827,91,1.319,25,6.9644,-1.6379,-16.8702,-0.5546,0.2101,-1.2881,88,1.534,29,4.6186,-0.2768,-18.2268,0.1978,1.2697,-0.1884,88,1.32,25,-13.6896,-5.84,-7.7319,0.2294,1.395,0.2069,52
2.158,41,8.9283,5.3978,-7.1565,1.9502,-0.6284,1.2345,91,1.37,26,5.6505,-1.145,-13.6576,0.267,-0.3299,-1.3882,88,1.586,30,2.8605,0.8484,-17.8527,0.6994,1.605,-0.1731,88,1.372,26,-14.7004,-0.1612,-3.0354,-0.0783,0.9126,-0.4943,52
2.21,42,8.2145,8.8969,-6.7676,0.9261,0.1048,1.3677,91,1.422,27,2.2296,-1.8025,-14.6368,-0.3598,0.2243,-0.8057,88,1.638,31,0.4938,1.56,-14.8128,0.2719,1.8498,-0.1915,88,1.423,27,-14.2172,1.942,-2.8915,0.329,-0.0007,0.2738,52
2.262,43,3.7288,9.3046,-8.031,1.2739,0.7589,1.0501,91,1.474,28,0.0306,0.644,-13.1136,-0.1757,-0.5058,0.0637,88,1.69,32,-1.0093,2.4675,-11.6182,-0.23,2.0284,-0.0815,88,1.475,28,-9.7402,-2.1602,-7.1864,0.9148,-0.6673,0.8801,52
2.313,44,3.1079,7.1152,-10.0589,0.6154,0.5007,0.2713,91,1.526,29,4.9416,2.8844,-15.1957,-0.4445,-1.0418,0.3295,88,1.741,33,0.346,2.4545,-9.3952,-0.8328,2.1588,0.2007,88,1.527,29,-8.9006,-6.8734,-11.0285,1.3423,-1.1147,1.3227,52
2.365,45,5.8695,5.3468,-11.7596,0.0251,0.325,-0.1432,91,1.578,30,6.5266,6.5776,-15.1153,0.3473,-0.0813,-0.4459,88,1.793,34,5.5183,0.9454,-11.2083,-0.8348,2.2539,0.321,88,1.579,30,-10.1237,-10.3133,-14.7063,0.3026,-0.4665,0.3632,52
2.417,46,9.3401,6.382,-14.358,0.6927,0.4688,0.0324,91,1.629,31,3.7273,10.1275,-12.0868,-0.2872,0.5201,-0.7859,88,1.845,35,9.2932,-2.5529,-13.8514,0.0161,2.3198,0.3866,88,1.631,31,-7.4459,-10.4253,-14.0403,-0.4562,-0.3677,-0.1536,52
2.468,47,7.1559,6.6543,-14.8886,0.5475,0.7522,0.4031,91,1.681,32,5.3,12.7183,-12.6598,-0.8897,0.4397,-1.0622,88,1.897,36,12.0484,-2.331,-7.5253,0.6871,2.2973,0.0604,88,1.682,32,-8.4311,-8.5862,-12.5488,-0.6162,0.0094,-0.518,52
2.52,48,7.6985,8.6032,-15.7171,0.4822,1.1555,0.4907,91,1.733,33,8.7874,14.6092,-14.4204,-1.3293,-0.1873,-0.5981,88,1.949,37,9.9249,-1.3811,-5.7214,0.1014,2.3266,0.7151,88,1.734,33,-10.3134,-6.9227,-12.1596,-0.5926,0.2848,-0.7012,52
2.572,49,8.8249,9.52,-17.5737,0.3654,1.1134,0.1245,91,1.785,34,9.1377,13.5865,-18.4645,-1.6502,0.5424,-0.5928,88,2.001,38,9.5127,-1.7056,-4.9327,-0.6012,1.5487,0.7901,88,1.786,34,-10.4187,-6.3388,-11.6583,-0.4543,0.3908,-0.8091,52
2.624,50,9.7878,8.3839,-19.3634,0.7764,0.1809,-0.5025,91,1.837,35,3.9066,4.6552,-21.416,-1.4776,0.9994,-1.0778,88,2.053,39,8.7564,-4.0134,-6.9977,-0.0376,1.0581,0.8212,88,1.838,35,-10.6074,-5.9107,-11.5558,-0.3142,0.3432,-0.9016,52
2.676,51,9.9617,8.2914,-19.7547,0.2636,-0.5373,-0.6851,91,1.888,36,2.5773,-1.8632,-21.2976,-1.0458,0.0568,-0.4642,88,2.104,40,7.0809,-2.2129,-6.45,0.4282,1.3226,0.6434,88,1.89,36,-9.8602,-5.5616,-10.7325,-0.2828,0.296,-0.9965,52
2.727,52,8.9655,5.067,-18.1514,-0.4272,-1.0615,-0.7781,91,1.94,37,6.4441,-5.0986,-20.1976,-0.0916,-0.6312,0.3266,88,2.156,41,6.4009,-3.4237,-5.5579,-0.2957,1.1899,0.9378,88,1.941,37,-9.1172,-5.8669,-10.2473,-0.3899,0.2504,-1.0968,52
2.779,53,8.2657,3.8867,-15.307,-0.4123,-1.4441,-0.7301,91,1.992,38,9.6224,-3.5985,-19.0014,0.6049,-1.1334,0.9037,88,2.208,42,9.9374,0.067,-3.2396,0.4607,0.2089,0.2215,88,1.993,38,-9.2793,-5.585,-10.5312,-0.6126,0.2545,-1.1858,52
2.831,54,7.564,2.9864,-13.0221,-0.8895,-1.4871,-0.4344,91,2.044,39,11.9421,0.7422,-16.7573,1.1132,-1.387,1.3249,88,2.26,43,8.0319,-0.6744,-2.5054,0.5684,-0.5209,0.1077,88,2.045,39,-10.208,-5.1292,-10.5705,-0.8569,0.3165,-1.2306,52
2.883,55,6.7795,1.4375,-10.4142,-1.3266,-1.2528,0.0019,91,2.096,40,13.1928,5.8685,-10.453,1.4386,-0.6836,1.6324,88,2.311,44,11.1278,1.3206,-4.9126,0.5884,-0.6081,0.0758,88,2.097,40,-10.6447,-5.2922,-11.3318,-1.1355,0.3287,-1.1113,52
2.935,56,6.426,0.9345,-8.4472,-1.108,-0.7554,0.6191,91,2.147,41,14.5479,8.9782,-11.4882,1.7217,-0.2814,0.505,88,2.363,45,10.3983,0.6064,-6.1725,0.3274,-1.0695,0.0076,88,2.149,41,-12.6821,-3.4904,-10.1336,-1.1935,0.5954,-0.9407,52
2.986,57,7.5547,0.1312,-6.8558,-1.3707,-0.0155,1.1285,91,2.199,42,13.6481,4.4371,-12.0082,1.4887,0.3888,-0.3178,88,2.415,46,10.5234,0.6435,-7.7877,0.0267,-1.4446,0.0839,88,2.2,42,-14.528,-6.4791,-9.2903,-1.5481,0.7069,-0.6824,52
3.038,58,10.5701,-1.9223,-5.529,-0.9587,0.5777,1.5003,91,2.251,43,12.6738,3.9969,-12.7049,1.3169,0.3108,-0.9183,88,2.467,47,9.4557,-0.2459,-9.4429,-0.254,-1.5435,0.3195,88,2.252,43,-16.0758,-7.555,-11.31,-1.4011,0.8074,0.1823,52
3.09,59,12.7708,-6.6007,-9.439,-0.0788,0.8093,1.7716,91,2.303,44,12.5496,3.0727,-14.3988,0.9562,0.047,-1.3566,88,2.519,48,9.9004,-0.9873,-10.0438,-0.4106,-1.3031,0.4431,88,2.304,44,-15.674,-10.0202,-14.2937,-0.3479,0.0182,0.8134,52
3.142,60,14.377,-6.5409,-14.8855,0.6168,0.6355,1.9696,91,2.355,45,11.773,3.3986,-15.005,1.2892,-0.5026,-1.6765,88,2.57,49,9.8581,-1.9605,-11.335,-0.4233,-0.9213,0.3424,88,2.356,45,-14.3339,-10.8979,-13.1182,0.2798,-0.1785,1.274,52
3.194,61,12.7483,-1.7083,-18.2663,1.1246,0.054,2.1142,91,2.406,46,12.7899,3.4138,-16.0651,0.9936,-1.0395,-1.9099,88,2.622,50,11.7253,-2.0947,-12.0569,-0.2926,-0.5095,-0.1435,88,2.408,46,-12.6809,-11.878,-13.3072,0.6362,-0.7971,1.6102,52
3.245,62,10.8844,2.4716,-17.0335,0.6609,-0.3301,1.5338,91,2.458,47,13.3156,3.0218,-14.0127,0.0452,-1.1048,-1.6294,88,2.674,51,13.8234,-1.7626,-8.7907,-0.5998,0.3065,0.0396,88,2.459,47,-10.3121,-9.905,-13.2782,0.3926,-1.2485,1.3515,52
3.297,63,8.8032,3.6678,-15.0054,-0.0948,-0.1543,0.4578,91,2.51,48,12.126,1.7075,-11.4059,0.4707,-0.9199,-1.466,88,2.726,52,10.5353,-1.7398,-11.7393,-1.1129,0.1731,0.0012,88,2.511,48,-4.6394,-7.7077,-13.4706,-0.0051,-1.578,1.068,52
3.349,64,5.8996,2.8551,-14.8634,-0.7226,0.0767,-0.341,91,2.562,49,10.6537,3.0251,-9.2468,1.0152,-0.612,-0.7846,88,2.778,53,4.4198,-6.5068,-5.9838,-1.4875,-0.0532,-0.3666,88,2.563,49,-1.8023,-4.6888,-14.4652,-0.6808,-1.8185,0.9929,52
3.401,65,4.0832,1.9718,-14.1457,-1.2048,-0.005,-0.924,91,2.614,50,8.5538,4.4995,-8.5139,0.4361,-0.5779,0.0927,88,2.829,54,3.4307,-3.0578,-5.7783,-0.4164,0.6396,-0.1994,88,2.615,50,-0.5689,-3.5537,-15.0473,-0.9413,-1.6848,1.0774,52
3.453,66,2.8728,0.6812,-12.92,-1.2115,-0.0998,-1.3495,91,2.665,51,9.5146,6.5529,-9.0782,-0.3618,-0.6466,0.7331,88,2.881,55,2.6471,0.1265,-5.3651,-0.9252,1.1451,0.0236,88,2.667,51,-0.7338,-2.9565,-15.3323,-0.7709,-1.3473,1.3195,52
3.504,67,2.0903,-0.4352,-11.7552,-1.435,-0.0316,-1.4088,91,2.717,52,8.5487,7.5851,-7.6721,-0.2921,-0.4516,1.2004,88,2.933,56,2.7294,1.576,-7.7323,-0.178,1.2731,0.0045,88,2.718,52,-2.477,-2.8424,-14.8227,-0.278,-0.5779,1.6322,52
3.556,68,1.3349,-0.633,-10.9767,-1.3138,0.3843,-1.1906,91,2.769,53,9.0853,7.3798,-6.7838,-0.8932,-0.5646,1.5415,88,2.985,57,-2.34,-0.6281,-3.0593,-0.0892,0.5937,0.2461,88,2.77,53,-7.2804,-4.3971,-15.4866,0.4718,0.2632,1.4381,52
3.608,69,6.0306,-0.831,-12.161,-0.8928,0.4968,-1.3561,91,2.821,54,11.5501,3.9236,-6.9294,-1.3319,-0.7234,1.7904,88,3.037,58,3.5579,-2.4751,-4.4188,-0.0201,0.0549,-0.1565,88,2.822,54,-9.0967,-8.506,-8.6951,1.019,-0.1368,0.3782,52
3.66,70,9.4577,-4.4213,-12.8292,-0.1478,0.2622,-1.6601,91,2.873,55,13.349,4.1829,-10.2064,-0.7545,-0.6698,1.9721,88,3.088,59,2.4767,0.3513,-9.1423,0.4926,-0.1625,-0.7814,88,2.874,55,-12.1118,-11.5048,-9.0491,0.0894,0.2245,-0.0738,52
3.712,71,11.959,-5.0369,-12.1644,0.5665,-0.4779,-1.3715,91,2.925,56,14.153,1.6461,-13.5884,-0.5834,0.1903,1.9581,88,3.14,60,5.5508,0.3898,-10.0742,0.3243,0.454,-0.7305,88,2.925,56,-14.3124,-9.433,-10.8618,-0.0582,0.3838,-0.3647,52
3.763,72,11.477,1.7138,-11.0378,0.6457,0.2336,-1.0318,91,2.976,57,12.0933,1.1383,-13.9195,0.246,0.8179,1.0626,88,3.192,61,5.9082,0.074,-11.1995,0.3667,0.4424,-0.6124,88,2.977,57,-13.4786,-7.6788,-10.1919,-0.1252,0.0043,-0.042,52
3.815,73,10.4359,0.5519,-10.7345,-0.2061,0.5066,-0.8461,91,3.028,58,7.6719,0.6652,-13.0657,0.8512,1.1005,0.82,88,3.244,62,7.4883,0.6633,-11.5991,0.1676,0.3821,-0.5097,88,3.029,58,-12.8138,-4.8226,-9.8871,-0.5097,-0.3105,0.2051,52
3.867,74,8.1868,0.2134,-10.736,0.1473,0.536,-1.0071,91,3.08,59,2.5598,1.0064,-12.9068,0.8148,1.2861,1.2638,88,3.295,63,6.7311,0.6354,-12.2831,0.1186,0.2831,-0.4622,88,3.081,59,-11.9925,-2.5162,-9.1072,-1.0145,-0.3436,0.3256,52
3.919,75,6.8698,-0.0033,-10.5103,0.5525,0.2973,-1.1586,91,3.132,60,0.7994,1.6158,-13.7568,0.1113,0.9327,1.5878,88,3.347,64,6.9376,1.0202,-12.8745,0.0513,0.1534,-0.472,88,3.133,60,-11.5439,-1.5493,-8.458,-1.4175,-0.1552,0.0553,52
3.971,76,6.4335,-0.5767,-10.0387,0.7063,0.1377,-1.1844,91,3.184,61,0.8503,1.7266,-13.955,0.1201,0.2063,1.8242,88,3.399,65,7.3526,1.2263,-12.8469,0.1452,-0.0508,-0.4747,88,3.184,61,-11.4385,-1.7632,-7.5348,-1.179,0.1117,-0.621,52
4.022,77,6.4735,-0.7275,-9.5218,0.6027,0.1494,-0.95,91,3.235,62,0.6862,2.3299,-13.7639,0.7587,-0.2868,1.7525,88,3.451,66,9.365,0.6934,-11.8902,0.0695,-0.598,-0.6418,88,3.236,62,-11.554,-1.4545,-8.1378,-1.3362,0.4181,-1.1061,52
4.074,78,8.3207,-1.4599,-7.5012,-0.0722,0.3786,-0.2605,91,3.287,63,0.3853,2.4168,-13.5792,1.2254,-0.5979,1.2854,88,3.503,67,12.1007,-0.3027,-10.9044,-0.0076,-1.1098,-0.9157,88,3.288,63,-9.0948,-3.2828,-9.4729,-1.1048,0.6826,-1.3284,52
4.126,79,11.1291,-2.1852,-4.4203,-0.7253,0.9587,0.4865,91,3.339,64,-0.6068,3.1651,-14.8459,1.5661,-1.1091,0.6003,88,3.555,68,11.6508,-0.5768,-14.4082,0.671,-1.4834,-1.0428,88,3.34,64,-10.913,-2.9209,-9.898,-0.9932,0.8834,-1.3806,52
4.178,80,13.1788,-5.2214,-0.635,-1.1994,1.3822,1.0317,91,3.391,65,4.4764,5.0127,-18.7746,1.8147,-1.4821,-0.2482,88,3.606,69,12.3024,-1.0411,-15.047,0.0295,-1.4067,-0.8459,88,3.392,65,-6.6828,-5.5571,-10.3115,-0.9077,0.8505,-1.3799,52
4.229,81,14.6748,-9.0085,1.6513,-1.1512,1.6912,1.4297,91,3.443,66,8.1863,2.7281,-17.5971,1.2277,-1.7544,-0.3923,88,3.658,70,11.0087,-0.4497,-15.9219,0.5587,-0.9115,-0.3322,88,3.443,66,-8.4508,-4.4939,-11.2686,-0.8489,0.747,-1.2884,52
4.281,82,15.7666,-10.4593,-1.2895,-0.1844,1.9167,1.7201,91,3.494,67,10.894,3.3849,-14.6465,1.3134,-1.9531,-0.7892,88,3.71,71,10.3497,0.6452,-16.3186,0.7123,-0.0811,-0.2879,88,3.495,67,-8.7757,-5.1754,-11.6847,-0.5033,0.8614,-1.0461,52
4.333,83,15.4988,-4.9235,-4.9149,0.5398,2.0813,1.932,91,3.546,68,12.8701,3.0696,-11.3753,0.8268,-1.875,-0.5806,88,3.762,72,9.9706,-0.1456,-14.6759,0.3401,0.6192,-0.1886,88,3.547,68,-10.6037,-4.9265,-12.9506,-0.281,0.5203,-0.4797,52
4.385,84,16.368,1.7965,-11.5836,1.0683,1.0981,0.7968,91,3.598,69,11.7012,2.7942,-10.182,0.7373,-0.9736,-0.6883,88,3.814,73,6.7222,-1.1922,-13.8856,0.2123,1.1303,0.0138,88,3.599,69,-13.2117,-4.2558,-8.189,0.0822,0.2044,0.3026,52
4.437,85,17.0024,6.7011,-16.4507,0.492,0.5974,-0.0936,91,3.65,70,9.6876,2.2199,-9.9666,0.3711,-0.0918,-0.6723,88,3.865,74,3.9482,-0.9725,-13.6365,0.413,1.5033,0.1682,88,3.651,70,-14.9717,-2.3527,-8.5666,0.7347,0.8124,-0.4506,52
4.488,86,17.4654,1.0604,-19.0744,0.4622,-0.2333,-0.7434,91,3.702,71,7.6014,1.5301,-10.4794,0.23,0.5486,-0.5091,88,3.917,75,3.2863,-0.3755,-13.2211,0.0496,1.7755,0.5117,88,3.702,71,-10.9655,1.8044,-7.7661,-0.1244,0.3893,0.0234,52
4.54,87,17.8033,-4.4238,-16.444,1.0117,-0.8396,-1.2177,91,3.754,72,5.7531,1.2047,-11.2381,0.39,0.7951,-0.3317,88,3.969,76,3.4244,0.1874,-12.9362,-0.1046,1.9742,0.9267,88,3.754,72,-9.6151,3.1975,-8.5417,-0.7679,-0.3827,0.6974,52
4.592,88,16.9242,-4.3453,-11.9113,1.3588,-1.2821,-1.5638,91,3.806,73,4.6674,0.1988,-13.9667,0.9468,0.6395,-0.2729,88,4.021,77,3.6796,1.659,-12.5061,-0.296,2.1192,0.9749,88,3.806,73,-7.1814,-1.4619,-12.2183,-0.3841,-0.9461,1.1893,52
4.644,89,15.2976,-3.0725,-9.8742,1.6661,-1.6051,-1.8165,91,3.857,74,5.1549,5.3048,-18.1333,1.3627,-0.2042,-0.586,88,4.073,78,6.5979,-0.243,-13.0383,0.4605,1.8517,0.5915,88,3.858,74,-10.7139,2.9617,-13.1154,0.3944,-0.0055,0.1966,52
4.696,90,16.2211,-0.9162,-6.0981,1.8904,-1.8408,-1.8362,91,3.909,75,2.6857,9.1985,-21.1743,0.3153,-0.8217,-0.6121,88,4.124,79,10.0812,-1.6757,-15.632,1.0126,0.9585,0.5014,88,3.909,75,-11.5881,5.0828,-8.0008,0.0629,-0.0405,-0.5279,52
4.747,91,14.0535,4.3366,-3.7616,0.7997,-0.6611,-1.5545,91,3.961,76,6.8794,12.0404,-23.3938,-0.4499,-1.2724,-1.1331,88,4.176,80,8.4848,4.1289,-19.4138,1.0777,0.1364,-0.0857,88,3.961,76,-10.8592,2.0675,-9.8201,-0.1956,0.5078,-1.047,52
4.799,92,15.1323,4.1675,-5.4953,0.8328,0.1998,-1.2926,91,4.013,77,9.9401,14.1144,-25.0136,-1.0084,-1.6013,-1.5134,88,4.228,81,11.4583,-0.8586,-17.7429,0.1113,-0.4758,0.4471,88,4.013,77,-12.7567,-1.3775,-10.8392,-0.327,1.0556,-1.287,52
4.851,93,16.1005,4.7483,-11.4482,-0.0695,0.8282,-0.2668,91,4.065,78,12.174,8.622,-26.1959,-1.416,-0.4896,-1.7513,88,4.28,82,13.5728,-1.1476,-16.0672,0.6275,-1.0099,0.7655,88,4.065,78,-10.5979,-3.4245,-12.7915,-0.2589,1.2074,-0.9741,52
4.903,94,15.2814,6.6117,-14.8656,0.4096,1.2869,0.482,91,4.116,79,11.1578,1.9099,-27.0587,-1.7135,0.3217,-1.8406,88,4.332,83,11.7634,-1.7306,-13.515,0.1865,-0.9723,0.8252,88,4.117,79,-9.3023,-3.7726,-14.1084,-0.1231,1.0026,-0.5887,52
4.955,95,12.3376,9.4609,-15.865,0.5986,0.8685,0.7502,91,4.168,80,12.9169,-3.8669,-27.3493,-0.5788,0.7399,-0.9303,88,4.383,84,11.0583,-1.5369,-11.7638,0.2868,-0.775,0.5517,88,4.168,80,-8.9678,-3.8273,-14.6363,-0.0303,0.5973,-0.2583,52
5.006,96,11.5053,8.4462,-15.2109,-0.1993,0.6284,0.4485,91,4.22,81,13.748,-3.0781,-26.6692,0.2493,1.2191,-0.0136,88,4.435,85,10.6125,-1.3345,-10.0836,0.1615,-0.655,0.4493,88,4.22,81,-9.3834,-4.3138,-14.1084,0.0158,0.22,-0.0064,52
5.058,97,10.5182,6.1839,-13.6682,-0.1023,0.0745,-0.1159,91,4.272,82,13.6266,0.8422,-27.4042,0.8537,1.5688,0.6554,88,4.487,86,9.7604,-1.0573,-10.011,0.0332,-0.6915,0.3538,88,4.272,82,-9.0181,-4.5791,-13.6215,-0.0988,-0.0418,0.1549,52
5.11,98,9.5932,4.1271,-12.1993,0.4874,-0.5364,-0.5617,91,4.324,83,11.9015,5.9415,-27.1993,1.0194,1.8241,1.1438,88,4.539,87,9.3677,-1.3217,-9.5815,-0.0739,-0.701,0.2848,88,4.324,83,-8.8817,-4.5785,-13.2452,-0.2502,-0.1248,0.2184,52
5.162,99,8.906,2.6799,-10.9319,0.9447,-0.8281,-0.6997,91,4.375,84,8.0998,8.1645,-25.8007,0.2646,2.0104,1.5001,88,4.591,88,9.2022,-1.2616,-9.4581,-0.0195,-0.8546,0.2028,88,4.375,84,-9.3661,-4.9004,-12.8771,-0.3135,-0.0961,0.2178,52
5.214,100,9.3014,1.5707,-9.8045,0.9351,-0.8845,-0.7076,91,4.427,85,7.1949,8.9325,-23.7901,-0.4661,1.4309,1.7602,88,4.642,89,9.209,-1.1181,-9.448,0.0909,-0.7598,0.1356,88,4.427,85,-9.4636,-4.9942,-13.1705,-0.3375,-0.0483,0.2588,52
5.265,101,9.3268,-0.1701,-9.0823,0.8275,-0.7173,-0.4662,91,4.479,86,10.1704,10.9474,-21.3428,-0.6507,1.6113,1.9501,88,4.694,90,8.8211,-1.6652,-9.5427,0.2441,-0.7314,0.2829,88,4.479,86,-9.765,-4.1414,-13.102,-0.2941,-0.0475,0.2706,52
5.317,102,9.1478,-1.1795,-8.5679,1.2751,-0.4301,-0.1282,91,4.531,87,8.8342,11.9594,-17.2226,-1.1549,1.1508,2.0886,88,4.746,91,8.8986,-1.8094,-9.311,0.2031,-0.6108,0.2249,88,4.531,87,-9.9951,-3.4134,-13.1614,-0.4539,-0.0715,0.2293,52
5.369,103,9.1897,-1.7045,-8.7004,1.605,-0.1249,0.0508,91,4.583,88,10.5336,9.2727,-15.4957,-1.5229,0.1672,2.1898,88,4.798,92,9.1266,-1.7904,-9.3739,0.1579,-0.5289,0.2067,88,4.583,88,-9.7491,-2.6178,-13.1275,-0.7608,0.0011,0.1286,52
5.421,104,9.4851,-1.5319,-8.9948,1.8458,0.2575,0.0817,91,4.634,89,12.6071,8.6454,-14.5838,-1.7915,-0.424,2.2636,88,4.849,93,9.1976,-1.9134,-9.3228,0.106,-0.5029,0.1971,88,4.634,89,-9.2748,-2.8774,-13.8435,-1.2323,0.0932,0.1118,52
5.472,105,9.9518,-1.4088,-9.4651,2.0215,0.594,0.0931,91,4.686,90,11.692,3.6233,-15.1536,-1.9876,-0.0457,1.0958,88,4.901,94,9.2673,-2.0773,-9.506,0.0811,-0.462,0.1163,88,4.686,90,-8.3998,-3.7615,-14.3783,-1.3157,0.0851,0.036,52
5.524,106,9.6963,-1.2647,-9.5993,2.1278,0.971,0.134,91,4.738,91,11.0699,0.7763,-15.2956,-0.7789,0.0192,0.1134,88,4.953,95,9.3664,-2.0891,-9.6079,0.0936,-0.4059,0.0399,88,4.738,91,-8.057,-3.7824,-15.9637,-1.6373,0.0266,-0.0357,52
5.576,107,10.0627,-1.8423,-10.3772,2.2274,1.0449,0.1271,91,4.79,92,10.3243,0.2284,-14.5326,0.1033,0.2212,-0.6036,88,5.005,96,9.4803,-2.1921,-9.7044,0.1481,-0.3662,-0.0557,88,4.789,92,-8.2271,-3.0711,-16.9632,-1.8721,-0.2146,-0.1132,52
5.628,108,10.4582,-1.5273,-11.383,2.2982,0.8927,0.2678,91,4.842,93,9.6949,-0.2172,-13.3022,-0.4131,0.0295,-0.3579,88,5.057,97,9.5492,-2.1255,-9.8528,0.3361,-0.27,-0.162,88,4.842,93,-8.6255,-2.7164,-16.5411,-2.0434,-0.658,-0.1833,52
5.68,109,8.9513,-1.0022,-11.629,2.3517,0.5552,0.3007,91,4.893,94,8.6603,-0.615,-12.5759,-0.9815,-0.2438,0.299,88,5.108,98,9.5085,-1.7591,-9.5816,0.7356,-0.2439,-0.264,88,4.893,94,-8.9556,-2.5901,-13.9975,-2.1684,-1.147,-0.2611,52
5.731,110,8.1952,-1.1414,-11.5573,2.3907,-0.0449,0.0446,91,4.945,95,8.5787,-2.0555,-12.866,-1.081,-0.2261,0.7542,88,5.16,99,9.468,-1.9774,-9.5377,0.894,-0.2925,-0.3925,88,4.945,95,-9.0106,-3.5765,-12.3951,-2.2597,-1.504,-0.0831,52
5.783,111,7.9533,-1.1505,-11.2177,2.4192,-0.4113,-0.0895,91,4.997,96,9.3912,-2.0558,-13.0144,-0.123,-0.0047,0.7015,88,5.212,100,9.2921,-1.6153,-9.9887,0.9342,-0.1638,-0.4947,88,4.997,96,-9.5508,-0.7923,-10.4331,-2.3263,-1.4853,0.0198,52
5.835,112,7.9775,-0.8651,-10.8789,2.1971,-0.3785,0.0267,91,5.049,97,8.6562,-0.4482,-13.0663,0.582,0.5088,0.3389,88,5.264,101,8.5266,-0.5604,-10.3699,1.2843,-0.0608,-0.5538,88,5.049,97,-9.5894,2.7407,-10.4569,-1.0251,-1.2887,0.1445,52
5.887,113,8.0297,-1.1883,-10.2534,1.4675,-0.1134,0.3986,91,5.101,98,8.466,0.645,-12.8375,1.0965,0.8057,0.2065,88,5.316,102,9.6972,-1.6349,-10.1172,1.6139,-0.0421,-0.6621,88,5.101,98,-9.7912,3.7913,-8.9047,-1.0541,-0.8064,-0.2005,52
5.939,114,9.1683,-1.5453,-9.0138,1.6135,-0.2056,0.7471,91,5.153,99,7.7478,0.0005,-13.5379,0.6832,0.6388,0.6693,88,5.367,103,9.9558,-2.299,-10.2545,1.8544,-0.1408,-0.6286,88,5.152,99,-10.3418,1.856,-9.519,-0.774,-0.6338,-0.3635,52
5.99,115,9.6313,0.0417,-7.6683,1.8519,0.0391,0.7967,91,5.204,100,7.2023,0.0008,-13.9554,0.5736,0.2686,0.8668,88,5.419,104,9.1481,-4.1547,-11.5323,2.03,-0.5757,-0.147,88,5.204,100,-10.6728,1.0242,-9.2,-0.6437,-0.5757,-0.2685,52
6.042,116,9.6719,0.6461,-6.6923,1.8205,0.4923,0.6722,91,5.256,101,6.605,-0.1026,-13.984,1.0659,0.261,0.5656,88,5.471,105,8.3576,-2.449,-11.2915,2.1581,-0.4701,0.2327,88,5.256,101,-10.6408,1.08,-9.1088,-0.7069,-0.5871,-0.122,52
6.094,117,8.3551,0.0408,-6.8808,1.6858,0.8056,0.5686,91,5.308,102,6.5407,0.6585,-13.8417,1.4497,0.2082,0.0785,88,5.523,106,5.9356,-1.3112,-12.4958,2.1545,-0.0898,0.4951,88,5.307,102,-10.5434,2.431,-8.4922,-0.6832,-0.423,-0.5309,52
6.146,118,5.7193,-1.72,-8.3634,1.9047,0.6871,0.4894,91,5.36,103,7.0225,1.9177,-13.3094,1.7298,0.2071,-0.3651,88,5.575,107,6.2443,-0.257,-12.4862,1.2097,-0.5669,0.2186,88,5.359,103,-11.8001,1.4025,-8.3847,-1.0131,-0.097,-1.0113,52
6.197,119,4.3874,-2.4269,-11.1122,2.0645,0.2579,0.168,91,5.412,104,7.3433,2.8967,-12.561,1.928,0.0161,-0.7211,88,5.626,108,7.2259,-0.4978,-12.5556,0.6456,-0.8543,0.0429,88,5.411,104,-11.2711,1.3252,-8.6542,-1.3267,0.1462,-1.1689,52
6.249,120,5.05,-2.4959,-12.1591,1.7596,0.004,0.0308,91,5.463,105,9.1049,2.7087,-12.3595,1.5721,-0.1569,-1.1582,88,5.678,109,7.5696,-0.4633,-12.7115,0.3011,-1.1458,-0.1651,88,5.463,105,-9.9874,0.2974,-10.7858,-1.6453,0.5005,-0.5791,52
6.301,121,8.0987,-2.2618,-11.2825,0.608,-0.2255,0.4155,91,5.515,106,9.9288,0.0426,-11.6435,0.8301,0.2917,-1.3349,88,5.73,110,8.1256,-0.1304,-12.9465,0.088,-1.3362,-0.2613,88,5.515,106,-7.7139,0.3158,-11.3982,-1.2041,0.7119,-0.1763,52
6.353,122,10.8863,-3.6074,-8.6526,-0.2337,-0.1704,0.9769,91,5.567,107,8.3677,1.2084,-10.7676,1.2776,0.3439,-1.6607,88,5.782,111,8.1447,-0.0154,-14.2986,-0.0856,-1.4315,-0.4144,88,5.566,107,-11.1025,-5.0663,-7.4648,-1.0317,1.2046,-0.5875,52
6.405,123,12.7881,-5.525,-4.728,0.2182,0.4268,1.3896,91,5.619,108,7.5717,1.7399,-9.7511,1.5407,0.3643,-1.3973,88,5.834,112,9.1468,0.1265,-14.7818,-0.254,-1.2237,-0.7393,88,5.618,108,-2.9858,-4.3756,-11.263,-1.43,0.2173,-0.5424,52
6.457,124,14.3896,-9.2301,-3.2208,0.7539,0.9327,1.6908,91,5.671,109,8.1431,1.5301,-10.6214,1.0468,0.1382,-0.6222,88,5.885,113,10.2469,1.5995,-15.8399,-0.0333,-0.5486,-0.9498,88,5.67,109,-7.6091,-3.3804,-10.989,-0.8732,0.2023,-1.0508,52
6.508,125,13.4747,-8.859,-5.6534,1.2241,1.3373,1.9107,91,5.723,110,9.6583,1.1168,-11.8596,1.226,0.3737,0.0065,88,5.937,114,12.7444,2.0457,-13.7133,0.1147,0.2779,-0.8756,88,5.722,110,-8.3873,-4.334,-11.1005,-0.653,0.0877,-1.127,52
6.56,126,12.7876,-5.8416,-8.3641,1.0016,1.648,2.0711,91,5.774,111,9.3242,1.7053,-11.967,1.547,0.2674,0.0977,88,5.989,115,10.7341,-0.9818,-18.0135,-0.5915,0.7178,-0.4402,88,5.774,111,-11.5933,-3.8668,-10.2408,-0.467,-0.1333,-0.3981,52
6.612,127,9.9007,0.6158,-9.1293,0.4041,1.6568,1.6972,91,5.826,112,8.6767,1.7754,-12.1814,1.1844,0.4539,-0.0473,88,6.041,116,9.4504,-5.9536,-17.8905,-0.3739,-0.1495,-0.9953,88,5.825,112,-11.8441,0.2265,-9.0626,-0.0328,-0.4125,0.0857,52
6.664,128,6.9206,4.4998,-11.1082,0.9693,0.8889,0.5636,91,5.878,113,8.032,0.6893,-12.2538,1.0947,0.6505,-0.4249,88,6.092,117,2.5971,-9.5822,-16.2916,0.4036,0.4689,-0.6351,88,5.877,113,-13.9875,2.9462,-7.2174,-0.2992,0.0314,-0.517,52
6.715,129,8.784,3.9562,-12.8866,1.3818,-0.0206,-0.2638,91,5.93,114,6.732,-0.0059,-12.4488,1.4707,0.8857,-0.8521,88,6.144,118,3.9609,-8.9955,-14.959,0.9711,0.6836,-0.0058,88,5.929,114,-13.0536,0.473,-7.9785,-0.8955,-0.5024,0.073,52
6.767,130,6.3317,0.5801,-13.473,1.4585,-0.6843,-0.8676,91,5.982,115,5.8465,0.0442,-12.2981,1.7451,0.8558,-0.8883,88,6.196,119,5.6387,-5.5382,-12.6414,0.524,1.1712,0.5984,88,5.981,115,-9.2849,-0.82,-9.5525,-0.2178,-1.0335,0.7336,52
6.819,131,5.7659,-1.402,-11.6298,1.6884,-1.1688,-1.1666,91,6.033,116,5.5851,-0.0108,-12.5497,1.9454,0.7755,-0.1183,88,6.248,120,4.7048,-2.5406,-17.2311,-0.0365,1.3107,1.06,88,6.033,116,-4.3133,-0.3269,-10.2947,0.1887,-1.4211,1.2158,52
6.871,132,7.891,-2.1496,-8.764,1.1373,-1.5224,-0.6648,91,6.085,117,5.898,4.7572,-14.6666,2.0916,0.354,-0.309,88,6.3,121,5.501,0.9673,-14.4582,-0.3728,0.2832,1.1759,88,6.084,117,-1.0879,-0.3393,-12.336,-0.075,-1.5311,1.5677,52
6.923,133,10.8155,-0.4294,-6.8267,0.2757,-1.0378,0.0511,91,6.137,118,6.139,8.7989,-15.5655,2.1584,0.2496,-0.9119,88,6.352,122,7.9812,4.9291,-11.4035,-0.4978,-0.3693,0.2087,88,6.136,118,-2.463,-5.5444,-15.2303,0.5473,-1.1841,1.8245,52
6.974,134,12.9499,1.5376,-6.0157,-0.3953,-0.4192,-0.0245,91,6.189,119,9.3998,11.7487,-19.3002,0.8953,-0.4905,-1.3519,88,6.404,123,11.0908,3.6589,-11.2362,-0.6623,-0.9429,-0.5217,88,6.188,119,-7.2702,-9.3434,-8.508,0.9967,-0.2822,0.7857,52
7.026,135,13.1921,1.3211,-5.8829,-0.9659,-0.0712,-0.0991,91,6.241,120,11.7796,13.9015,-22.026,-0.0266,-1.0307,-1.6731,88,6.455,124,13.3603,-0.0533,-11.4195,-0.4334,-1.3616,-0.7337,88,6.24,120,-4.8501,-12.116,-13.0005,1.0642,0.141,-0.0052,52
7.078,136,14.6845,6.3541,-6.7227,-0.2266,0.0438,-0.306,91,6.292,121,13.5165,14.182,-24.0154,-0.6994,-1.1948,-1.9075,88,6.507,125,15.0167,0.0313,-14.7531,0.3602,-1.6671,-1.2095,88,6.292,121,-9.0124,-8.3543,-10.4426,0.5173,-0.1938,-0.6751,52
7.13,137,14.0068,2.7113,-7.2913,-0.043,0.3714,-0.7394,91,6.344,122,12.6096,5.0899,-25.4673,-1.1905,-0.3553,-2.0785,88,6.559,126,15.5653,-0.0361,-17.56,0.4077,-1.6482,-1.4882,88,6.343,122,-8.7121,-7.4354,-9.7815,0.0482,0.0804,-1.0724,52
7.182,138,14.7149,2.6325,-5.159,-0.3721,0.9535,-0.0839,91,6.396,123,9.3047,-1.546,-26.527,-0.9478,0.2247,-2.2034,88,6.611,127,13.8162,-0.6864,-19.8277,0.5612,-1.0626,-0.9531,88,6.395,123,-9.6846,-6.7236,-10.0744,-0.201,0.0241,-1.1365,52
7.233,139,15.7959,-1.6422,-3.7282,-0.8908,1.3783,0.6154,91,6.448,124,9.2872,-6.3891,-25.9398,-0.0201,-0.5087,-0.9427,88,6.663,128,10.0212,0.0253,-20.632,0.8125,-0.0972,-0.1715,88,6.447,124,-9.9425,-7.0652,-10.8496,-0.295,-0.252,-0.8177,52
7.285,140,15.4594,-1.0495,-6.3719,-1.3275,1.6884,1.1258,91,6.5,125,11.6975,-3.727,-26.8718,0.6571,-1.0439,-0.0227,88,6.714,129,5.2673,0.3816,-19.1434,0.7769,0.6074,0.3078,88,6.499,125,-12.0489,-6.9377,-7.4807,-0.4015,-0.4473,0.081,52
7.337,141,13.1701,4.624,-9.133,-1.6463,1.9147,1.349,91,6.552,126,13.4566,-0.3258,-27.5521,1.1513,-1.4346,0.6488,88,6.766,130,1.4561,0.6359,-17.6424,1.0533,1.1217,0.3137,88,6.551,126,-10.8359,-4.6014,-11.0407,-0.9701,-0.9044,0.6022,52
7.388,142,14.2494,2.8781,-9.6254,-1.8629,1.4807,0.3094,91,6.603,127,14.7404,5.0891,-24.4135,1.512,-1.7197,1.1389,88,6.818,131,0.1495,0.544,-15.5649,1.374,1.497,0.1724,88,6.602,127,-12.1389,-2.7679,-10.8713,-0.1674,-0.0528,-0.2319,52
7.44,143,15.4561,-0.4679,-8.8434,-0.6853,0.4113,-0.4493,91,6.655,128,15.6775,9.0411,-17.0975,1.7753,-1.8112,1.4966,88,6.87,132,1.0577,0.5065,-14.6242,0.8744,1.7709,0.2258,88,6.655,128,-7.2422,2.9952,-10.6125,0.1936,-0.0922,-0.1802,52
7.492,144,15.2756,-2.6021,-8.2392,-1.1775,0.2014,-1.003,91,6.707,129,14.7297,11.9254,-15.9479,1.9674,-1.1146,1.6174,88,6.921,133,2.7667,-0.1849,-13.9464,0.578,1.9709,0.4855,88,6.706,129,-4.6186,3.1752,-10.9351,-0.5358,-0.3501,0.5488,52
7.544,145,9.2007,-7.0783,-7.9458,-0.5022,0.8294,-1.4072,91,6.759,130,11.7597,14.0306,-16.8399,1.8287,-0.5488,1.8458,88,6.973,134,4.3061,-0.8605,-13.4282,1.0984,2.1168,0.801,88,6.758,130,-4.2698,1.0278,-11.5112,-1.0681,-0.4215,0.9826,52
7.596,146,5.8751,-9.3982,-8.2606,0.3079,0.8926,-1.2349,91,6.811,131,13.502,11.9416,-18.5776,0.9272,-0.6182,1.2753,88,7.025,135,6.6292,-1.2478,-11.6281,1.4782,2.0817,0.9664,88,6.81,131,-8.5889,-4.5466,-16.3826,-1.4566,0.3774,0.0458,52
7.647,147,8.9974,-10.6583,-10.2096,0.8991,0.1503,-0.8682,91,6.862,132,14.6538,12.3348,-17.8294,0.7016,-1.0864,0.2444,88,7.077,136,7.5845,-1.3773,-9.7263,0.4036,1.8578,0.8954,88,6.862,132,-9.3043,-5.4114,-11.3088,-0.8567,0.5283,-0.3214,52
7.699,148,8.6908,-10.2345,-10.8029,1.2997,0.1374,-0.0052,91,6.914,133,15.6142,14.3293,-19.0867,-0.1673,-1.4125,-0.508,88,7.129,137,10.7728,-3.2984,-6.9573,0.0708,1.0833,0.8371,88,6.914,133,-11.2918,-2.9285,-11.7793,-0.9461,0.9765,-0.5367,52
7.751,149,10.5204,-10.4131,-10.2775,1.2456,-0.4506,0.6728,91,6.966,134,16.3152,15.2179,-18.7632,-0.8021,-0.3518,-1.0571,88,7.18,138,13.1282,0.9733,-6.461,0.0669,0.8304,0.1964,88,6.965,134,-13.7139,-3.3689,-11.1543,-0.4668,1.3977,-0.9418,52
7.803,150,12.7346,-10.476,-5.8706,0.5412,-0.2146,1.1677,91,7.018,135,15.4399,14.9337,-15.5055,-1.2654,0.4223,-1.4579,88,7.232,139,9.1241,-1.0049,-12.7204,-0.6264,-0.0517,-0.2233,88,7.017,135,-15.4816,-3.7048,-9.3074,-0.7689,1.705,-1.3543,52
7.855,151,14.3505,-11.1683,-4.33,0.3467,-0.7641,1.5289,91,7.07,136,10.5386,12.4963,-18.0777,-1.6036,0.7526,-1.7504,88,7.284,140,8.1071,-0.2759,-12.6322,-0.4168,-0.7111,-0.1893,88,7.069,136,-16.7718,-6.0745,-9.8662,0.1135,1.9294,-1.6599,52
7.907,152,15.53,-12.1179,-4.8488,0.1842,-0.3877,1.7925,91,7.121,137,9.835,4.0349,-21.1337,-1.8504,0.3921,-0.6122,88,7.336,141,9.1816,-0.5321,-12.8166,-0.4583,-1.1924,-0.3913,88,7.121,137,-15.0191,-5.8109,-9.9412,-0.0295,1.4563,-1.626,52
7.959,153,15.0775,-9.4984,-4.79,0.213,-0.2475,1.9849,91,7.173,138,12.0277,2.6096,-21.4009,-0.6788,-0.3865,0.2186,88,7.388,142,9.9883,-0.5586,-13.2444,-0.5433,-1.3363,-0.2993,88,7.173,138,-13.3287,-9.0178,-15.2367,-0.1694,0.3961,-0.5064,52
8.01,154,11.711,-4.9488,-3.597,-0.2724,0.1617,1.2725,91,7.225,139,11.7654,5.798,-19.3218,0.1763,-0.6618,0.8249,88,7.439,143,10.2972,-0.8797,-13.9125,-0.4938,-0.9029,-0.3781,88,7.224,139,-10.823,-10.3208,-16.991,0.5511,-0.3777,0.3108,52
8.062,155,9.013,-1.4995,-2.1653,-0.748,0.5037,0.9204,91,7.277,140,9.0328,5.8271,-18.037,0.8004,-1.1406,1.2674,88,7.491,144,12.2038,-2.1315,-13.3426,-0.6164,0.0194,-0.3626,88,7.276,140,-8.9837,-12.2308,-17.7372,0.7695,-0.6769,0.9072,52
8.114,156,8.4161,0.4565,-3.0885,-0.4189,1.0501,-0.0033,91,7.329,141,7.4202,6.7629,-16.941,1.2559,-1.4347,1.5904,88,7.543,145,11.0347,-3.3327,-14.3417,-1.0968,0.454,-0.4473,88,7.328,141,-4.7301,-10.2652,-16.072,0.7351,-0.9749,1.3424,52
8.165,157,7.704,0.7265,-5.5105,-0.2533,1.4488,-0.6775,91,7.38,142,5.6187,7.4754,-17.7462,1.5883,-1.7164,1.8203,88,7.595,146,6.9067,-3.4469,-8.8885,-1.4757,0.3028,-0.3351,88,7.379,142,-0.0722,-7.0452,-15.0125,0.8692,-1.2912,1.6601,52
8.217,158,8.5303,0.8542,-8.2591,0.4895,1.7398,-1.1696,91,7.432,143,9.02,10.7828,-20.8918,1.831,-1.6603,1.1072,88,7.647,147,5.4142,-4.8903,-7.6153,-0.4669,0.5123,0.4096,88,7.431,143,1.8838,-4.7733,-14.209,0.3427,-1.6092,1.782,52
8.269,159,7.811,0.0224,-9.7342,1.0316,1.5812,-1.5287,91,7.484,144,8.7671,13.1966,-22.092,2.0081,-0.9672,0.8666,88,7.699,148,4.0228,-2.735,-6.8395,0.3358,0.4339,0.814,88,7.483,144,1.226,-3.457,-13.9986,-0.0871,-1.7726,1.8885,52
8.321,160,6.3459,3.0356,-12.0384,1.4273,0.5549,-1.7909,91,7.536,145,5.4015,14.9583,-20.8165,0.7855,-1.3786,1.2978,88,7.75,149,2.5109,0.1708,-6.5714,-0.4302,0.6356,0.7277,88,7.535,145,-1.3463,-2.0139,-15.1794,-0.7406,-1.4126,2.0586,52
8.373,161,6.715,2.5366,-12.9804,1.7161,-0.2643,-1.9822,91,7.588,146,7.9726,13.4831,-21.4411,0.275,-1.4419,0.2608,88,7.802,150,-0.6871,5.4765,-6.0042,0.3561,0.1284,0.7447,88,7.587,146,-5.6016,-5.5171,-14.2754,0.1342,-1.0013,2.068,52
8.424,162,9.9572,1.5983,-12.9879,1.6461,-0.8622,-2.0086,91,7.639,147,10.738,15.1674,-22.7925,-0.4793,-1.725,-0.496,88,7.854,151,3.0464,3.165,-7.1667,-0.0771,-0.0391,0.6441,88,7.638,147,-7.8112,-3.0368,-12.2836,0.481,-0.2042,1.4909,52
8.476,163,12.3235,-0.0288,-9.0352,1.8757,-1.2986,-1.7316,91,7.691,148,12.7563,16.3967,-23.1231,-1.0298,-1.4759,-1.0484,88,7.906,152,6.2275,1.6517,-9.5792,-0.2484,-0.6616,-0.1659,88,7.69,148,-8.1637,-5.2642,-11.2152,0.6779,0.2895,0.781,52
8.528,164,14.0506,2.4322,-5.1688,1.3866,-0.8768,-1.1594,91,7.743,149,14.2294,10.7987,-22.4233,-1.4316,-0.3981,-0.942,88,7.958,153,9.8108,1.7993,-11.0958,-0.3155,-0.9056,-0.7702,88,7.742,149,-11.4309,1.4501,-6.2347,0.1556,0.3517,-0.1014,52
8.58,165,14.8726,3.8842,-1.2787,0.3797,0.0342,-0.931,91,7.795,150,15.2833,4.2725,-22.2809,-1.0011,0.3885,-0.7479,88,8.009,154,12.4261,-2.028,-10.3293,-0.0932,-1.2052,-1.1572,88,7.794,150,-7.5142,-1.3693,-9.7294,0.3036,0.7126,-0.7454,52
8.632,166,15.911,7.8001,-0.7184,-0.4002,0.7074,-0.026,91,7.847,151,12.9349,0.1228,-22.9563,-0.0589,0.9627,0.1009,88,8.061,155,14.3349,-6.7171,-15.5436,0.6085,-1.553,-0.601,88,7.846,151,-9.5428,-1.7979,-10.2099,-0.1787,0.4527,-1.0684,52
8.683,167,16.4062,8.457,-1.5217,-0.5026,1.1987,0.6577,91,7.899,152,10.5692,-1.4083,-24.1624,0.6287,1.3817,0.7348,88,8.113,156,13.1005,-0.7743,-15.5265,-0.146,-1.7032,0.0775,88,7.897,152,-9.5521,-3.2592,-11.2357,-0.1295,0.1818,-0.7002,52
8.735,168,15.8207,6.456,-8.3497,0.3076,1.5573,1.1566,91,7.951,153,9.9945,-0.5231,-25.5746,0.5989,1.6875,1.2017,88,8.165,157,10.6417,-2.1823,-15.2849,-0.5283,-1.165,0.233,88,7.949,153,-11.3713,-1.9665,-8.6906,-0.3809,-0.1411,0.1693,52
8.787,169,11.052,4.7028,-13.3146,0.8989,1.2674,1.5208,91,8.002,154,9.9112,4.8821,-23.3739,-0.2429,1.4007,1.5424,88,8.216,158,7.4339,-1.5038,-12.9995,0.291,-0.1852,0.1302,88,8.001,154,-11.6915,-3.357,-9.0478,-0.9551,-0.1168,0.2115,52
8.839,170,5.7994,0.5979,-13.4298,1.3304,0.2557,1.7866,91,8.054,155,6.4864,6.1784,-20.6367,-0.8573,0.3505,1.7911,88,8.268,159,4.5722,0.3069,-10.2031,0.8889,0.5432,-0.4868,88,8.053,155,-13.6274,-1.5656,-7.873,-0.1807,0.5997,-0.517,52
8.89,171,4.6773,-0.606,-11.3188,1.4225,-0.4827,1.9806,91,8.106,156,5.1897,8.1108,-14.5521,-1.3057,-0.4169,1.9726,88,8.32,160,4.0646,-0.2485,-9.8342,0.5284,1.0748,-1.0003,88,8.105,156,-8.4127,1.357,-7.367,-0.0893,0.1562,-0.5747,52
8.942,172,5.2651,1.4097,-9.5544,1.3657,-0.8685,2.1221,91,8.158,157,8.7069,4.1958,-9.5903,-1.633,-0.9769,2.0929,88,8.372,161,4.64,1.2913,-10.0312,0.664,1.4628,-0.5879,88,8.156,157,-6.4733,6.0492,-6.1303,0.0804,-0.5407,0.1889,52
8.994,173,6.087,2.2055,-8.8945,1.3227,-1.2642,2.1054,91,8.21,158,11.2739,4.9423,-7.3175,-1.1504,-0.082,1.5602,88,8.424,162,6.8912,1.9409,-11.1907,0.1262,1.746,-0.2065,88,8.208,158,-5.7651,4.4553,-8.5853,-0.6184,-1.0101,0.8182,52
9.046,174,5.2974,3.3484,-7.08,1.5341,-1.1038,1.9147,91,8.261,159,12.5744,6.35,-6.9796,-1.0091,0.6192,0.825,88,8.476,163,9.5623,2.2281,-13.604,0.7687,1.9526,-0.0664,88,8.26,159,-0.5906,5.7511,-14.2471,-0.7935,-0.3902,0.1071,52
9.098,175,6.5752,4.396,-5.9725,1.7076,-1.3475,0.8872,91,8.313,160,14.0966,9.9614,-8.1318,-1.13,0.7562,-0.0842,88,8.527,164,8.8389,-0.3234,-17.9337,-0.0771,0.7517,-0.0943,88,8.312,160,-5.9036,6.2666,-10.4121,-0.9522,0.3001,-0.4907,52
9.149,176,9.8552,3.1632,-6.196,0.5689,-1.1715,-0.0276,91,8.365,161,15.2075,12.5971,-9.005,-1.5047,1.0738,-0.7479,88,8.579,165,7.6518,2.9831,-21.0937,-0.3626,-0.1248,-0.5679,88,8.364,161,-9.5821,6.4804,-8.777,-0.6883,0.904,-0.9569,52
9.201,177,12.2491,1.9996,-7.6511,-0.2622,-0.1801,-0.3816,91,8.417,162,16.0184,13.7119,-11.632,-1.7782,0.732,-1.2322,88,8.631,166,3.9488,2.1478,-17.7354,-0.7282,-0.2033,-1.0433,88,8.415,162,-10.8959,2.4112,-8.0338,-0.3217,1.3447,-0.8883,52
9.253,178,13.9962,1.7221,-11.8637,-0.8687,0.551,0.3982,91,8.469,163,16.6102,13.6574,-12.2691,-1.9779,1.0045,-1.5857,88,8.683,167,5.6113,0.7203,-15.6269,-0.4945,-0.7499,-0.7953,88,8.467,163,-12.9957,3.0985,-7.8517,-0.0064,1.3591,-0.6229,52
9.305,179,14.9095,2.4443,-13.9926,-1.0361,1.0846,0.9672,91,8.52,164,13.8217,7.7696,-14.9892,-2.1235,1.4122,-1.8437,88,8.734,168,7.1482,0.0502,-14.06,-0.3808,-0.8959,-0.4781,88,8.519,164,-10.6169,-0.4343,-11.4548,0.4757,0.3872,-0.0242,52
9.357,180,13.9506,1.8114,-14.0716,-1.4336,1.474,1.3826,91,8.572,165,10.7212,0.4098,-17.9033,-0.8785,1.7098,-2.032,88,8.786,169,8.1271,-0.0944,-12.7443,-0.0774,-1.0451,-0.4616,88,8.571,165,-11.3559,-4.126,-15.382,0.4265,0.105,0.3969,52
9.408,181,11.4204,1.6712,-13.15,-1.6424,1.4334,1.6857,91,8.624,166,12.744,-0.3432,-19.3786,0.0306,0.6604,-0.8176,88,8.838,170,7.59,-0.4315,-12.9203,-0.1119,-1.1671,-0.4176,88,8.622,166,-8.5463,-4.0271,-13.7089,0.3313,-0.5902,0.7759,52
9.46,182,8.2322,1.1985,-12.2077,-0.9791,1.0629,1.6912,91,8.676,167,12.5615,-0.7522,-17.288,0.694,-0.1907,0.0686,88,8.89,171,7.6508,-0.9359,-12.6989,-0.2266,-1.1533,-0.1786,88,8.674,167,-7.8743,-3.701,-15.0934,-0.1656,-1.0975,1.2466,52
9.512,183,5.315,1.0292,-11.2705,-0.279,0.5046,1.2381,91,8.728,168,11.9699,2.2152,-12.2084,1.1088,-0.5881,0.7155,88,8.942,172,8.0889,-0.6458,-12.7985,-0.2402,-1.2396,-0.137,88,8.726,168,-5.9176,-3.9463,-15.164,0.5305,-1.4678,1.5902,52
9.564,184,3.5509,0.5379,-10.3513,-0.1087,-0.139,0.4114,91,8.78,169,10.2891,2.6939,-8.1366,0.4003,-0.7653,1.1876,88,8.993,173,6.7854,-0.4902,-13.4814,-0.3517,-1.1575,0.0758,88,8.778,169,-4.1098,-3.3832,-15.5295,1.0618,-1.6672,1.8409,52
9.616,185,4.5355,-2.028,-9.0976,0.114,-0.7451,-0.3749,91,8.831,170,11.3742,3.788,-6.5763,0.7374,-0.9497,1.5321,88,9.045,174,7.8487,-0.5975,-13.8586,-0.5532,-1.1723,0.1545,88,8.83,170,-6.267,-4.8072,-14.4152,1.4489,-1.1861,2.0239,52
9.667,186,6.9237,-3.7691,-8.2547,0.7358,-0.2618,-0.5692,91,8.883,171,11.6249,5.7459,-6.1492,1.2099,-0.5534,1.7836,88,9.097,175,8.6465,-1.2586,-13.966,-0.7695,-1.1426,0.1277,88,8.881,171,-9.0502,-3.0761,-7.9131,1.7321,-1.309,0.8397,52
9.719,187,6.0562,-3.5395,-7.3537,-0.1121,0.1581,-0.5251,91,8.935,172,13.4036,9.2407,-7.6104,0.8907,-0.4624,1.9671,88,9.149,176,9.7751,-1.6946,-13.7336,-1.0671,-1.2928,0.0339,88,8.933,172,-8.6157,-6.3516,-9.3226,0.6161,-1.3574,0.3904,52
9.771,188,5.7723,-6.0668,-6.3138,-0.7592,0.2663,-0.6781,91,8.987,173,14.7018,7.3323,-9.8996,-0.0299,-1.0102,2.1011,88,9.201,177,9.2419,-1.623,-13.9997,-1.3918,-1.1958,0.0853,88,8.985,173,-8.2433,-5.6369,-9.9583,0.7681,-1.0491,0.0619,52
9.823,189,6.6054,-6.8599,-5.3051,-0.5504,0.5745,-0.7152,91,9.039,174,12.916,1.7059,-11.3954,0.0371,-0.3858,1.1202,88,9.253,178,7.5445,-0.8456,-14.0896,-1.691,-0.4789,0.5865,88,9.037,174,-9.6625,-4.4595,-10.048,0.6851,-0.7837,0.0797,52
9.874,190,7.0509,-5.6949,-5.1097,-0.7043,1.073,-0.5381,91,9.09,175,12.0651,-0.1084,-12.6764,0.6988,-0.3844,0.1312,88,9.304,179,7.5478,-0.5448,-12.8497,-1.9094,0.1328,1.0736,88,9.088,175,-9.4687,-3.685,-9.8489,0.7164,-0.6063,0.1256,52
9.926,191,6.5207,-5.0524,-5.4355,-1.1914,1.4656,-0.3542,91,9.142,176,10.9182,-0.3009,-10.3711,1.1817,0.049,-0.0855,88,9.356,180,9.7796,1.3308,-12.3337,-2.0688,0.633,1.2684,88,9.14,176,-9.8003,-2.8114,-9.7351,0.8245,-0.502,0.2469,52
9.978,192,6.5582,-4.7281,-5.8433,-1.5375,1.752,-0.397,91,9.194,177,9.0307,0.2779,-9.7353,1.5342,0.0827,0.0122,88,9.408,181,9.2678,3.1805,-11.9267,-2.1851,1.0588,1.4298,88,9.192,177,-10.078,-1.9781,-9.4414,0.7659,-0.4101,0.2914,52
