right_hand_timestamp,right_hand_index,right_hand_accel_x,right_hand_accel_y,right_hand_accel_z,right_hand_gyro_x,right_hand_gyro_y,right_hand_gyro_z,right_hand_battery_percentage,left_hand_timestamp,left_hand_index,left_hand_accel_x,left_hand_accel_y,left_hand_accel_z,left_hand_gyro_x,left_hand_gyro_y,left_hand_gyro_z,left_hand_battery_percentage,right_leg_timestamp,right_leg_index,right_leg_accel_x,right_leg_accel_y,right_leg_accel_z,right_leg_gyro_x,right_leg_gyro_y,right_leg_gyro_z,right_leg_battery_percentage,left_leg_timestamp,left_leg_index,left_leg_accel_x,left_leg_accel_y,left_leg_accel_z,left_leg_gyro_x,left_leg_gyro_y,left_leg_gyro_z,left_leg_battery_percentage
0.722,13,13.4437,-5.8777,-8.7801,1.0738,2.0174,1.8957,92,0.233,4,6.5822,12.597,-10.8187,-0.6621,-0.1453,-1.3699,87,0.081,1,9.8947,1.4877,-8.0278,-0.7618,1.0145,-0.9345,86,0.03,0,10.5992,5.1014,-16.6021,-0.0023,-0.8941,0.7678,51
0.774,14,11.2237,1.1002,-14.2168,0.8954,2.1548,0.78,92,0.285,5,7.9161,14.5207,-11.3007,-1.1599,-0.5373,-1.6862,87,0.133,2,10.0008,2.2262,-7.8765,-0.4942,0.6271,-1.2156,86,0.082,1,12.8531,5.2273,-16.2145,0.4747,-1.1456,0.1471,51
0.825,15,9.8022,3.841,-16.2964,-0.0238,1.8191,-0.1058,92,0.336,6,8.4806,15.9247,-10.9017,-1.5266,-1.0361,-1.917,87,0.185,3,10.5291,4.0137,-8.4519,-0.2987,-0.1316,-1.4084,86,0.133,2,14.3684,1.4298,-16.2541,-0.3306,-1.5029,-0.3621,51
0.877,16,11.9075,0.6565,-15.2893,0.0543,1.0435,-0.7524,92,0.388,7,10.3965,13.4376,-11.5445,-1.7942,-1.4289,-2.0855,87,0.236,4,10.9529,5.0499,-8.9388,-0.1844,-0.7694,-1.325,86,0.185,3,9.5574,0.6377,-13.7965,0.4334,-0.6594,-0.9357,51
0.929,17,12.9017,-3.1318,-14.6684,-0.6299,0.8293,-1.2242,92,0.44,8,9.3063,6.9082,-12.7377,-1.9895,-0.3638,-1.9667,87,0.288,5,12.609,2.3725,-12.3374,-0.3383,-0.5317,-0.4467,86,0.237,4,1.5028,2.3331,-11.1172,-0.3608,0.2037,-0.0475,51
0.981,18,10.7061,-3.3722,-13.5145,-0.4239,0.4142,-1.5686,92,0.492,9,7.7741,-0.2189,-15.1531,-1.3315,0.4136,-0.7768,87,0.34,6,10.2082,2.4603,-12.9117,-0.902,0.1057,-0.4149,86,0.289,5,6.2141,-2.5397,-5.5061,-0.9404,-0.5181,0.6457,51
1.032,19,8.0007,-6.8978,-14.9672,-0.9868,0.5842,-1.8199,92,0.544,10,6.385,-0.5524,-17.6684,-0.3001,0.4796,0.0984,87,0.392,7,6.787,-3.3398,-12.6608,-1.3336,0.2335,0.3449,86,0.341,6,6.9596,-3.1683,-5.6039,-0.247,-0.6304,1.1516,51
1.084,20,10.7102,-10.232,-16.0667,-0.7655,-0.2405,-2.0034,92,0.595,11,6.1894,1.6614,-16.4355,0.2793,-0.3227,0.7372,87,0.444,8,5.9501,-3.948,-12.201,-1.0477,-0.503,0.9295,86,0.393,7,9.2569,-1.9575,-6.2014,-0.3819,0.1268,1.5208,51
1.136,21,9.8053,-12.6655,-14.3481,-0.097,-0.6711,-0.9984,92,0.647,12,7.9155,2.0401,-14.5903,-0.1509,-0.9082,1.2034,87,0.495,9,5.9342,2.4705,-9.4805,-0.0882,0.2056,0.386,86,0.444,8,11.8734,2.5132,-10.4422,0.3959,0.7775,1.7903,51
1.188,22,10.8131,-14.4415,-12.8445,0.6036,-1.1235,-0.052,92,0.699,13,7.5842,2.6311,-12.0782,0.5616,-0.7998,1.5437,87,0.547,10,9.5157,7.1275,-4.3352,0.5295,-0.2385,0.6406,86,0.496,9,10.4007,7.1064,-15.2025,-0.0636,1.1865,1.798,51
1.24,23,12.9483,-13.7083,-12.047,1.1149,-0.6217,0.6387,92,0.751,14,7.0116,6.9466,-11.5058,1.0816,0.0752,1.3999,87,0.599,11,1.6208,10.5539,-7.7887,0.3059,0.5043,0.2009,86,0.548,10,7.1259,9.9329,-18.7189,-0.6385,0.9394,0.7555,51
1.291,24,14.5067,-13.8965,-10.4126,1.4881,0.2051,1.1428,92,0.803,15,10.0366,10.3968,-12.0189,0.1094,-0.6178,1.6871,87,0.651,12,5.6752,10.3688,-8.9166,-0.2221,0.7296,-0.3451,86,0.6,11,10.3142,6.0786,-17.4478,-0.686,0.9776,-0.12,51
1.343,25,15.6441,-11.9958,-7.7712,1.7604,0.8321,1.5107,92,0.855,16,9.6061,10.8466,-11.954,0.7516,0.201,0.8344,87,0.703,13,9.119,9.43,-9.3473,-0.6268,0.5042,-0.8404,86,0.652,12,9.4058,6.2475,-14.3997,-0.647,0.1365,-0.759,51
1.395,26,14.9936,-12.3312,-7.2807,1.9506,1.2897,1.7792,92,0.906,17,6.4462,12.9086,-12.4596,0.2416,0.3884,0.3231,87,0.755,14,11.8575,8.3926,-10.6907,-0.9709,-0.3054,-1.2873,86,0.703,13,8.782,6.008,-14.3875,-0.6793,0.0285,-1.1072,51
1.447,27,11.9759,-6.1465,-7.4923,1.7509,1.6237,1.9752,92,0.958,18,5.5874,12.5125,-13.5621,-0.5037,-0.0123,0.1221,87,0.806,15,13.9199,2.3409,-14.4344,-1.3838,0.3885,-1.323,86,0.755,14,8.5268,6.1483,-14.2662,-0.4489,-0.1131,-1.194,51
1.499,28,8.6402,-1.6839,-9.368,1.9486,1.5737,0.7886,92,1.01,19,8.7252,14.459,-14.7497,-1.0476,-0.6817,-0.2847,87,0.858,16,7.8569,7.0604,-15.2208,-0.3334,0.9619,-1.0351,86,0.807,15,9.4009,6.2119,-14.697,-0.2555,-0.2504,-0.7761,51
1.551,29,6.2089,-0.4632,-12.1789,1.3519,0.876,-0.0995,92,1.062,20,11.2873,15.8797,-18.6901,-1.4446,-1.1702,-0.8942,87,0.91,17,4.552,8.1908,-15.1299,0.4192,0.7638,-0.1367,86,0.859,16,11.9785,3.6788,-13.0377,0.0535,0.077,-0.1222,51
1.602,30,6.1066,-0.2539,-13.7747,0.673,-0.03,-0.7478,92,1.114,21,13.1572,10.8248,-19.4587,-1.7344,-0.4174,-1.339,87,0.962,18,2.3949,11.3299,-13.5439,0.6325,1.1448,0.5779,86,0.911,17,10.9416,-1.0405,-10.8923,0.7137,0.3225,-0.3176,51
1.654,31,5.4583,-1.7281,-13.7096,0.1556,-0.489,-1.2209,92,1.165,22,11.1312,7.1233,-17.5927,-0.9418,0.3664,-1.6636,87,1.014,19,3.5599,11.1055,-11.8198,0.4011,0.7536,1.0995,86,0.962,18,4.8109,4.5327,-5.342,1.1956,0.7429,-0.9032,51
1.706,32,5.1719,-2.7507,-13.0822,-0.3767,-0.9138,-1.5661,92,1.217,23,8.089,4.872,-15.3466,-0.2703,0.5451,-1.2258,87,1.065,20,0.9499,8.244,-12.0623,0.5774,0.8597,1.4663,86,1.014,19,4.8585,-0.1718,-6.4511,0.1955,1.2272,-0.1613,51
1.758,33,3.2041,-4.5203,-11.8696,-0.3783,-0.9698,-1.8182,92,1.269,24,4.9034,2.0324,-13.6206,-0.0587,1.0722,-0.2446,87,1.117,21,-2.0407,5.9421,-11.9841,0.6371,1.021,1.7479,86,1.066,20,3.3526,0.4271,-8.9115,-0.047,0.9887,0.3453,51
1.81,34,3.5437,-4.6096,-10.7513,0.0261,-1.3493,-2.0021,92,1.321,25,2.5806,1.0629,-13.1557,0.6289,0.8658,0.4869,87,1.169,22,-1.7399,3.8436,-11.4444,0.671,0.9495,1.9534,86,1.118,21,1.323,-1.5664,-10.792,0.5069,0.7157,-0.0466,51
1.861,35,6.5178,-8.1899,-11.539,-0.5241,-1.4326,-1.9436,92,1.373,26,2.0234,1.7723,-11.9018,1.1307,0.3381,1.0207,87,1.221,23,1.1248,2.7528,-10.4203,0.5467,0.9715,2.1034,86,1.169,22,1.0951,-2.9916,-15.8577,0.4599,0.0238,0.1895,51
1.913,36,6.1973,-11.175,-9.8931,-0.3295,-1.6157,-1.6605,92,1.425,27,3.2534,3.5908,-11.2465,1.4202,0.1707,1.4103,87,1.273,24,3.6701,1.2654,-9.8751,0.8196,1.2209,2.2129,86,1.221,23,1.952,-5.0625,-16.0023,0.1189,-0.2349,-0.3965,51
1.965,37,5.0175,-12.9636,-8.9765,-0.1607,-1.4277,-0.9545,92,1.476,28,1.388,3.8503,-10.8388,0.8503,0.5925,1.2258,87,1.324,25,4.9219,0.5838,-10.0638,1.2346,1.2167,2.2928,86,1.273,24,5.8578,-2.1131,-16.9221,-0.0701,-0.8382,-0.7611,51
2.017,38,7.0641,-14.6591,-10.1621,0.5503,-1.7113,-0.0322,92,1.528,29,0.7724,5.0795,-10.296,1.1827,0.2831,0.9078,87,1.376,26,7.3025,1.2954,-11.4738,1.0358,1.0252,2.3088,86,1.325,25,9.3926,-2.0135,-15.9306,0.1206,-1.2786,-0.8089,51
2.068,39,10.2121,-15.8966,-11.8821,1.076,-1.9183,0.6531,92,1.58,30,4.6165,9.0341,-10.1834,1.4397,-0.0576,0.5972,87,1.428,27,9.3957,4.3753,-12.0025,0.2368,0.3657,1.6562,86,1.377,26,11.1618,3.8226,-19.5785,0.136,-1.5999,-1.1502,51
2.12,40,12.5097,-16.7997,-11.5839,1.4597,-2.0694,1.1533,92,1.632,31,6.7402,11.9203,-8.9508,0.6075,0.2604,0.5553,87,1.48,28,12.1231,8.2976,-6.1759,-0.501,-0.2336,0.5514,86,1.428,27,11.5503,1.7638,-20.3502,-0.5778,-1.8345,-0.782,51
2.172,41,14.1866,-17.4589,-11.2602,1.7397,-1.6638,1.5184,92,1.684,32,6.7849,10.6903,-8.3231,0.4515,0.2944,-0.113,87,1.531,29,8.8475,6.1706,-12.5123,-0.2312,-0.3612,-0.2716,86,1.48,28,7.4411,6.1757,-21.5834,-0.0845,-0.6885,0.0593,51
2.224,42,14.3486,-14.37,-11.3593,1.9441,-1.2756,1.7848,92,1.735,33,9.8712,10.1645,-7.1347,-0.3262,-0.0911,-0.5799,87,1.583,30,8.5504,5.2192,-12.1652,-0.2323,-0.6993,-0.5578,86,1.532,29,1.1367,9.7982,-22.4197,-0.7387,0.1825,0.7236,51
2.276,43,13.8092,-8.7565,-12.8362,2.0933,-0.3457,1.9776,92,1.787,34,11.9273,7.0517,-7.3616,-0.9181,0.6126,-0.8973,87,1.635,31,8.4888,3.9279,-12.5853,-0.3294,-0.736,-0.7462,86,1.584,30,-1.8507,7.5174,-24.3441,-0.3594,0.3457,1.2085,51
2.327,44,14.7882,-1.7771,-16.6286,1.1592,0.4301,1.6339,92,1.839,35,12.8407,7.0311,-6.7231,-0.6265,1.1262,-1.3166,87,1.687,32,8.9203,3.6655,-12.7255,-0.3542,-0.6144,-1.2045,86,1.635,31,-1.4507,5.3181,-22.0568,-0.6539,0.1053,0.8614,51
2.379,45,14.3676,1.4349,-18.4663,0.3002,0.9963,0.5174,92,1.891,36,9.8714,10.4584,-7.5164,-0.4214,1.501,-1.6471,87,1.739,33,9.4377,4.2812,-12.8973,-0.4896,-0.1345,-1.4818,86,1.687,32,-3.4883,4.4151,-17.3173,-0.2617,0.5358,1.0444,51
2.431,46,13.8893,0.8646,-19.4984,-0.4583,0.6914,-0.2975,92,1.943,37,5.7881,12.4264,-8.0546,-0.9876,0.4966,-1.886,87,1.79,34,12.1538,4.1688,-12.361,-0.4092,0.3077,-1.2493,86,1.739,33,-5.2018,3.0495,-13.3398,0.2743,0.2804,1.12,51
2.483,47,14.8934,-4.329,-19.43,-1.0119,0.1622,-0.8922,92,1.994,38,2.3433,6.9383,-10.0455,-1.4008,0.7591,-1.626,87,1.842,35,14.1361,3.3449,-12.4977,-0.8038,-0.4489,-0.671,86,1.791,34,-4.7274,2.2885,-10.6334,0.0895,0.3046,0.8398,51
2.535,48,13.4335,-8.3572,-18.1509,-1.4159,0.4503,-1.3263,92,2.046,39,-0.098,2.664,-12.3208,-0.8452,-0.1187,-0.649,87,1.894,36,14.7829,-1.097,-14.0678,-1.2619,-0.9094,-1.1408,86,1.843,35,-1.7376,0.4875,-8.3649,-0.008,0.658,0.7041,51
2.586,49,8.903,-11.2972,-16.0382,-1.5334,0.3316,-1.6431,92,2.098,40,-1.4712,1.0135,-14.5253,0.0549,0.3251,0.1917,87,1.946,37,8.5979,-6.0377,-13.9928,-0.2931,0.0146,-1.0194,86,1.894,36,3.0629,-2.0079,-7.6681,0.3606,1.1652,0.7746,51
2.638,50,7.1654,-13.4429,-14.9942,-1.4428,0.595,-1.5117,92,2.15,41,-0.7804,2.4296,-13.9458,0.7118,-0.4246,0.8053,87,1.998,38,5.8036,-4.1686,-14.952,-0.5411,0.2557,-0.0663,86,1.946,37,7.2485,-2.0885,-8.6505,0.7394,1.5354,1.2143,51
2.69,51,5.0346,-15.0089,-13.4398,-0.4364,0.3389,-0.6376,92,2.202,42,4.3497,3.1311,-12.2312,0.8809,-0.9826,1.2531,87,2.05,39,5.9827,0.1098,-11.7482,0.0866,-0.4868,0.6294,86,1.998,38,10.1196,-0.7992,-10.7954,1.2066,1.8055,1.2505,51
2.742,52,4.6685,-16.1519,-12.5386,0.3558,0.1268,0.2113,92,2.253,43,4.3374,1.9,-9.5862,0.4696,-0.4569,1.4801,87,2.101,40,9.6322,5.432,-5.9903,0.6489,-0.0147,-0.0767,86,2.05,39,9.8738,2.7988,-14.5212,0.2557,2.0027,1.5712,51
2.793,53,7.3249,-16.0111,-11.0462,0.817,0.3337,0.8309,92,2.305,44,5.3199,1.486,-9.4259,1.0144,-0.3195,1.0273,87,2.153,41,6.3841,9.3164,-10.3288,0.6631,-0.6827,0.0954,86,2.102,40,7.882,4.3143,-18.5794,-0.2796,0.8551,1.2314,51
2.845,54,9.884,-15.7236,-10.6742,1.1454,0.6516,1.283,92,2.357,45,8.8019,6.2024,-8.7804,1.4121,0.3817,1.2688,87,2.205,42,6.219,9.8101,-11.8492,0.0274,0.1777,-0.5867,86,2.153,41,7.8097,2.5621,-16.5902,-0.8798,0.2952,0.2273,51
2.897,55,11.4978,-16.6735,-9.5699,1.184,0.8108,1.6131,92,2.409,46,9.3788,9.8537,-10.3252,0.4112,0.0016,1.5823,87,2.257,43,9.6228,8.9452,-10.9259,-0.3486,-0.2808,-1.0734,86,2.205,42,7.2764,7.1621,-18.251,-0.2149,-0.1365,-0.5006,51
2.949,56,12.4062,-15.622,-8.2172,1.5385,0.5155,1.8539,92,2.461,47,8.547,8.7621,-10.6537,0.2933,0.6041,1.3207,87,2.309,44,11.5183,6.9047,-12.641,-0.5494,-0.8783,-1.4574,86,2.257,43,8.4363,5.6076,-16.3617,-0.2679,-0.342,-1.0368,51
3.001,57,11.9894,-8.3279,-6.7346,1.7973,0.6725,1.5097,92,2.512,48,4.8708,10.4913,-11.8078,0.8858,1.1199,0.8301,87,2.36,45,13.6723,0.7264,-16.8416,-1.0762,0.0373,-1.7377,86,2.309,44,8.1148,5.7735,-15.428,-0.0209,-0.5758,-1.1606,51
3.053,58,10.4781,-0.6881,-8.8022,1.5544,0.9568,0.4268,92,2.564,49,0.6689,12.0509,-12.8433,0.0212,0.6016,-0.0015,87,2.412,46,15.2444,5.8821,-16.5865,-0.8247,0.7056,-1.9423,86,2.361,45,8.5184,5.7307,-15.6705,0.2888,-0.8857,-0.8813,51
3.105,59,10.5076,0.3076,-11.5635,0.7616,0.9367,-0.3636,92,2.616,50,5.4074,14.1221,-12.6148,0.4456,-0.2336,-0.6875,87,2.464,47,11.2606,6.5098,-15.8996,0.0004,0.7767,-1.0424,86,2.412,46,11.3344,5.1838,-14.2225,0.6802,-0.566,-0.282,51
3.156,60,11.9475,-1.3133,-15.1359,-0.1216,1.0868,-0.9405,92,2.668,51,8.8658,15.6338,-13.6283,-0.3548,-0.8432,-1.1881,87,2.516,48,7.4138,10.1031,-15.564,0.6768,1.2452,-0.083,86,2.464,47,13.3897,-0.0199,-9.9346,1.1712,0.1619,-0.4219,51
3.208,61,11.0162,-5.9898,-16.3022,-0.5005,1.1998,-1.3615,92,2.72,52,11.2773,14.05,-14.4748,-0.939,-1.2881,-1.5535,87,2.568,49,4.3259,11.2973,-16.1769,0.3974,1.553,0.6171,86,2.516,48,6.0776,5.2777,-15.2319,1.5294,0.8031,-0.5253,51
3.26,62,11.4411,-7.1953,-15.3003,-0.3219,0.5416,-1.6688,92,2.772,53,12.4823,8.5648,-15.0485,-1.3653,-1.6127,-1.2776,87,2.619,50,2.1183,8.9242,-15.4272,-0.0157,1.4753,1.1281,86,2.567,49,5.4648,4.3801,-15.8362,0.4392,1.2711,0.0845,51
3.312,63,8.2389,-9.9292,-13.1685,-0.5394,0.6466,-1.8931,92,2.823,54,9.9316,2.954,-14.599,-1.2567,-0.498,-0.2706,87,2.671,51,-3.7781,4.2626,-13.9405,0.0286,1.4883,1.0707,86,2.619,50,4.2515,-2.1,-14.0045,-0.3565,1.3592,-0.3116,51
3.364,64,6.6076,-9.3116,-11.5503,-0.4398,0.3232,-2.0568,92,2.875,55,7.5301,1.38,-14.1066,-0.2455,-0.287,0.4679,87,2.723,52,-4.3625,1.8512,-12.8046,-0.0777,1.2983,1.4592,86,2.671,51,2.1258,-1.7548,-16.5762,0.4145,1.1055,-0.2511,51
3.415,65,9.0859,-11.7687,-11.4961,0.1482,-0.2368,-2.1762,92,2.927,56,8.3038,4.5232,-13.2999,0.4926,-0.0226,1.0069,87,2.775,53,-2.5759,0.9796,-11.1413,0.1432,1.0786,1.7427,86,2.723,52,6.6688,-6.1696,-9.4903,0.8389,0.14,0.1892,51
3.467,66,7.5007,-13.7861,-10.2895,-0.0514,0.4234,-1.0535,92,2.979,57,6.8115,5.4769,-12.5935,0.1327,0.6504,1.4002,87,2.827,54,0.4383,0.7732,-10.3235,0.0836,0.8889,1.9497,86,2.775,53,4.1997,0.3261,-4.3187,0.1984,0.4493,0.2887,51
3.519,67,6.6425,-13.8415,-11.7343,0.3768,0.4976,-0.0923,92,3.031,58,3.3745,5.1588,-12.0556,0.4302,1.1538,1.3658,87,2.878,55,2.7757,-0.1448,-9.3548,0.2315,1.039,2.1007,86,2.826,54,3.4668,2.118,-10.983,0.8195,0.2534,0.7849,51
3.571,68,8.0259,-15.2998,-14.5556,-0.0683,-0.2155,0.6093,92,3.083,59,0.8329,6.1496,-12.4202,0.6787,0.8638,0.9915,87,2.93,56,3.9927,0.5515,-9.7809,0.8393,1.2541,2.1129,86,2.878,55,7.5158,1.0551,-10.8765,0.567,-0.4819,1.0692,51
3.622,69,10.9141,-16.3642,-15.7965,0.5545,-0.8266,1.1213,92,3.134,60,2.9325,9.5874,-13.0329,1.1671,-0.0423,0.2935,87,2.982,57,6.0309,3.9984,-11.0238,0.2898,0.6645,1.8163,86,2.93,56,10.6027,1.7075,-10.4615,1.0885,-1.0185,0.7294,51
3.674,70,13.0221,-17.141,-15.9903,1.079,-1.2726,1.495,92,3.186,61,5.5897,11.6924,-12.8759,0.9356,0.4702,-0.0174,87,3.034,58,9.6673,0.2155,-12.2654,0.4143,1.0161,0.6516,86,2.982,57,12.8556,4.9368,-15.449,0.1173,-1.4101,1.2127,51
3.726,71,14.5606,-14.9071,-16.3388,1.4619,-1.5982,1.7678,92,3.238,62,2.3885,13.8605,-9.2332,1.286,0.6837,-0.6991,87,3.086,59,12.3214,5.5092,-16.9567,-0.035,1.082,-0.1985,86,3.034,58,9.6236,3.1069,-18.9883,0.7603,-0.4002,0.6376,51
3.778,72,14.7614,-9.0276,-16.8161,1.7413,-1.7606,1.8513,92,3.29,63,6.4392,11.7168,-7.5953,0.2586,-0.1737,-1.1966,87,3.137,60,12.1168,5.206,-17.6102,0.5043,0.157,-0.4238,86,3.085,59,2.8495,7.5597,-21.8397,-0.1129,0.3929,1.1457,51
3.83,73,13.2079,-1.9061,-17.3523,1.4551,-1.6207,0.9702,92,3.342,64,9.6188,9.5604,-6.6903,-0.0677,0.5523,-1.2958,87,3.189,61,11.4077,2.8015,-15.2072,0.4141,-0.1803,-0.7835,86,3.137,60,-0.1245,4.5107,-23.9208,-0.7595,0.8199,1.2831,51
3.881,74,12.4862,1.9885,-17.6122,0.388,-1.3659,0.033,92,3.393,65,9.3162,10.4106,-6.7656,-0.7268,0.8704,-1.0518,87,3.241,62,11.5212,3.0945,-14.448,0.0976,0.0741,-0.9599,86,3.189,61,-1.7872,6.0193,-23.3683,0.0555,0.2103,1.5417,51
3.933,75,11.3697,0.1711,-17.7512,-0.3942,-1.099,-0.651,92,3.445,66,8.6361,9.5127,-8.437,-1.2105,0.1644,-0.1029,87,3.293,63,11.8652,4.1908,-14.1608,-0.1522,0.4359,-0.8094,86,3.241,62,-6.777,3.3381,-19.1343,0.2746,0.3305,0.9246,51
3.985,76,10.7954,-2.8043,-16.3503,-0.9651,-1.3849,-1.1503,92,3.497,67,5.3599,8.8801,-9.7061,-0.9601,0.7184,0.5777,87,3.344,64,13.9255,2.6067,-15.0161,-0.0116,-0.3552,-0.8037,86,3.292,63,-5.161,5.2473,-11.4499,0.5758,-0.4256,0.8136,51
4.037,77,9.2866,-5.1013,-15.2382,-1.3817,-0.7553,-1.5146,92,3.549,68,-0.553,9.075,-9.5585,-0.029,1.1482,1.087,87,3.396,65,11.5225,0.9663,-16.5038,-0.6837,-0.1262,-0.0338,86,3.344,64,-2.3755,2.6871,-9.3511,0.0478,-0.182,0.3568,51
4.089,78,6.4178,-7.6857,-13.1881,-1.4706,-0.8994,-1.7805,92,3.601,69,-0.6985,8.7312,-10.2778,-0.2774,0.1654,1.4587,87,3.448,66,11.0471,-4.5318,-12.1177,-1.1634,-0.5774,0.1316,86,3.396,65,0.2513,0.8507,-8.258,0.3668,0.5521,-0.1799,51
4.14,79,4.3778,-10.7517,-13.9791,-1.7497,-0.4388,-1.4378,92,3.653,70,0.3427,8.194,-10.6608,0.4693,-0.5351,1.4147,87,3.5,67,7.8907,-2.736,-11.3392,-0.2448,-0.8728,0.7708,86,3.448,66,2.3694,-0.0854,-6.9485,0.2258,1.0879,-0.3469,51
4.192,80,7.7098,-13.0447,-15.8683,-0.7481,-0.931,-1.1375,92,3.704,71,2.9152,7.6862,-8.955,0.3066,-0.3928,1.1442,87,3.552,68,7.4309,-1.0157,-8.6221,0.4818,-0.7974,1.2403,86,3.5,67,1.8433,0.2227,-8.3205,0.2709,1.479,-0.1436,51
4.244,81,7.938,-12.9589,-14.0809,0.0299,-1.3071,-0.1581,92,3.756,72,0.7973,5.6778,-7.8645,-0.4563,0.3439,0.7116,87,3.604,69,5.0314,3.0023,-8.0977,1.0282,0.0964,1.1957,86,3.551,68,6.4626,1.9249,-12.5833,0.8724,1.7644,-0.0425,51
4.296,82,9.956,-12.6105,-14.0548,0.6958,-1.5263,0.5612,92,3.808,73,0.9212,2.9114,-7.9222,-0.5319,-0.2981,0.5809,87,3.655,70,8.9379,7.5431,-3.326,0.4131,-0.5291,0.3113,86,3.603,69,8.2515,4.521,-17.1651,-0.0404,1.9727,0.1634,51
4.348,83,9.899,-12.3175,-14.0883,1.1798,-1.5535,1.057,92,3.86,74,2.5811,3.2022,-9.1534,0.2835,-0.0316,0.2829,87,3.707,71,1.1991,0.2683,0.1566,0.0394,0.2922,0.4421,86,3.655,70,11.1396,-1.1617,-20.509,0.124,0.773,0.4518,51
4.399,84,11.4819,-11.7794,-14.9899,1.5355,-1.4871,1.4481,92,3.912,75,6.803,5.2426,-8.5654,0.7409,0.5395,0.4815,87,3.759,72,6.1409,-0.6468,-3.8643,-0.5232,0.5338,-0.3514,86,3.707,71,6.7757,-1.1082,-22.9496,-0.1411,0.9092,0.1992,51
4.451,85,11.8242,-11.1862,-14.9669,1.4653,-1.2184,1.7335,92,3.963,76,8.1605,5.5371,-9.2618,-0.098,0.2802,0.4529,87,3.811,73,6.8778,0.5326,-6.4306,-1.0571,1.0105,-0.9305,86,3.759,72,7.021,0.2042,-20.0673,0.2557,0.2824,-0.526,51
4.503,86,10.5493,-9.9348,-14.6626,1.0996,-1.0532,1.9418,92,4.015,77,6.9862,4.3563,-8.7646,0.1966,0.4491,0.4394,87,3.863,74,8.5571,0.4376,-10.4459,-0.7116,0.2187,-1.3531,86,3.81,73,7.5356,1.1419,-17.8403,0.3276,0.0423,-0.4383,51
4.555,87,8.6225,-7.4695,-13.9212,1.0496,-1.1791,2.0939,92,4.067,78,10.0181,5.3484,-9.6096,0.8152,-0.3133,-0.1071,87,3.915,75,11.5111,0.0587,-11.6034,-0.5295,0.7347,-0.5937,86,3.862,74,8.2183,1.777,-16.4294,0.5002,-0.2615,0.0014,51
4.607,88,6.4302,-4.7944,-12.8961,0.7775,-1.3489,2.0233,92,4.119,79,9.5887,5.3057,-9.2199,1.0067,0.4504,-0.613,87,3.967,76,7.726,2.2765,-12.8482,0.2901,1.0981,0.23,86,3.914,75,8.0383,1.9855,-15.205,0.6952,-0.2944,0.0559,51
4.658,89,4.3612,-3.1096,-12.1384,0.4805,-1.4605,1.5146,92,4.171,80,10.426,5.6132,-8.7626,0.6782,-0.1526,-0.4667,87,4.018,77,7.3588,3.7006,-10.7991,-0.4635,1.4129,0.8456,86,3.966,76,7.3223,3.3754,-12.9916,1.1821,-0.0965,-0.5549,51
4.71,90,1.9047,-2.6206,-11.9106,0.0618,-1.5954,0.976,92,4.222,81,9.397,4.3121,-9.2505,0.5096,0.0961,-0.3272,87,4.07,78,5.8448,-0.2819,-9.556,0.1978,1.0201,1.2949,86,4.018,77,6.7895,2.8295,-11.7881,1.5374,0.1221,-1.0764,51
4.762,91,-0.2503,-3.5417,-12.3096,-0.1983,-1.8337,0.2549,92,4.274,82,8.6171,3.9331,-8.6314,0.8502,0.221,-0.3347,87,4.122,79,6.7974,0.4433,-11.7133,0.8209,1.243,1.6228,86,4.069,78,6.736,0.4328,-12.9131,1.7967,0.7741,-1.457,51
4.813,92,1.49,-7.7826,-14.2106,-0.2896,-2.0077,-0.4891,92,4.326,83,6.8399,2.7399,-8.9847,0.8572,0.7079,-0.317,87,4.173,80,7.7746,4.1334,-15.4408,1.2757,1.5855,1.8621,86,4.121,79,8.5448,5.3627,-14.6946,1.7495,0.628,-1.5987,51
4.865,93,1.7888,-9.0784,-13.3952,-0.3766,-2.1346,-0.7789,92,4.378,84,5.2328,2.334,-9.1871,1.2301,0.8983,-0.3383,87,4.225,81,5.9273,8.3686,-19.2742,1.607,1.8355,0.8357,86,4.173,80,9.0793,1.0256,-14.6774,1.9515,1.0862,-1.4285,51
4.917,94,1.413,-7.0768,-11.3575,-0.1071,-2.1768,-1.183,92,4.43,85,4.8082,1.9157,-9.4273,1.5695,1.3004,-0.7714,87,4.277,82,6.3593,1.8427,-22.0721,0.9783,0.6663,1.1169,86,4.225,81,8.3539,0.5518,-16.606,2.099,0.9636,-1.2362,51
4.969,95,0.7057,-4.5389,-10.6181,0.0004,-2.1158,-1.5386,92,4.481,86,7.1514,4.626,-10.5687,1.8172,1.1254,-1.0674,87,4.329,83,2.382,4.6041,-21.6052,1.3439,1.1646,0.804,86,4.276,82,7.969,0.1601,-15.1999,2.2066,0.5866,-1.2703,51
5.021,96,0.6804,-6.0118,-10.9403,0.1297,-2.1775,-1.798,92,4.533,87,8.0226,7.3046,-9.1088,1.998,1.5005,-0.1531,87,4.381,84,4.7319,1.9492,-19.4907,0.9349,0.1766,0.7639,86,4.328,83,7.9823,0.0166,-14.6371,2.2852,0.4639,-1.4359,51
5.072,97,-0.1113,-9.5482,-12.51,0.5869,-2.2489,-1.7342,92,4.585,88,7.398,9.5156,-8.7762,1.3509,1.2552,0.3287,87,4.432,85,4.3718,3.1255,-16.4089,0.8667,0.7436,0.7964,86,4.38,84,7.3738,0.2632,-14.2122,2.3425,0.4096,-1.5679,51
5.124,98,-1.8186,-12.1664,-14.113,1.101,-2.3107,-0.9548,92,4.637,89,6.0426,7.0664,-9.0193,1.5507,1.5952,0.0273,87,4.484,86,6.3532,1.599,-15.1054,0.6523,0.3264,0.6185,86,4.432,85,6.9989,0.6516,-14.051,2.2124,0.2901,-1.4806,51
5.176,99,-0.6406,-14.0773,-15.459,1.4779,-2.3558,-0.0202,92,4.689,90,5.0524,7.156,-8.9562,1.8035,1.6522,-0.4602,87,4.536,87,7.385,1.937,-13.6094,0.5337,0.2271,-0.0241,86,4.484,86,6.3326,0.9463,-14.0541,1.8504,0.0398,-1.2026,51
5.228,100,1.3821,-15.4719,-15.3137,1.753,-2.3887,0.6619,92,4.74,91,4.2922,6.4247,-8.8256,1.7986,1.8849,-0.7412,87,4.588,88,7.0686,2.0163,-13.1813,0.403,0.264,-0.1662,86,4.535,87,4.7286,1.5849,-13.7852,1.5601,0.0552,-1.1007,51
5.28,101,3.9292,-16.4898,-14.1836,1.9538,-2.4127,1.1597,92,4.792,92,2.9698,6.2753,-9.0623,1.9786,1.9914,-1.0477,87,4.64,89,6.5123,2.4068,-12.5098,0.0841,0.7751,-0.6108,86,4.587,88,8.5684,0.4957,-10.5758,1.6112,0.4721,-0.3907,51
5.331,102,7.9242,-17.2327,-11.9842,2.1004,-2.4254,1.5231,92,4.844,93,2.6373,7.7578,-9.7712,2.1158,2.1325,-1.4454,87,4.691,90,8.1803,3.3212,-11.9416,-0.1934,0.8111,-0.6638,86,4.639,89,7.6736,-1.0448,-13.4212,1.1854,-0.18,-0.8835,51
5.383,103,10.8399,-12.0274,-11.3363,2.2073,-1.3632,1.7882,92,4.896,94,0.9883,10.8883,-11.007,2.2159,2.0192,-1.7413,87,4.743,91,8.4871,3.7602,-11.4188,-0.2948,1.2034,-0.5721,86,4.691,90,8.8897,-0.1864,-14.6034,0.7883,-0.2964,-1.3044,51
5.435,104,12.6688,-8.4624,-12.6591,2.2854,-0.5664,1.1246,92,4.948,95,-1.5704,13.2736,-13.1934,2.2775,1.5601,-1.9573,87,4.795,92,9.7426,3.9579,-11.6717,0.1457,1.5566,-0.3406,86,4.742,91,7.9668,1.5037,-15.1074,0.8238,-0.1463,-1.3436,51
5.487,105,12.1785,-0.7863,-16.4664,1.0781,0.2174,0.1457,92,5.0,96,-1.5157,15.0145,-14.6719,2.1674,0.466,-2.1149,87,4.847,93,12.3763,1.6062,-12.9892,0.7829,1.8144,-0.6868,86,4.794,92,9.4388,2.0347,-15.2914,0.9165,0.0946,-0.8882,51
5.538,106,12.4115,-0.6625,-18.7136,0.1094,0.3061,-0.5688,92,5.051,97,-2.8164,16.2851,-14.5605,0.9018,-0.3326,-2.2299,87,4.899,94,14.2985,1.1762,-17.485,1.2479,1.7862,-1.1753,86,4.846,93,12.0062,2.8013,-12.4625,1.0254,0.7331,-0.2416,51
5.59,107,11.8377,-5.6812,-18.1866,-0.5975,0.4326,-1.0902,92,5.103,98,-2.5793,13.9484,-14.5435,-0.0218,-0.9154,-2.3139,87,4.95,95,11.3514,6.2104,-19.4766,0.6419,1.6234,-1.2539,86,4.898,94,5.9338,1.7067,-15.2716,1.423,1.022,-0.6602,51
5.642,108,11.2336,-9.3441,-16.9345,-1.1135,0.6133,-1.4708,92,5.155,99,-0.2193,8.1763,-14.461,-0.696,-1.3408,-1.5898,87,5.002,96,9.7897,-0.7044,-21.7297,-0.2067,1.8275,-0.2374,86,4.95,95,9.448,2.7774,-19.127,0.3615,0.0791,-1.1532,51
5.694,109,6.2994,-12.0175,-11.9266,-0.4257,0.0744,-1.7486,92,5.207,100,4.7592,2.7881,-12.2701,-1.0994,-1.5421,-0.4949,87,5.054,97,7.306,-1.5729,-21.3659,0.5256,0.6604,0.5045,86,5.002,96,12.0129,2.6174,-16.8339,0.9385,-0.609,-1.5131,51
5.746,110,6.5142,-13.9686,-10.2635,-0.3073,0.0727,-1.027,92,5.259,101,7.0032,-1.9954,-14.2323,-0.6338,-1.1398,0.3042,87,5.106,98,6.9075,2.2433,-23.461,1.0576,-0.0694,1.0459,86,5.053,97,12.3187,1.9576,-13.2414,0.0079,-1.1113,-1.1074,51
5.797,111,9.8108,-15.3926,-10.0071,0.4501,-0.6162,-0.0754,92,5.31,102,10.0305,-0.5493,-16.9123,0.2092,-0.1528,0.8874,87,5.158,99,10.3071,4.2119,-18.2441,0.5468,-0.724,1.4411,86,5.105,98,6.295,-2.1818,-7.0564,-0.1493,-0.1261,-0.1278,51
5.849,112,12.2168,-16.4319,-10.7177,1.0029,-0.8333,0.6216,92,5.362,103,9.9915,3.562,-16.5183,0.8244,0.5676,1.313,87,5.209,100,5.8144,8.4259,-20.4666,1.0756,-0.1968,0.3844,86,5.157,99,5.2196,-1.608,-10.1651,-0.0004,0.5929,0.587,51
5.901,113,11.4497,-16.024,-15.5274,1.4063,-0.8168,1.1303,92,5.414,104,10.4973,5.8458,-17.1049,1.2196,1.0933,1.6237,87,5.261,101,-1.0805,0.9126,-22.0251,0.1098,0.5347,0.58,86,5.209,100,6.4509,1.7843,-15.4001,0.5983,1.1177,1.1088,51
5.953,114,12.6653,-6.305,-16.8388,1.3455,-1.2462,1.5016,92,5.466,105,11.8985,9.5934,-18.7462,1.5619,1.477,1.8504,87,5.313,102,4.4771,3.759,-16.3956,-0.2977,0.1204,-0.2417,86,5.261,101,7.588,4.1651,-19.2209,0.79,0.8962,1.4896,51
6.005,115,11.1453,0.7882,-17.2163,0.3973,-1.1282,0.8824,92,5.518,106,11.9784,12.3285,-19.535,1.8117,1.7571,1.3522,87,5.365,103,6.3321,4.3283,-15.9023,-0.5046,0.3205,-0.8098,86,5.312,102,8.7884,4.747,-19.3843,1.247,0.655,1.0365,51
6.056,116,11.7888,3.9278,-20.5617,-0.3874,-0.655,-0.0311,92,5.569,107,6.9296,14.3248,-19.3363,1.5673,1.1193,0.3267,87,5.417,104,6.6253,5.5148,-14.0173,-0.4786,0.2932,-0.9518,86,5.364,103,3.9932,6.006,-15.7508,1.4283,1.0776,0.6677,51
6.108,117,13.6605,0.918,-20.4669,-0.5165,-1.1473,-0.6978,92,5.621,108,9.9768,15.7817,-16.4489,0.5432,0.1442,-0.4479,87,5.468,105,8.195,6.1969,-13.1404,-0.2229,-0.4215,-0.827,86,5.416,104,-0.5801,3.5548,-10.4105,0.9627,1.4242,0.2691,51
6.16,118,14.6826,-2.3549,-16.8737,-1.0543,-0.6068,-1.1844,92,5.673,109,7.9375,11.1414,-15.1886,-0.2836,0.2089,-0.8228,87,5.52,106,11.2468,3.1659,-15.0788,-0.7337,-0.0622,-0.2948,86,5.468,105,0.5525,1.6028,-8.2608,0.9848,1.7244,0.1915,51
6.212,119,10.3413,-6.9164,-12.6485,-0.7139,-0.5962,-1.5395,92,5.725,110,5.4291,4.6026,-17.6261,-0.887,-0.46,-0.4096,87,5.572,107,10.8504,2.1276,-19.01,-1.2107,-0.2421,-0.5377,86,5.519,106,1.857,0.6509,-8.269,0.8892,1.9435,-0.3627,51
6.264,120,12.604,-10.2456,-11.2665,-0.6737,0.2208,-1.4273,92,5.777,111,6.5347,-1.4594,-16.7991,-0.1135,-0.1444,0.3665,87,5.624,108,5.8671,-3.6842,-17.4355,-1.4834,0.5017,0.2696,86,5.571,107,2.8575,-0.3897,-7.8903,0.5428,2.1034,-0.6354,51
6.315,121,10.8972,-12.2814,-10.3028,-0.4705,0.8184,-0.3651,92,5.828,112,9.1622,1.8326,-11.7706,0.5889,-0.778,0.9328,87,5.676,109,5.4588,2.663,-18.6384,-0.4277,-0.3072,0.8745,86,5.623,108,5.8858,-1.1887,-10.1192,1.0466,2.2201,-0.4442,51
6.367,122,10.7485,-11.0857,-9.4517,-0.2345,1.0797,0.4102,92,5.88,113,6.1905,2.4307,-9.8501,0.0634,0.1112,1.3462,87,5.727,110,9.2498,7.2955,-11.019,0.2339,0.4541,0.0199,86,5.675,109,8.089,2.0381,-13.4955,0.1687,1.3244,0.3562,51
6.419,123,11.9724,-8.3654,-7.4642,-0.0822,1.4242,0.976,92,5.932,114,5.6165,2.9233,-8.9515,0.718,-0.0812,1.2886,87,5.779,111,6.4502,8.8045,-14.1871,0.7289,-0.0807,-0.6595,86,5.727,110,7.7124,2.1285,-17.2705,-0.554,0.2998,0.1212,51
6.471,124,13.7945,-9.7915,-6.5352,0.5861,1.6063,1.389,92,5.984,115,9.0184,4.0923,-9.6046,1.115,0.2823,1.6058,87,5.831,112,9.9734,7.5881,-13.4478,0.2107,-0.5279,-0.9594,86,5.778,111,6.6283,-3.7433,-20.586,0.158,-0.448,-0.5677,51
6.522,125,15.1243,-10.932,-5.7176,1.1022,1.8547,1.6904,92,6.036,116,8.6388,6.9675,-10.7769,1.4855,0.3782,1.6764,87,5.883,113,11.9315,5.7596,-14.6192,-0.3476,-1.0314,-1.3742,86,5.83,112,7.4781,-1.457,-13.96,-0.1307,-0.8917,-0.5635,51
6.574,126,15.6301,-12.4291,-5.5219,1.4788,2.0314,1.9104,92,6.088,117,6.6121,7.5951,-12.3782,1.0968,0.947,1.674,87,5.934,114,13.9738,2.2437,-15.7445,-0.9289,-1.4262,-1.677,86,5.882,113,8.1455,0.4407,-14.1021,0.2881,-1.0141,-1.0431,51
6.626,127,12.4344,-11.3725,-7.1866,1.7537,2.165,2.0709,92,6.139,118,2.1087,10.3789,-14.2005,0.419,0.581,1.2408,87,5.986,115,15.3785,5.4566,-19.4959,-1.2379,-0.423,-1.898,86,5.933,114,8.824,1.2678,-14.744,0.5311,-0.9364,-1.0136,51
6.678,128,6.4389,-6.2322,-10.6142,1.5683,1.542,1.5071,92,6.191,119,2.8881,11.8844,-16.6395,-0.1332,-0.2486,0.2397,87,6.038,116,12.8867,6.5594,-18.2967,-0.2285,0.0575,-1.9796,86,5.985,115,11.5574,3.2294,-13.0417,1.0325,-1.2351,-0.1931,51
6.73,129,5.0634,0.8351,-12.9797,1.1992,0.653,0.4249,92,6.243,120,7.0271,14.0006,-18.484,-0.7772,-0.8541,-0.5114,87,6.09,117,7.9683,7.945,-16.2011,0.2313,0.7203,-0.7671,86,6.037,116,13.5524,-1.7405,-10.2883,1.0579,-0.3171,0.3924,51
6.781,130,3.8321,1.6342,-14.6942,0.1978,0.7229,-0.365,92,6.295,121,10.048,13.7317,-19.4355,-1.2473,-1.296,-1.0597,87,6.142,118,4.02,9.3699,-15.781,0.7061,0.9995,0.1179,86,6.089,117,8.2265,-1.4042,-13.5638,1.4468,0.4535,-0.385,51
6.833,131,4.2638,0.6031,-16.1473,-0.533,0.7356,-0.9415,92,6.347,122,12.2527,7.7291,-19.1844,-1.5903,-1.6186,-1.4598,87,6.194,119,4.4989,10.876,-14.0154,-0.0753,1.16,0.7638,86,6.141,118,6.6747,-1.4233,-11.6739,0.3789,0.9411,0.0663,51
6.885,132,3.734,-3.2087,-15.5577,-0.8485,0.1079,-1.3623,92,6.398,123,10.8378,0.3803,-17.7254,-1.8407,-0.5795,-1.2062,87,6.245,120,1.3997,8.4496,-11.6797,0.0285,0.4001,1.2352,86,6.193,119,5.0474,-2.954,-11.6616,-0.4006,1.0026,0.4002,51
6.937,133,2.2917,-6.2342,-12.866,-0.7376,-0.5906,-1.6694,92,6.45,124,6.995,-4.502,-16.5552,-0.7663,-1.0956,-0.215,87,6.297,121,0.21,7.731,-11.0166,0.6973,0.3115,1.5792,86,6.245,120,2.2346,-3.7274,-12.5885,0.3116,0.7882,0.2542,51
6.988,134,1.1403,-9.7477,-10.4957,-0.98,-0.7599,-1.422,92,6.502,125,10.0245,0.5306,-18.6619,0.1124,-1.4723,0.4464,87,6.349,122,-0.1544,6.0496,-10.0192,0.0932,0.3405,1.8303,86,6.296,121,-0.8859,2.5717,-17.1689,0.9021,0.2987,-0.2976,51
7.04,135,4.6021,-12.312,-11.3938,-1.2066,-0.9826,-1.0981,92,6.554,126,4.9241,4.8373,-16.1218,0.6911,-0.3955,0.9912,87,6.401,123,1.1175,3.8117,-9.237,0.021,0.4627,2.0136,86,6.348,122,-0.7607,-0.2012,-18.869,0.3743,-0.1138,0.427,51
7.092,136,5.0015,-14.1836,-9.07,-0.5452,-1.0328,-0.1248,92,6.606,127,1.5089,6.0832,-15.1974,0.4835,-0.9613,0.8089,87,6.453,124,3.0491,2.2636,-9.489,0.6725,0.7806,2.1299,86,6.4,123,2.8804,-3.6556,-19.8154,0.4636,-0.7499,0.2819,51
7.144,137,4.562,-15.5495,-8.3944,-0.2246,-0.7355,0.5856,92,6.658,128,0.6221,8.6944,-13.6462,0.1914,-0.6515,0.1337,87,6.504,125,3.7583,2.5426,-10.4966,1.0627,1.0051,2.0524,86,6.452,124,7.2195,-1.2251,-17.9481,0.5815,-1.1409,0.8856,51
7.196,138,7.1628,-16.5464,-9.5393,0.5065,-1.0628,1.104,92,6.709,129,2.3489,11.6724,-13.9846,-0.1561,-1.1482,-0.5886,87,6.556,126,5.0058,4.4014,-11.8914,0.7855,0.7836,1.9139,86,6.504,125,10.3864,-1.593,-14.2573,0.9479,-1.4982,1.0534,51
7.247,139,8.8473,-17.274,-9.8691,1.0441,-1.33,1.4824,92,6.761,130,6.6336,13.8459,-16.152,-0.7939,-1.5107,-0.9698,87,6.608,127,7.4924,8.5642,-13.8663,0.2291,-0.1015,0.7291,86,6.556,126,12.6978,4.1295,-18.3868,0.0474,-1.7602,1.3788,51
7.299,140,11.03,-11.4658,-9.7904,1.4364,-1.64,1.7586,92,6.813,131,3.584,15.2106,-13.4587,-1.2569,-0.4235,-1.3942,87,6.66,128,0.1441,1.0135,-18.1251,0.3315,0.224,0.8226,86,6.607,127,13.9466,-2.2829,-20.7535,0.3027,-1.6412,1.1062,51
7.351,141,13.1066,-3.7573,-11.8661,1.7227,-1.6957,0.9356,92,6.865,132,4.8816,16.1847,-11.9503,-1.5974,-0.9817,-1.7039,87,6.712,129,-3.0526,3.6946,-13.9015,-0.2328,0.8418,-0.0638,86,6.659,128,8.1559,3.626,-23.128,0.8956,-0.5129,1.4877,51
7.403,142,12.3945,-0.2203,-13.9624,1.0541,-1.5592,0.0077,92,6.917,133,8.482,8.9244,-16.6617,-1.8458,-1.1651,-1.1382,87,6.763,130,3.0378,4.3799,-15.9276,-0.1815,-0.059,-0.3714,86,6.711,129,2.9661,2.161,-24.861,-0.0234,0.3106,1.2293,51
7.455,143,12.2191,2.3077,-14.9837,0.0933,-1.58,-0.6695,92,6.969,134,10.9404,7.5014,-14.5469,-0.6754,-0.6956,-1.3607,87,6.815,131,5.838,4.2741,-15.2653,-0.4029,-0.0455,-0.5414,86,6.763,130,-0.511,2.7013,-25.6425,0.6267,0.9017,1.3839,51
7.506,144,13.7127,-1.2501,-16.5834,-0.6093,-0.8755,-1.1637,92,7.02,135,9.1151,9.9116,-12.7094,0.1547,-0.3406,-0.3399,87,6.867,132,7.5495,3.2984,-15.5204,-0.4471,-0.171,-0.7193,86,6.815,131,-5.4994,2.7816,-22.3643,-0.2197,0.419,0.9697,51
7.558,145,14.1561,-5.6102,-17.2261,-1.122,-0.5478,-1.5245,92,7.072,136,5.0555,11.3909,-10.8745,0.5002,0.4305,0.4173,87,6.919,133,10.7757,0.3818,-16.3231,-0.911,-0.1389,-0.2659,86,6.866,132,-7.1086,1.9265,-16.7279,-0.4023,-0.2345,0.7369,51
7.61,146,11.1965,-8.067,-16.0433,-1.3765,-0.7236,-1.7877,92,7.124,137,-1.9803,9.5203,-12.1767,0.4387,0.9933,0.97,87,6.971,134,9.2879,-4.1937,-17.821,-1.3401,-0.4888,-0.6335,86,6.918,133,-2.1698,0.1117,-12.4823,-0.739,-0.2495,0.1918,51
7.662,147,7.2239,-9.7922,-13.7778,-1.682,-0.3297,-1.9787,92,7.176,138,-4.6138,9.6095,-12.9785,0.9919,1.216,1.3733,87,7.022,135,8.6546,-8.2978,-15.8721,-0.476,-0.0517,-0.2818,86,6.97,134,0.8621,-1.4049,-11.5819,-0.5264,0.5029,-0.079,51
7.714,148,6.5564,-12.3445,-15.2188,-1.905,-0.3004,-1.4923,92,7.228,139,-4.1519,9.5562,-13.0002,0.2104,0.2148,1.6114,87,7.074,136,6.4999,-5.012,-13.5154,0.3291,0.0534,0.4721,86,7.022,135,2.512,-1.8937,-11.4077,-0.3546,1.052,0.2627,51
7.765,149,8.1168,-14.2073,-13.9696,-1.0806,-0.8886,-0.4294,92,7.279,140,0.5253,7.9301,-12.6113,-0.2042,-0.5159,1.2877,87,7.126,137,6.4543,0.8878,-11.71,0.9167,-0.3393,1.0145,86,7.074,136,5.6426,-1.7238,-11.3639,0.4146,1.4527,0.3731,51
7.817,150,9.8306,-15.5668,-13.4914,-0.48,-1.0523,0.3632,92,7.331,141,-0.5432,5.7744,-11.4862,-0.3824,0.1728,0.5726,87,7.178,138,3.5406,5.1873,-11.2599,1.0957,0.4307,0.3342,86,7.125,137,5.6481,-1.6166,-13.0173,0.9773,1.7452,0.2332,51
7.869,151,11.0604,-15.2305,-12.8332,0.324,-1.3729,0.9417,92,7.383,142,0.2728,4.7093,-10.0189,0.0211,-0.0094,-0.2279,87,7.23,139,1.576,-1.4511,-16.2229,0.7155,0.9927,-0.4301,86,7.177,138,4.1881,-0.48,-16.4125,0.278,1.9587,0.45,51
7.92,152,10.7482,-11.3913,-11.2937,0.9109,-0.6939,1.364,92,7.435,143,4.0705,7.0269,-10.7826,0.6871,-0.6795,-0.0809,87,7.282,140,6.416,4.2928,-12.8354,0.2268,0.0864,-0.9617,86,7.229,139,3.8456,-0.503,-19.9597,-0.2244,1.1974,0.847,51
7.972,153,11.9011,-10.7675,-10.4815,0.7405,0.1141,1.6633,92,7.487,144,6.8199,10.4554,-9.8278,0.5971,-0.4482,0.108,87,7.334,141,6.474,5.4425,-12.6166,-0.5097,0.2755,-1.1591,86,7.281,140,7.924,4.9251,-22.5487,-0.8359,0.5849,0.1699,51
8.024,154,12.3267,-10.4739,-8.686,0.8061,0.5247,1.8906,92,7.538,145,5.6499,10.7331,-9.1184,0.0487,-0.0868,0.1326,87,7.385,142,8.2525,6.9329,-11.5666,-0.654,0.2874,-1.3555,86,7.332,141,8.7339,1.8481,-21.6477,-0.7149,0.7615,0.003,51
8.076,155,13.3045,-8.7131,-6.8486,1.2627,0.5948,1.7773,92,7.59,146,4.3332,11.6967,-9.6897,0.4996,0.5446,-0.0492,87,7.437,143,9.7816,7.1855,-13.0574,-0.7796,-0.4636,-1.6633,86,7.384,142,8.8898,2.4186,-20.0685,-0.2899,0.155,-0.6057,51
8.128,156,12.0631,-6.4465,-6.6993,0.9127,1.0104,1.2627,92,7.642,147,0.4665,12.2648,-10.3911,0.8952,1.0766,-0.6665,87,7.489,144,12.4048,0.0464,-16.5386,-1.2442,0.0708,-0.9895,86,7.436,143,9.1331,2.9929,-18.3217,-0.1328,-0.2919,-0.486,51
8.179,157,9.2915,-5.6839,-8.1494,0.8693,1.0552,0.3621,92,7.694,148,0.2705,13.4056,-12.2664,0.9738,0.1131,-1.1728,87,7.54,145,12.1628,4.5827,-19.8778,-0.2315,0.73,-1.3962,86,7.488,144,9.8787,3.3501,-18.1077,0.0503,-0.3631,0.0103,51
8.231,158,5.6141,-3.4003,-9.8058,0.2572,1.1523,-0.4108,92,7.746,149,2.3688,15.1108,-12.4204,0.4924,0.1665,-1.4516,87,7.592,146,9.254,8.6966,-18.8291,0.5075,0.7313,-1.0091,86,7.54,145,12.3272,0.7253,-15.8896,0.6259,0.082,0.1611,51
8.283,159,2.9032,-3.2187,-12.8412,-0.4897,1.4014,-0.9749,92,7.797,150,4.2654,16.3554,-12.4201,-0.3206,-0.5511,-1.7458,87,7.644,147,5.8899,11.699,-16.5922,-0.2353,1.2121,-0.0588,86,7.591,146,7.8898,-0.0914,-12.8326,1.1315,0.5161,-0.5538,51
8.335,160,1.2432,-4.9792,-14.0758,-0.7426,0.7976,-1.3867,92,7.849,151,5.1267,14.0762,-11.8689,-0.914,-0.9291,-1.8802,87,7.696,148,4.6674,8.7682,-14.0709,0.2187,1.08,0.6348,86,7.643,147,9.952,5.2254,-17.347,1.5005,-0.2901,-1.0735,51
8.386,161,0.8752,-5.2828,-14.9295,-1.2159,0.4267,-1.5467,92,7.901,152,4.3046,10.1569,-9.5235,-1.3471,-0.3317,-1.4108,87,7.748,149,1.0611,6.8389,-13.7408,0.1571,1.4666,1.0764,86,7.695,148,12.3807,-0.714,-19.4934,0.418,-0.8785,-0.8206,51
8.438,162,-1.9191,-9.0254,-15.8432,-1.3407,-0.0095,-1.5599,92,7.953,153,5.6882,7.3511,-7.1814,-1.5098,-0.3494,-0.847,87,7.8,150,-4.5497,4.7848,-15.3116,-0.5606,1.2618,1.4633,86,7.747,149,13.4031,-1.3707,-16.1273,0.6648,-1.308,-0.9876,51
