right_leg_timestamp,right_leg_index,right_leg_accel_x,right_leg_accel_y,right_leg_accel_z,right_leg_gyro_x,right_leg_gyro_y,right_leg_gyro_z,right_leg_battery_percentage,left_leg_timestamp,left_leg_index,left_leg_accel_x,left_leg_accel_y,left_leg_accel_z,left_leg_gyro_x,left_leg_gyro_y,left_leg_gyro_z,left_leg_battery_percentage
0.361,6,8.9719,-0.3321,-10.3811,0.8256,0.1447,-0.2612,94,0.07,1,9.0709,-1.2164,-15.0065,1.1915,-1.0764,0.5705,64
0.413,7,10.1628,-1.5759,-11.3058,1.2791,0.784,-0.286,94,0.122,2,8.5028,-1.4286,-14.702,1.3432,-1.4475,0.7013,64
0.465,8,11.5015,-0.9403,-7.2718,0.6197,0.573,-0.0294,94,0.174,3,8.3911,-1.3751,-14.3536,1.4514,-1.476,0.644,64
0.517,9,11.2243,-0.3406,-8.019,0.5279,0.4391,0.0707,94,0.226,4,8.5612,-1.307,-13.9338,1.4154,-1.4341,0.5364,64
0.569,10,10.8251,-0.2467,-8.7177,0.4607,0.3286,0.1547,94,0.277,5,8.5805,-1.8028,-13.7279,1.1924,-1.5042,0.4908,64
0.62,11,10.5789,-0.1968,-9.237,0.3936,0.2988,0.144,94,0.329,6,8.2901,-2.2732,-14.2555,1.0098,-1.4933,0.4246,64
0.672,12,10.2737,-0.1439,-9.5545,0.3808,0.3164,0.1473,94,0.381,7,7.9577,-2.599,-14.4479,0.8806,-1.4444,0.3817,64
0.724,13,10.2096,-0.0634,-9.6457,0.4423,0.2504,0.1517,94,0.433,8,7.47,-3.0494,-14.5094,0.9694,-1.3216,0.3327,64
0.776,14,10.0383,-0.2061,-9.6567,0.3881,0.1711,0.1712,94,0.484,9,7.0124,-3.6982,-14.4845,0.9794,-1.174,0.2929,64
0.827,15,9.9401,-0.2656,-9.7989,0.3443,0.1205,0.1546,94,0.536,10,6.8039,-4.1878,-15.2889,0.6676,-1.0797,0.3769,64
0.879,16,9.906,-0.0916,-9.8402,0.254,0.0992,0.135,94,0.588,11,6.5043,-5.2733,-16.5511,0.5197,-1.1385,0.7558,64
0.931,17,9.7351,-0.2485,-9.969,-0.0322,0.1273,0.1467,94,0.64,12,5.4218,-5.9556,-16.7437,0.3861,-1.2626,1.1628,64
0.983,18,9.7177,-0.4655,-9.9753,-0.0886,0.0889,0.0974,94,0.691,13,3.9701,-6.339,-16.4617,0.3259,-1.3825,1.3582,64
1.035,19,9.6611,-0.6364,-9.9635,-0.0411,0.0867,0.0582,94,0.743,14,2.611,-6.1098,-15.656,0.4395,-1.3895,1.3613,64
1.086,20,9.6488,-0.6673,-9.9528,0.05,0.093,0.0598,94,0.795,15,1.5988,-5.9231,-14.9593,0.4883,-1.3,1.1829,64
1.138,21,9.63,-0.5475,-9.8559,0.0823,0.076,0.0513,94,0.847,16,0.9556,-5.6222,-14.2091,0.4758,-1.0351,0.8584,64
1.19,22,9.6797,-0.2783,-9.815,0.0485,0.0533,0.0572,94,0.899,17,0.7068,-5.845,-14.7287,0.3025,-0.6855,0.5329,64
1.242,23,9.7458,-0.4862,-9.8617,-0.1199,0.0995,0.0897,94,0.95,18,0.6662,-6.279,-15.3611,0.1696,-0.3776,0.326,64
1.293,24,9.7565,-0.5672,-9.8029,-0.2111,0.1484,0.0812,94,1.002,19,0.355,-6.4516,-16.0344,0.0205,-0.176,0.2291,64
1.345,25,9.6899,-0.6579,-9.7488,-0.2975,0.175,0.049,94,1.054,20,0.0105,-6.501,-16.4444,-0.0639,-0.0736,0.1439,64
1.397,26,9.5966,-0.7783,-9.5967,-0.309,0.16,0.0034,94,1.106,21,-0.234,-6.5633,-16.6101,-0.1312,-0.0081,0.045,64
1.449,27,9.4942,-1.0256,-9.5723,-0.2377,0.1168,-0.0374,94,1.158,22,-0.4034,-6.6203,-16.5392,-0.1944,0.0418,-0.0578,64
1.501,28,9.4785,-0.9195,-9.4404,-0.1186,0.0411,-0.0687,94,1.209,23,-0.2998,-6.8446,-16.6421,-0.1704,0.0709,-0.1409,64
1.553,29,9.6526,-0.5737,-9.4233,0.1685,-0.0263,-0.1008,94,1.261,24,-0.0101,-6.9267,-16.825,-0.1483,0.0921,-0.1662,64
1.604,30,9.702,-0.6671,-9.5803,0.3791,-0.0711,-0.0804,94,1.313,25,0.2959,-7.0052,-16.8927,-0.1515,0.1346,-0.1403,64
1.656,31,9.7396,-0.3292,-9.5943,0.4197,-0.034,-0.0607,94,1.365,26,0.3321,-7.2027,-16.9014,-0.1682,0.1682,-0.1027,64
1.708,32,9.6835,-0.284,-9.5831,0.353,-0.0344,-0.0468,94,1.416,27,0.2338,-7.2201,-16.7825,-0.1364,0.1925,-0.0663,64
1.76,33,9.6705,-0.0687,-9.5841,0.2563,-0.0716,-0.0245,94,1.468,28,0.0985,-7.1016,-16.7706,-0.1127,0.2226,-0.0302,64
1.811,34,9.7134,-0.2746,-9.6492,0.142,-0.1185,0.0032,94,1.52,29,0.0629,-7.0431,-16.8559,-0.0701,0.2539,0.011,64
1.863,35,9.7276,-0.4162,-9.7262,0.0307,-0.1263,0.0082,94,1.572,30,0.0987,-7.013,-16.9405,-0.0771,0.2502,0.0756,64
1.915,36,9.7227,-0.4996,-9.7954,0.0169,-0.1013,-0.0021,94,1.624,31,0.2178,-6.9554,-16.956,-0.0538,0.2019,0.1013,64
1.967,37,9.7106,-0.5265,-9.8793,0.0422,-0.0684,0.0043,94,1.675,32,0.4052,-6.9228,-17.0039,-0.0604,0.1377,0.0955,64
2.019,38,9.6911,-0.5432,-9.843,0.0466,-0.0666,0.0095,94,1.727,33,0.5992,-6.9027,-17.0139,-0.0554,0.0805,0.062,64
2.07,39,9.7516,-0.4444,-9.9222,0.0991,-0.0496,0.0178,94,1.779,34,0.5955,-6.7777,-16.9191,-0.0618,0.0668,0.0359,64
2.122,40,9.693,-0.414,-9.8879,0.0753,-0.0449,0.0273,94,1.831,35,0.5111,-6.792,-16.8597,-0.0698,0.0872,0.0216,64
2.174,41,9.7109,-0.3024,-9.9006,0.0091,-0.0437,0.0393,94,1.882,36,0.501,-6.8969,-17.0157,-0.0837,0.1014,0.0463,64
2.226,42,9.6852,-0.4044,-9.9137,-0.0319,-0.0477,0.0393,94,1.934,37,0.4147,-6.9648,-17.1159,-0.0592,0.0693,0.1391,64
2.277,43,9.7086,-0.4578,-9.9489,-0.0242,-0.0457,0.0312,94,1.986,38,0.2713,-7.0105,-17.0327,-0.0369,0.0135,0.2163,64
2.329,44,9.6992,-0.4782,-9.9851,-0.0016,-0.0268,0.0197,94,2.038,39,0.2548,-6.7922,-16.9118,-0.0137,-0.0227,0.2319,64
2.381,45,9.6996,-0.4779,-9.9783,0.0016,-0.0072,0.0204,94,2.09,40,0.386,-6.7634,-16.8919,-0.0543,-0.0174,0.198,64
2.433,46,9.706,-0.4915,-9.9513,-0.0161,0.0088,0.0298,94,2.141,41,0.597,-6.6885,-16.9123,-0.0489,0.0069,0.144,64
2.485,47,9.6871,-0.5349,-9.979,-0.0215,0.0206,0.0343,94,2.193,42,0.5901,-6.674,-17.0301,-0.062,0.0434,0.1041,64
2.536,48,9.6835,-0.5646,-9.9313,-0.0152,0.0191,0.0445,94,2.245,43,0.4507,-6.6521,-17.0122,-0.0837,0.0999,0.0939,64
2.588,49,9.6898,-0.5954,-9.9396,0.0105,0.022,0.0484,94,2.297,44,0.3276,-6.7913,-17.0206,-0.0745,0.1457,0.1109,64
2.64,50,9.6628,-0.6255,-9.9103,0.0309,0.0309,0.0438,94,2.349,45,0.3061,-6.8533,-17.1391,-0.0833,0.1737,0.1734,64
2.692,51,9.6373,-0.6643,-9.8831,0.0266,0.0152,0.0365,94,2.4,46,0.3192,-6.8517,-17.1627,-0.0706,0.1884,0.2455,64
2.744,52,9.6606,-0.6491,-9.9024,0.0321,-0.0058,0.0279,94,2.452,47,0.2365,-6.5678,-17.1673,-0.0656,0.2012,0.2785,64
2.795,53,9.6603,-0.6736,-9.9056,0.0276,-0.0145,0.0314,94,2.504,48,0.1223,-6.5039,-17.1463,-0.0777,0.1984,0.2342,64
2.847,54,9.6726,-0.6668,-9.9144,0.0254,-0.0169,0.036,94,2.556,49,0.1259,-6.4696,-17.2033,-0.0808,0.1754,0.1028,64
2.899,55,9.6771,-0.6844,-9.9239,0.0202,-0.0158,0.0451,94,2.607,50,0.207,-6.5196,-17.3298,-0.0452,0.1187,-0.0344,64
2.951,56,9.6869,-0.7168,-9.9285,0.0137,-0.0176,0.0508,94,2.659,51,0.3796,-6.5758,-17.4958,-0.0144,0.0262,-0.162,64
3.003,57,9.6515,-0.7941,-9.9295,-0.0222,-0.014,0.056,94,2.711,52,0.4733,-6.4389,-17.3779,-0.015,-0.0861,-0.2701,64
3.054,58,9.669,-0.8048,-9.9651,-0.0616,-0.0021,0.0658,94,2.763,53,0.3297,-6.5643,-17.1114,-0.0075,-0.1508,-0.378,64
3.106,59,9.6475,-0.8966,-9.9825,-0.0941,0.0139,0.074,94,2.815,54,0.4134,-6.5032,-17.1292,-0.005,-0.2136,-0.45,64
3.158,60,9.6806,-0.9454,-9.9447,-0.0878,0.0142,0.0685,94,2.866,55,0.6512,-6.4171,-17.1969,-0.002,-0.2819,-0.5039,64
3.21,61,9.7339,-0.7882,-9.9764,-0.1526,0.0265,0.0479,94,2.918,56,0.8972,-6.5247,-17.205,-0.0003,-0.3275,-0.5626,64
3.262,62,9.7107,-0.837,-9.9578,-0.2374,0.0396,0.0294,94,2.97,57,1.1543,-6.5952,-17.2081,0.0042,-0.3409,-0.5591,64
3.313,63,9.6529,-0.9525,-9.9837,-0.261,0.0332,0.021,94,3.022,58,1.0447,-6.5699,-17.0459,0.0104,-0.3031,-0.4686,64
3.365,64,9.5932,-1.0589,-9.933,-0.2079,0.0251,-0.0047,94,3.074,59,0.9198,-6.6164,-16.8985,0.0003,-0.2045,-0.346,64
3.417,65,9.5946,-1.0501,-9.9742,-0.2152,0.0013,-0.0352,94,3.125,60,0.8282,-6.5338,-16.9688,-0.0062,-0.0637,-0.1793,64
3.468,66,9.5811,-1.1203,-9.9629,-0.1558,-0.0342,-0.0602,94,3.177,61,0.7371,-6.4556,-17.2973,-0.0665,0.0726,-0.0112,64
3.52,67,9.6355,-1.0449,-9.9956,-0.1467,-0.0406,-0.0777,94,3.229,62,0.8765,-6.555,-17.2951,-0.0975,0.1126,0.122,64
3.572,68,9.5596,-1.201,-9.9494,-0.1112,-0.051,-0.0946,94,3.28,63,0.9268,-6.2936,-17.1835,-0.0889,0.1739,0.2004,64
3.624,69,9.5398,-1.1682,-9.9763,-0.0281,-0.0719,-0.0974,94,3.332,64,1.0917,-6.2298,-17.2583,-0.103,0.2899,0.2431,64
3.676,70,9.5181,-1.3485,-10.0375,0.3118,-0.1178,-0.0754,94,3.384,65,1.2586,-6.2601,-17.4089,-0.125,0.3596,0.3078,64
3.727,71,9.5983,-0.7606,-10.1362,0.3168,-0.0963,-0.0551,94,3.436,66,1.181,-6.0777,-17.5084,-0.0904,0.3806,0.3566,64
3.779,72,9.63,-0.5852,-10.1674,0.242,-0.0313,-0.0151,94,3.488,67,1.3115,-5.9345,-17.4828,-0.0469,0.3597,0.3402,64
3.831,73,9.6213,-0.7541,-10.1721,0.1953,-0.0089,0.0053,94,3.539,68,1.604,-5.7635,-17.4035,-0.0366,0.3436,0.2457,64
3.883,74,9.6553,-0.7148,-10.1789,0.2212,0.0147,0.0169,94,3.591,69,1.7099,-5.9536,-17.2324,-0.087,0.3663,0.1438,64
3.935,75,9.6225,-0.7062,-10.1184,0.182,0.0292,0.0188,94,3.643,70,1.356,-6.384,-16.91,-0.1431,0.4741,0.1778,64
3.986,76,9.6304,-0.5807,-10.1013,0.1421,0.0421,0.0225,94,3.695,71,1.101,-6.5159,-16.9921,-0.2448,0.6112,0.3609,64
4.038,77,9.6447,-0.3762,-10.0302,0.0383,0.0342,0.0444,94,3.746,72,1.348,-6.1668,-17.3075,-0.263,0.6734,0.529,64
4.09,78,9.658,-0.6832,-10.0616,-0.143,0.0294,0.062,94,3.798,73,1.6943,-5.7191,-17.4661,-0.3242,0.6426,0.4578,64
4.142,79,9.6165,-0.8449,-10.064,-0.1988,0.0185,0.0503,94,3.85,74,1.8093,-5.5515,-17.4941,-0.2681,0.568,0.253,64
4.193,80,9.4762,-1.0609,-10.0763,-0.1687,-0.0288,0.0084,94,3.902,75,1.8753,-5.4828,-17.4905,-0.2474,0.4879,0.0954,64
4.245,81,9.5331,-1.0929,-10.1445,-0.067,-0.1067,-0.0327,94,3.954,76,2.0019,-5.6934,-17.6517,-0.1884,0.4185,-0.0135,64
4.297,82,9.6104,-0.8087,-10.2397,0.0108,-0.0973,-0.0392,94,4.005,77,2.1417,-5.8493,-17.7396,-0.1115,0.3017,-0.0607,64
4.349,83,9.6569,-0.7865,-10.2695,0.085,-0.0486,-0.0329,94,4.057,78,2.2692,-5.5722,-17.6698,-0.0223,0.1654,-0.0811,64
4.401,84,9.5845,-0.6937,-10.1814,0.1067,0.0093,-0.0347,94,4.109,79,2.3917,-5.4711,-17.4319,0.0157,0.0773,-0.1306,64
4.453,85,9.5993,-0.7004,-10.1903,0.0899,0.0028,-0.035,94,4.161,80,2.8133,-5.5245,-17.0915,0.0725,0.0457,-0.1969,64
4.504,86,9.6231,-0.6683,-10.2117,0.0753,-0.0082,-0.0272,94,4.213,81,2.9681,-5.5672,-17.0462,-0.0013,0.0875,-0.2326,64
4.556,87,9.6723,-0.6697,-10.213,0.0683,0.0052,-0.0076,94,4.264,82,2.7727,-5.7799,-17.0092,-0.0333,0.1471,-0.2126,64
4.608,88,9.6469,-0.5989,-10.1816,0.058,0.0152,0.0071,94,4.316,83,2.8971,-5.751,-17.1185,-0.1686,0.1297,-0.1443,64
4.66,89,9.6591,-0.7247,-10.1255,0.0186,0.0107,0.0319,94,4.368,84,2.958,-5.8954,-17.2394,-0.1333,0.0811,-0.0802,64
4.711,90,9.6868,-0.5185,-10.1107,-0.0549,0.0386,0.045,94,4.42,85,3.0074,-5.6432,-17.3014,-0.0533,0.0227,-0.0276,64
4.763,91,9.6978,-0.6919,-10.157,-0.1658,0.032,0.0551,94,4.471,86,2.9677,-5.5491,-17.2616,-0.0369,-0.0205,-0.0014,64
4.815,92,9.717,-0.7961,-10.1666,-0.2075,0.0369,0.0532,94,4.523,87,2.9466,-5.6167,-17.218,0.0086,-0.0397,0.0221,64
4.867,93,9.6497,-0.9561,-10.1267,-0.2159,0.0384,0.0335,94,4.575,88,2.9587,-5.5281,-17.3468,0.0397,-0.0462,0.06,64
4.919,94,9.6097,-0.9809,-10.082,-0.1379,0.0311,0.0222,94,4.627,89,2.9192,-5.3585,-17.302,0.0238,-0.0625,0.0712,64
4.971,95,9.7288,-0.6997,-10.052,-0.0726,0.0215,-0.0072,94,4.679,90,2.9636,-5.5655,-17.1403,-0.001,-0.0471,0.0704,64
5.022,96,9.7446,-0.6413,-10.1163,-0.0427,0.012,0.0013,94,4.73,91,2.9614,-5.4318,-17.0715,-0.0373,0.0168,0.0956,64
5.074,97,9.6962,-0.7082,-10.0844,-0.0016,0.0007,0.0054,94,4.782,92,2.9836,-5.2891,-17.1505,-0.0785,0.0896,0.0965,64
5.126,98,9.705,-0.6584,-10.0895,0.0093,-0.0054,0.0089,94,4.834,93,2.8454,-5.3825,-17.2266,-0.1137,0.1408,0.081,64
5.178,99,9.7095,-0.6862,-10.1065,-0.0204,-0.0069,0.025,94,4.886,94,2.8634,-5.4487,-17.4174,-0.0651,0.1251,0.0895,64
5.229,100,9.6892,-0.721,-10.1336,-0.0509,0.0023,0.0379,94,4.937,95,2.8839,-5.2688,-17.4769,-0.0684,0.1024,0.1025,64
5.281,101,9.6134,-0.8815,-10.1235,-0.0468,-0.0044,0.0329,94,4.989,96,2.8262,-5.3906,-17.417,-0.056,0.0717,0.0764,64
5.333,102,9.6362,-0.8678,-10.1265,-0.0403,-0.0198,0.0189,94,5.041,97,2.8955,-5.5471,-17.3327,-0.013,0.0424,0.0314,64
5.385,103,9.6166,-0.9449,-10.1511,-0.0215,-0.0322,0.0175,94,5.093,98,2.8726,-5.4646,-17.3995,0.0118,0.0111,-0.0005,64
5.437,104,9.6149,-0.8342,-10.1531,0.0614,-0.0426,0.0171,94,5.144,99,2.7877,-5.3866,-17.3608,0.0335,-0.0168,-0.0451,64
5.488,105,9.6465,-0.7526,-10.1829,0.0599,-0.0472,0.0223,94,5.196,100,2.8355,-5.4055,-17.3549,0.0231,-0.0331,-0.0754,64
5.54,106,9.6395,-0.7839,-10.2182,0.0454,-0.0329,0.0447,94,5.248,101,2.9041,-5.4739,-17.3556,0.0419,-0.0419,-0.0881,64
5.592,107,9.5996,-0.8873,-10.2053,0.0329,-0.0307,0.0475,94,5.3,102,2.9463,-5.537,-17.3267,0.0478,-0.0495,-0.0732,64
5.644,108,9.6224,-0.9144,-10.2215,0.0277,-0.0364,0.0361,94,5.352,103,2.9383,-5.438,-17.271,0.0582,-0.0395,-0.0573,64
5.695,109,9.6392,-0.926,-10.2521,0.0222,-0.0381,0.0302,94,5.404,104,2.9512,-5.3902,-17.2219,0.0315,-0.0224,-0.0477,64
5.747,110,9.6186,-0.9436,-10.2738,0.0199,-0.0313,0.0263,94,5.455,105,2.9831,-5.3719,-17.192,-0.0086,0.002,-0.0463,64
5.799,111,9.6139,-0.9724,-10.3042,0.0211,-0.0268,0.025,94,5.507,106,3.022,-5.4534,-17.2131,-0.0134,0.0273,-0.0458,64
5.851,112,9.6217,-0.9765,-10.303,0.0233,-0.0215,0.0213,94,5.559,107,2.973,-5.5444,-17.2173,-0.0278,0.0355,-0.0186,64
5.903,113,9.6194,-0.9852,-10.3084,0.0192,-0.0171,0.0158,94,5.611,108,2.9744,-5.3959,-17.2183,-0.0168,0.0448,-0.0049,64
5.955,114,9.6359,-0.975,-10.3094,0.0163,-0.0118,0.0133,94,5.662,109,3.0466,-5.3507,-17.2726,-0.0331,0.0514,-0.002,64
6.006,115,9.6206,-1.0146,-10.3184,0.0092,-0.006,0.0105,94,5.714,110,3.0466,-5.4845,-17.2708,-0.0561,0.0457,-0.0039,64
6.058,116,9.6188,-1.0221,-10.2963,0.0056,-0.0053,0.0072,94,5.766,111,3.0937,-5.5598,-17.3496,0.029,0.0306,-0.0126,64
6.11,117,9.6382,-1.0229,-10.3138,0.0106,-0.0102,0.0038,94,5.818,112,3.0671,-5.6662,-17.3283,0.1347,-0.0139,-0.0,64
6.162,118,9.6373,-1.0153,-10.3069,0.0065,-0.0005,-0.002,94,5.869,113,2.9446,-5.606,-17.2809,0.1782,-0.065,0.0104,64
6.214,119,9.6238,-1.0263,-10.3075,0.0091,0.0037,0.0022,94,5.921,114,2.8755,-5.5428,-17.2607,0.1905,-0.1051,0.0092,64
6.265,120,9.628,-1.015,-10.3081,0.0082,0.0099,0.0051,94,5.973,115,2.8748,-5.5167,-17.1863,0.1536,-0.1455,0.0057,64
6.317,121,9.6182,-1.0329,-10.2906,0.004,0.0078,0.0008,94,6.025,116,2.8488,-5.5754,-17.1128,0.129,-0.1567,0.0009,64
6.369,122,9.6093,-1.0318,-10.2787,0.004,-0.0045,-0.0086,94,6.076,117,2.8671,-5.506,-17.0202,0.0452,-0.1316,0.0042,64
6.421,123,9.6147,-0.9765,-10.2486,0.0197,-0.0296,-0.0293,94,6.128,118,2.9072,-5.4763,-16.9857,-0.0045,-0.0647,-0.0064,64
6.472,124,9.6994,-0.8177,-10.2864,0.0722,-0.0365,-0.0468,94,6.18,119,2.9107,-5.6429,-17.0238,-0.0761,-0.0058,-0.0092,64
6.524,125,9.6399,-0.799,-10.2551,0.0941,-0.0318,-0.0383,94,6.232,120,2.836,-5.7202,-17.122,-0.0641,0.025,-0.0103,64
6.576,126,9.6709,-0.7654,-10.2608,0.1128,-0.0231,-0.0369,94,6.284,121,2.8449,-5.6339,-17.2671,-0.033,0.0101,-0.0061,64
6.628,127,9.6584,-0.7178,-10.2868,0.1011,-0.0033,-0.0262,94,6.335,122,2.8037,-5.479,-17.2913,0.0108,-0.0392,-0.0282,64
6.68,128,9.6624,-0.7014,-10.2822,0.0663,0.0164,-0.0056,94,6.387,123,2.8266,-5.3413,-17.1906,0.0171,-0.0824,-0.0634,64
6.731,129,9.6493,-0.7636,-10.2812,0.0355,0.0282,0.0111,94,6.439,124,2.8771,-5.5473,-17.1101,-0.0158,-0.0798,-0.0794,64
6.783,130,9.6473,-0.8154,-10.275,0.0178,0.0297,0.0064,94,6.491,125,2.8986,-5.7607,-17.0846,-0.0476,-0.0368,-0.0534,64
6.835,131,9.6309,-0.8468,-10.2589,0.0062,0.0183,-0.0031,94,6.542,126,2.7343,-5.9422,-17.1792,-0.0419,-0.0029,0.0162,64
6.887,132,9.6415,-0.8274,-10.2644,-0.0062,0.005,-0.0053,94,6.594,127,2.5615,-5.7084,-17.3015,0.0306,-0.0005,0.0943,64
6.939,133,9.639,-0.8296,-10.266,-0.0136,-0.015,0.0,94,6.646,128,2.5778,-5.561,-17.4213,-0.0084,-0.0132,0.1698,64
6.99,134,9.6252,-0.86,-10.2802,-0.0192,-0.0338,0.0078,94,6.698,129,2.6971,-5.566,-17.3175,-0.0465,-0.0463,0.2262,64
7.042,135,9.6491,-0.9089,-10.3355,-0.0099,-0.048,0.0072,94,6.75,130,2.7173,-5.4619,-17.0997,-0.0476,-0.0118,0.2054,64
7.094,136,9.6415,-0.9093,-10.3464,0.0017,-0.039,-0.0158,94,6.801,131,2.7881,-5.4399,-17.0895,-0.0597,0.0678,0.1479,64
7.146,137,9.6586,-0.9079,-10.3567,0.0352,-0.0251,-0.0427,94,6.853,132,2.8225,-5.5021,-17.2127,-0.085,0.133,0.1138,64
7.198,138,9.6288,-0.7835,-10.3511,0.1125,0.0226,-0.0369,94,6.905,133,2.7376,-5.5597,-17.2379,-0.0649,0.165,0.0945,64
7.249,139,9.5939,-0.7109,-10.2859,0.1411,0.0213,-0.0231,94,6.957,134,2.6601,-5.4502,-17.2577,-0.0794,0.1838,0.0822,64
7.301,140,9.5967,-0.7315,-10.2499,0.1035,0.0191,-0.0092,94,7.009,135,2.6397,-5.6336,-17.2632,-0.1237,0.1784,0.0608,64
7.353,141,9.6056,-0.7979,-10.2279,0.0762,0.0086,-0.0086,94,7.06,136,2.6953,-5.6869,-17.3004,-0.0806,0.1588,0.045,64
7.405,142,9.6306,-0.8053,-10.2329,0.0611,-0.0082,-0.0058,94,7.112,137,2.6958,-5.6624,-17.2845,-0.0717,0.1338,0.0515,64
7.457,143,9.6948,-0.7769,-10.1871,0.0056,-0.0046,0.0065,94,7.164,138,2.6732,-5.5367,-17.3079,-0.0457,0.0986,0.0527,64
7.508,144,9.6822,-0.6049,-10.2276,-0.084,0.0031,0.0265,94,7.216,139,2.7386,-5.5059,-17.2827,-0.0298,0.069,0.044,64
7.56,145,9.6579,-0.7658,-10.2419,-0.1396,-0.0111,0.035,94,7.268,140,2.7458,-5.4523,-17.256,-0.041,0.0429,0.0177,64
7.612,146,9.6454,-0.8279,-10.2399,-0.1462,-0.0082,0.0363,94,7.319,141,2.7571,-5.3439,-17.2609,-0.0447,0.0472,-0.0272,64
7.664,147,9.6799,-0.8505,-10.2937,-0.1106,-0.0178,0.0171,94,7.371,142,2.8341,-5.5634,-17.2796,-0.0579,0.0444,-0.0495,64
7.716,148,9.6204,-0.8815,-10.3214,-0.0831,-0.0138,0.0051,94,7.423,143,2.8913,-5.5723,-17.3543,-0.0172,0.0225,-0.0529,64
7.767,149,9.6621,-0.8991,-10.3498,-0.0471,-0.0154,0.0054,94,7.475,144,2.9331,-5.4411,-17.3571,0.0157,0.0069,-0.0472,64
7.819,150,9.6268,-0.9264,-10.3553,-0.0431,-0.012,0.0097,94,7.526,145,2.9377,-5.3549,-17.2735,0.0185,0.001,-0.0581,64
7.871,151,9.6369,-0.9584,-10.3803,-0.0271,-0.021,0.008,94,7.578,146,2.9674,-5.3901,-17.2318,0.0082,0.0011,-0.0795,64
7.923,152,9.6331,-0.9814,-10.3983,0.0041,-0.0232,-0.003,94,7.63,147,3.0381,-5.3975,-17.217,0.0012,-0.0061,-0.0865,64
7.974,153,9.62,-0.9551,-10.3815,0.0111,-0.018,-0.0013,94,7.682,148,3.0772,-5.3729,-17.1689,0.0136,-0.0172,-0.0922,64
8.026,154,9.6263,-0.9118,-10.3875,0.0087,-0.0119,0.0051,94,7.734,149,2.948,-5.3274,-17.284,-0.0564,-0.0057,-0.0938,64
8.078,155,9.6294,-0.908,-10.3912,-0.0027,-0.0021,0.0216,94,7.785,150,2.9536,-5.4984,-17.3402,-0.0707,-0.0156,-0.0896,64
8.13,156,9.6343,-0.9223,-10.3832,-0.0219,0.0106,0.0253,94,7.837,151,2.9538,-5.457,-17.3277,-0.011,-0.0539,-0.0795,64
8.182,157,9.6205,-0.9667,-10.397,-0.0456,0.0137,0.0184,94,7.889,152,2.9423,-5.1847,-17.316,0.0025,-0.0416,-0.0513,64
8.233,158,9.6438,-0.9672,-10.4045,-0.0649,0.0098,0.0106,94,7.94,153,2.97,-5.3014,-17.4043,-0.0057,-0.0356,-0.0608,64
8.285,159,9.6346,-0.9857,-10.4736,-0.0758,-0.0095,0.0053,94,7.992,154,3.0488,-5.2806,-17.3763,0.0855,-0.043,-0.0671,64
8.337,160,9.6014,-1.0096,-10.4595,-0.0847,0.0085,-0.003,94,8.044,155,3.1513,-5.2237,-17.443,0.0986,-0.06,-0.0381,64
8.389,161,9.6083,-1.0112,-10.4391,-0.0643,0.0069,-0.0197,94,8.096,156,3.1842,-5.1356,-17.3681,0.0883,-0.0704,-0.0142,64
8.441,162,9.616,-0.9952,-10.4203,-0.034,0.0018,-0.036,94,8.148,157,3.1334,-5.0993,-17.2033,0.0746,-0.0611,-0.0492,64
8.492,163,9.6502,-1.0886,-10.4788,0.0699,-0.0081,-0.0466,94,8.199,158,3.2759,-5.2357,-17.1415,0.055,-0.0086,-0.0727,64
8.544,164,9.6599,-1.1361,-10.5159,0.1496,-0.002,-0.0415,94,8.251,159,3.2404,-5.5139,-17.2162,0.0073,0.0364,-0.048,64
8.596,165,9.6638,-1.0085,-10.434,0.1838,0.0109,-0.0288,94,8.303,160,3.1875,-5.4565,-17.2207,0.0538,0.0644,-0.016,64
8.648,166,9.678,-0.826,-10.3626,0.1098,0.0072,-0.0096,94,8.355,161,3.1027,-5.4418,-17.2583,-0.0014,0.0762,0.0429,64
8.7,167,9.682,-0.9063,-10.3309,-0.0246,-0.0012,0.0192,94,8.407,162,3.0484,-5.3653,-17.2571,-0.0205,0.0762,0.0667,64
8.751,168,9.6297,-0.941,-10.3276,-0.0228,-0.0124,0.0118,94,8.459,163,3.0204,-5.3535,-17.266,-0.0491,0.0934,0.0555,64
8.803,169,9.6157,-0.9484,-10.3601,-0.0118,-0.0469,-0.0053,94,8.511,164,2.9849,-5.3476,-17.2464,-0.0806,0.0887,0.0436,64
8.855,170,9.64,-0.8479,-10.4095,0.0168,-0.0712,-0.021,94,8.562,165,3.0489,-5.3789,-17.3179,-0.0579,0.0755,0.0111,64
8.906,171,9.6345,-0.8161,-10.4498,0.0336,-0.0915,-0.0329,94,8.614,166,3.1179,-5.3834,-17.1987,0.003,0.0487,-0.0116,64
8.958,172,9.6272,-0.7669,-10.534,0.0245,-0.1076,-0.0393,94,8.666,167,3.1492,-5.3333,-17.1918,-0.0041,0.0324,-0.0305,64
9.01,173,9.6225,-0.7691,-10.5948,0.0197,-0.1087,-0.0368,94,8.718,168,3.2208,-5.2402,-17.2026,0.0461,0.0397,-0.0737,64
9.062,174,9.6186,-0.7545,-10.6547,0.0256,-0.0975,-0.0372,94,8.77,169,3.2431,-5.2398,-17.1441,0.0068,0.0404,-0.0899,64
9.114,175,9.6116,-0.7654,-10.7147,0.0318,-0.0765,-0.0324,94,8.821,170,3.2929,-5.2591,-17.2206,0.0154,0.0416,-0.1287,64
9.165,176,9.6336,-0.7139,-10.7405,0.0512,-0.0605,-0.0335,94,8.873,171,3.4432,-5.2943,-17.1045,0.0414,0.0385,-0.1542,64
9.217,177,9.6226,-0.7378,-10.7428,0.0591,-0.0538,-0.0313,94,8.925,172,3.479,-5.3635,-17.1649,0.0382,0.0327,-0.1462,64
9.269,178,9.6507,-0.6147,-10.7577,0.0424,-0.0484,-0.009,94,8.977,173,3.449,-5.4301,-17.0432,0.0856,0.0249,-0.1502,64
9.321,179,9.6286,-0.6975,-10.7939,0.0317,-0.0407,0.0122,94,9.029,174,3.4753,-5.4369,-16.9689,0.0878,0.0234,-0.1265,64
9.373,180,9.6256,-0.6798,-10.8055,0.0142,-0.0356,0.0262,94,9.08,175,3.54,-5.3641,-17.0109,0.0877,0.0327,-0.1055,64
9.424,181,9.5748,-0.9667,-10.7924,-0.0634,-0.0465,0.0618,94,9.132,176,3.6366,-5.3414,-16.8976,0.0819,0.0429,-0.0992,64
9.476,182,9.606,-0.9301,-10.8091,-0.0519,-0.0431,0.0579,94,9.184,177,3.7624,-5.3565,-16.8535,0.0303,0.0504,-0.0816,64
9.528,183,9.5807,-0.9105,-10.8342,-0.0502,-0.027,0.0446,94,9.236,178,3.7922,-5.3486,-16.7779,0.0574,0.069,-0.0722,64
9.58,184,9.5894,-0.9281,-10.8725,-0.0378,-0.017,0.0401,94,9.288,179,3.7486,-5.2919,-16.7266,0.0312,0.0876,-0.0834,64
9.632,185,9.6206,-0.8877,-10.875,-0.0361,0.0022,0.0365,94,9.339,180,3.7603,-5.2767,-16.7599,0.0478,0.1091,-0.1185,64
9.683,186,9.5709,-0.9006,-10.8986,-0.0772,0.0485,0.0351,94,9.391,181,3.885,-5.3342,-16.7563,0.0491,0.1354,-0.1481,64
9.735,187,9.5526,-0.9326,-10.8672,-0.0737,0.0304,0.0189,94,9.443,182,3.9377,-5.6888,-16.953,0.0808,0.1492,-0.1872,64
9.787,188,9.5689,-0.9132,-10.8675,-0.0616,0.0089,0.0036,94,9.495,183,4.1359,-5.3427,-16.4704,0.1736,0.1789,-0.2494,64
9.839,189,9.5655,-0.9091,-10.8757,-0.0477,-0.0147,-0.009,94,9.547,184,4.3655,-5.5971,-16.3146,0.3012,0.2787,-0.294,64
9.89,190,9.5728,-0.8684,-10.8687,-0.0376,-0.0342,-0.0293,94,9.598,185,4.6,-5.4858,-16.0782,0.5969,0.3782,-0.4077,64
9.942,191,9.5682,-0.8635,-10.9113,-0.0176,-0.0482,-0.0468,94,9.65,186,4.8987,-5.4945,-15.7155,0.8435,0.4551,-0.5122,64
9.994,192,9.5495,-1.0222,-10.9988,0.0933,-0.0602,-0.0581,94,9.702,187,5.184,-5.0904,-15.3856,0.7592,0.5008,-0.5639,64
10.046,193,9.5346,-0.9867,-10.9736,0.1198,-0.0439,-0.0332,94,9.754,188,5.3461,-5.106,-15.2787,0.4836,0.5243,-0.6353,64
10.098,194,9.5649,-0.967,-10.9827,0.1145,-0.0215,-0.0185,94,9.806,189,5.5734,-4.9082,-15.1129,0.3857,0.5092,-0.7007,64
10.149,195,9.5874,-0.8899,-10.9522,0.0947,0.002,-0.0057,94,9.857,190,5.7324,-4.8094,-14.7229,0.2125,0.4771,-0.7694,64
10.201,196,9.6055,-0.876,-10.9544,0.0742,0.0144,0.0086,94,9.909,191,6.1941,-4.7356,-14.7123,0.1399,0.4824,-0.8237,64
10.253,197,9.5955,-0.8877,-10.913,0.0599,0.0148,-0.0007,94,9.961,192,6.7018,-4.6144,-14.3666,-0.0158,0.4401,-0.7787,64
10.305,198,9.637,-0.8109,-10.8963,0.0527,0.0264,-0.011,94,10.012,193,7.1991,-4.8018,-15.0288,-0.0916,0.4044,-0.6801,64
10.357,199,9.6246,-0.8322,-10.8611,0.0321,0.037,-0.0033,94,10.064,194,7.4162,-4.5048,-14.5137,-0.1242,0.3587,-0.5312,64
10.409,200,9.6224,-0.7987,-10.8403,0.0223,0.0394,-0.0008,94,10.116,195,7.5761,-4.3459,-14.0329,-0.1247,0.3361,-0.4022,64
10.46,201,9.601,-0.8091,-10.8077,0.0094,0.0373,0.0115,94,10.168,196,7.6565,-4.1926,-13.9729,-0.1684,0.3027,-0.272,64
10.512,202,9.6084,-0.8167,-10.8207,0.0058,0.0386,0.0172,94,10.22,197,7.6355,-3.881,-13.8531,-0.1929,0.2433,-0.1632,64
10.564,203,9.6327,-0.8182,-10.7993,-0.0022,0.0538,0.0391,94,10.271,198,7.601,-3.746,-13.8293,-0.1444,0.1744,-0.1122,64
10.616,204,9.6168,-0.798,-10.7514,-0.0512,0.0853,0.0488,94,10.323,199,7.668,-3.7018,-13.7799,-0.1055,0.1072,-0.0716,64
10.668,205,9.6154,-0.8366,-10.7334,-0.0781,0.1098,0.0462,94,10.375,200,7.7223,-3.8115,-13.8346,-0.1348,0.0276,0.0012,64
10.719,206,9.6022,-0.8859,-10.6574,-0.0876,0.0984,0.0417,94,10.427,201,7.7297,-4.0665,-14.0849,-0.1099,-0.0817,0.127,64
10.771,207,9.6083,-0.9151,-10.611,-0.0897,0.0854,0.0328,94,10.478,202,7.5707,-4.2142,-14.1144,-0.0364,-0.2032,0.2829,64
10.823,208,9.6001,-0.9341,-10.5599,-0.0694,0.0715,0.0199,94,10.53,203,7.3768,-4.2459,-14.1772,-0.022,-0.3236,0.4266,64
10.875,209,9.6022,-0.9157,-10.516,-0.0538,0.0531,0.0168,94,10.582,204,7.184,-4.3013,-14.2352,0.0474,-0.4115,0.5154,64
10.926,210,9.6018,-0.942,-10.4763,-0.0469,0.0379,0.0144,94,10.634,205,7.0325,-4.348,-14.2516,0.1053,-0.4698,0.5444,64
10.978,211,9.612,-0.9847,-10.5262,-0.0237,0.0187,0.0035,94,10.686,206,6.8951,-4.3635,-14.2136,0.1389,-0.4987,0.5394,64
11.03,212,9.6355,-0.9198,-10.5036,-0.001,0.0137,0.0012,94,10.737,207,6.597,-4.5143,-14.2816,0.1605,-0.5085,0.485,64
11.082,213,9.6261,-0.9434,-10.4976,0.0071,0.0038,0.0006,94,10.789,208,6.4127,-4.6295,-14.4929,0.1502,-0.4889,0.4189,64
11.134,214,9.6277,-0.9186,-10.4659,0.0024,-0.0064,0.001,94,10.841,209,6.27,-4.9751,-14.8321,0.0533,-0.4923,0.4125,64
11.185,215,9.6165,-0.926,-10.4843,0.004,-0.0084,0.0046,94,10.893,210,6.0661,-5.3556,-15.2139,-0.0463,-0.5554,0.4946,64
11.237,216,9.6076,-0.9481,-10.485,0.0169,-0.0083,0.0071,94,10.944,211,5.7379,-5.6053,-15.4256,-0.007,-0.6289,0.5836,64
11.289,217,9.6234,-0.965,-10.481,0.0179,-0.0105,0.0082,94,10.996,212,5.3663,-5.6974,-15.4473,0.0187,-0.6771,0.6463,64
11.341,218,9.6211,-0.9646,-10.4737,0.0153,-0.0089,0.0081,94,11.048,213,4.9444,-5.76,-15.3577,0.0541,-0.6698,0.6293,64
11.392,219,9.6237,-0.9664,-10.4842,0.0122,-0.0145,0.0092,94,11.1,214,4.5779,-5.7998,-15.3038,0.1248,-0.607,0.548,64
11.444,220,9.6173,-0.9661,-10.4988,0.0113,-0.0176,0.0093,94,11.152,215,4.302,-5.7707,-15.2379,0.199,-0.4991,0.4308,64
11.496,221,9.6316,-0.9507,-10.5182,0.0086,-0.0065,0.0182,94,11.203,216,4.0473,-5.6349,-15.2559,0.1624,-0.3484,0.2753,64
11.548,222,9.6042,-0.969,-10.4619,-0.0054,0.0047,0.022,94,11.255,217,3.9631,-5.7238,-15.4894,0.0569,-0.1848,0.1282,64
11.6,223,9.6101,-0.9699,-10.4966,-0.0059,0.0016,0.0141,94,11.307,218,4.0017,-5.8869,-15.7539,-0.0161,-0.0713,0.0268,64
11.652,224,9.6221,-0.9697,-10.4855,-0.008,0.0054,0.0131,94,11.359,219,3.9479,-5.9894,-15.8038,-0.0751,-0.0006,-0.0249,64
11.703,225,9.6189,-0.9735,-10.488,-0.0045,0.0006,0.009,94,11.411,220,3.8316,-6.0996,-15.8471,-0.1347,0.057,-0.0768,64
11.755,226,9.625,-0.9886,-10.5038,-0.001,-0.0012,0.0103,94,11.462,221,3.9163,-6.2992,-15.9597,-0.1953,0.0972,-0.0884,64
11.807,227,9.6254,-0.9991,-10.5136,0.0028,-0.002,0.0111,94,11.514,222,3.9949,-6.4275,-16.002,-0.2001,0.1026,-0.0357,64
11.859,228,9.6186,-0.9752,-10.5073,0.0042,-0.0062,0.0092,94,11.566,223,3.9495,-6.3614,-15.9246,-0.1822,0.1113,0.02,64
11.911,229,9.5873,-0.9685,-10.5394,-0.0317,0.0183,0.0203,94,11.618,224,3.868,-6.2593,-15.8752,-0.1916,0.1456,0.0495,64
11.962,230,9.5764,-0.9642,-10.5472,-0.0801,0.0404,0.0242,94,11.669,225,3.7747,-6.1751,-15.9139,-0.2228,0.2032,0.0473,64
12.014,231,9.5694,-0.9939,-10.5338,-0.1249,0.0448,0.027,94,11.721,226,3.823,-6.2087,-16.0911,-0.2384,0.2335,0.0391,64
12.066,232,9.5803,-0.9993,-10.5209,-0.1539,0.041,0.0232,94,11.773,227,4.0256,-6.2325,-16.2013,-0.1987,0.2061,0.0523,64
12.118,233,9.5887,-0.993,-10.518,-0.174,0.0418,0.0226,94,11.825,228,4.0326,-6.0159,-16.0845,-0.0962,0.161,0.0288,64
12.17,234,9.5991,-1.0256,-10.4818,-0.1974,0.0472,0.0166,94,11.877,229,3.8444,-5.8903,-16.0983,0.0186,0.1271,-0.0733,64
12.221,235,9.6336,-0.994,-10.4778,-0.2334,0.0593,0.011,94,11.928,230,3.5408,-5.3791,-15.509,0.1673,0.2221,-0.3547,64
12.273,236,9.5958,-1.047,-10.4668,-0.2556,0.0856,0.0021,94,11.98,231,3.328,-3.8035,-13.7478,0.0083,0.545,-0.8151,64
12.325,237,9.617,-1.0002,-10.395,-0.2346,0.0939,-0.0139,94,12.032,232,3.4221,-2.5594,-12.6188,-0.0956,1.0827,-1.2663,64
12.377,238,9.6214,-1.003,-10.3813,-0.2351,0.0982,-0.0225,94,12.083,233,7.6149,-1.3782,-12.9012,-0.2701,1.4752,-1.5956,64
12.428,239,9.6678,-0.8469,-10.3066,-0.1439,0.0883,-0.0451,94,12.135,234,4.2628,0.9143,-11.5116,0.1728,0.9369,-1.2518,64
12.48,240,9.6862,-0.8409,-10.2791,-0.1258,0.0921,-0.0417,94,12.187,235,4.5535,0.4316,-12.2161,0.2199,0.8683,-1.0887,64
12.532,241,9.6922,-0.8183,-10.2286,-0.0828,0.0896,-0.0506,94,12.239,236,5.741,0.6184,-11.9861,0.2848,0.6635,-0.9002,64
12.584,242,9.6688,-0.8775,-10.224,-0.0807,0.1051,-0.0696,94,12.291,237,6.5467,0.4717,-11.7867,0.2235,0.4803,-0.6429,64
12.636,243,9.6782,-0.7775,-10.1828,-0.0233,0.1228,-0.0874,94,12.342,238,7.1268,0.3644,-11.799,0.1686,0.3576,-0.4483,64
