right_leg_timestamp,right_leg_index,right_leg_accel_x,right_leg_accel_y,right_leg_accel_z,right_leg_gyro_x,right_leg_gyro_y,right_leg_gyro_z,right_leg_battery_percentage,left_leg_timestamp,left_leg_index,left_leg_accel_x,left_leg_accel_y,left_leg_accel_z,left_leg_gyro_x,left_leg_gyro_y,left_leg_gyro_z,left_leg_battery_percentage
0.677,13,9.2975,-2.2138,-10.6988,0.029,0.1654,0.0175,93,0.185,3,8.221,-1.7107,-16.0559,-0.0459,-1.3664,0.1723,63
0.729,14,9.2595,-2.2847,-10.5723,-0.0939,0.1431,0.0611,93,0.237,4,6.7503,-2.014,-15.592,-0.1878,-1.6089,0.2353,63
0.781,15,9.2982,-2.2214,-10.5617,-0.3201,0.1182,0.1377,93,0.289,5,5.7012,-1.7932,-15.9111,-0.3288,-1.6388,0.2322,63
0.832,16,9.4029,-2.6494,-10.699,-0.2776,-0.0033,0.0957,93,0.34,6,5.0693,-1.8615,-16.2401,-0.3001,-1.5335,0.1708,63
0.884,17,9.3568,-2.6673,-10.7954,-0.261,-0.0805,0.0247,93,0.392,7,4.6824,-1.8209,-16.3993,-0.0077,-1.3084,0.0751,63
0.936,18,9.3387,-2.6317,-10.9042,-0.1387,-0.0875,0.0102,93,0.444,8,3.897,-1.8691,-16.4755,0.0992,-0.9706,-0.0578,63
0.988,19,9.3359,-2.5456,-10.8538,-0.045,-0.0572,0.1375,93,0.496,9,3.2962,-1.9615,-16.8773,0.03,-0.6289,-0.1855,63
1.04,20,9.3168,-2.9372,-10.8924,-0.1349,-0.0547,0.2499,93,0.547,10,3.1705,-2.107,-17.595,-0.0226,-0.3815,-0.2833,63
1.091,21,9.2793,-3.0222,-10.984,-0.151,-0.1429,0.2493,93,0.599,11,3.1808,-2.2687,-18.0872,0.0847,-0.2582,-0.3453,63
1.143,22,9.0735,-3.0981,-11.1386,-0.1085,-0.2037,0.2523,93,0.651,12,3.2384,-2.2927,-18.3683,0.1432,-0.1928,-0.4057,63
1.195,23,8.6209,-3.1958,-11.4404,-0.085,-0.1558,0.2468,93,0.703,13,3.1744,-2.4105,-18.484,0.0628,-0.1214,-0.4336,63
1.247,24,8.6647,-3.2697,-11.4517,-0.0112,-0.1107,0.2246,93,0.755,14,3.1306,-2.5496,-18.4672,0.0686,-0.0874,-0.4294,63
1.299,25,8.8078,-3.1974,-11.484,-0.0173,-0.0761,0.1856,93,0.807,15,3.0866,-2.5185,-18.2802,0.1471,-0.0378,-0.3866,63
1.35,26,8.8645,-3.2486,-11.5482,-0.0416,0.0056,0.1997,93,0.858,16,3.1068,-2.4017,-18.3186,0.1227,0.0563,-0.2616,63
1.403,27,8.7185,-3.5788,-11.5014,-0.1067,0.09,0.1189,93,0.91,17,3.0344,-2.228,-18.5622,-0.006,0.1096,-0.1193,63
1.454,28,8.462,-2.8414,-11.2616,-0.0844,0.0661,0.0289,93,0.962,18,3.0225,-2.031,-18.7487,-0.0432,0.0921,-0.0399,63
1.506,29,8.5261,-2.8237,-11.2579,-0.1832,0.0097,0.0132,93,1.014,19,3.0412,-1.8311,-18.7434,0.0105,0.0656,-0.0029,63
1.558,30,8.4418,-3.196,-11.3524,-0.1597,0.0663,-0.0304,93,1.065,20,2.995,-1.8208,-18.7261,0.066,0.0487,-0.0369,63
1.609,31,8.496,-3.2199,-11.4534,-0.0931,0.094,-0.1488,93,1.117,21,3.1715,-1.9675,-18.7185,0.0724,0.0288,-0.1449,63
1.661,32,8.7838,-3.0468,-11.3329,-0.0595,0.0459,-0.0996,93,1.169,22,3.24,-2.1434,-18.8264,0.1056,-0.0275,-0.206,63
1.713,33,9.0889,-2.9502,-11.0718,-0.0711,0.0548,-0.0996,93,1.221,23,3.174,-2.232,-18.9634,0.1244,-0.0889,-0.1913,63
1.765,34,8.9759,-3.0793,-11.0901,-0.0654,0.0002,-0.0964,93,1.273,24,3.0204,-2.2894,-18.8973,0.1183,-0.129,-0.1413,63
1.817,35,8.8861,-3.166,-11.1563,0.0105,-0.0236,-0.0769,93,1.324,25,2.9762,-2.2124,-18.6774,0.1161,-0.1268,-0.0826,63
1.868,36,9.0045,-3.2953,-11.2369,0.0462,-0.0525,-0.143,93,1.376,26,2.885,-2.204,-18.5582,0.0736,-0.0765,-0.0135,63
1.92,37,9.0578,-3.1689,-11.2416,0.1019,-0.1544,-0.1441,93,1.428,27,2.8347,-2.2201,-18.5788,0.0292,-0.021,0.0319,63
1.972,38,9.1022,-2.9816,-11.4264,0.0655,-0.2078,-0.1253,93,1.48,28,2.8446,-2.3268,-18.7377,0.0213,0.0042,0.0516,63
2.024,39,9.1157,-2.8854,-11.5738,0.0151,-0.147,-0.0104,93,1.532,29,2.951,-2.3641,-18.728,0.0114,0.0135,0.0519,63
2.075,40,9.0822,-2.9284,-11.6255,0.0119,-0.0778,0.0757,93,1.583,30,3.0733,-2.3246,-18.5664,-0.0491,0.0223,0.0623,63
2.127,41,9.0613,-2.9651,-11.6715,-0.003,-0.06,0.127,93,1.635,31,2.9836,-2.3019,-18.4802,-0.055,0.0472,0.0773,63
2.179,42,8.9724,-3.1261,-11.7071,-0.0393,-0.0269,0.1525,93,1.687,32,3.0382,-2.1258,-18.546,0.0156,0.0963,0.0801,63
2.231,43,8.8519,-3.2857,-11.7328,-0.0677,-0.0028,0.0853,93,1.739,33,3.1306,-2.0396,-18.7346,0.0109,0.1415,0.0846,63
2.283,44,8.7158,-3.3814,-11.829,-0.0288,0.0542,0.0094,93,1.79,34,3.1302,-2.0937,-18.7949,-0.038,0.1313,0.0456,63
2.334,45,9.1023,-2.9549,-11.6059,-0.0012,0.0177,0.0006,93,1.842,35,3.1278,-2.2295,-18.7233,-0.0625,0.0878,-0.027,63
2.386,46,9.0692,-3.0414,-11.6454,0.0027,-0.0213,0.0414,93,1.894,36,3.205,-2.2706,-18.5531,0.0038,0.0446,-0.1388,63
2.438,47,9.0877,-3.0245,-11.6905,0.0289,0.0351,0.095,93,1.946,37,3.2079,-2.274,-18.5355,0.0685,0.0184,-0.1973,63
2.49,48,8.9572,-3.2255,-11.5405,-0.0017,0.061,0.0807,93,1.998,38,3.2506,-2.2339,-18.6263,0.04,0.0171,-0.1705,63
2.542,49,8.8927,-3.2881,-11.5692,-0.0118,0.0585,0.0464,93,2.049,39,3.2789,-2.1369,-18.6672,0.0031,0.0093,-0.0992,63
2.593,50,8.8447,-3.3369,-11.5373,-0.0088,0.0718,0.018,93,2.101,40,3.1644,-2.0972,-18.7489,-0.031,0.0031,-0.0313,63
2.645,51,8.8375,-3.2982,-11.5265,-0.0009,0.0869,-0.0555,93,2.153,41,3.1152,-2.1417,-18.7666,-0.0729,-0.004,-0.0072,63
2.697,52,8.978,-3.1605,-11.4523,0.0296,0.0281,0.0,93,2.205,42,3.1435,-2.2423,-18.7862,-0.0478,-0.0477,-0.0108,63
2.749,53,8.9849,-3.1486,-11.4872,0.029,0.0141,0.0301,93,2.257,43,3.1945,-2.1629,-18.6635,0.0012,-0.0988,-0.0063,63
2.801,54,9.0272,-3.1994,-11.4862,0.0428,0.0469,0.0628,93,2.308,44,3.2016,-2.1044,-18.5408,-0.0214,-0.099,0.0294,63
2.852,55,8.8967,-3.2048,-11.3347,0.0389,0.0771,0.0758,93,2.36,45,3.2432,-2.1559,-18.4383,-0.0591,-0.0667,0.061,63
2.904,56,8.8937,-3.1861,-11.3079,-0.0038,0.0853,0.0667,93,2.412,46,3.3261,-2.186,-18.3986,-0.04,-0.0295,0.0694,63
2.956,57,8.8854,-3.2212,-11.2799,-0.0415,0.0881,0.0618,93,2.464,47,3.3548,-2.1619,-18.4131,-0.0237,0.0094,0.0855,63
3.008,58,8.8776,-3.3082,-11.1946,-0.0521,0.1091,0.0465,93,2.515,48,3.2544,-2.1647,-18.4569,-0.0331,0.0383,0.1113,63
3.06,59,8.8474,-3.3835,-11.1902,-0.0525,0.1023,0.0283,93,2.567,49,3.243,-2.181,-18.4789,-0.0102,0.0481,0.1029,63
3.111,60,8.9903,-3.27,-11.117,-0.0482,0.1182,0.0228,93,2.619,50,3.3033,-2.0216,-18.5156,0.0402,0.0792,0.1111,63
3.163,61,8.9579,-3.4491,-11.0596,-0.0385,0.0937,0.0249,93,2.671,51,3.3427,-1.9558,-18.62,0.0335,0.1205,0.1386,63
3.215,62,8.5561,-3.8588,-11.1557,0.1296,0.0615,0.0164,93,2.722,52,3.288,-2.0484,-18.7495,-0.0066,0.1347,0.1083,63
3.267,63,9.4212,-2.9596,-10.8476,0.2292,0.0397,-0.0358,93,2.774,53,3.1562,-2.1785,-18.8069,-0.0571,0.1112,0.0869,63
3.318,64,9.3167,-3.1035,-10.8974,0.1862,-0.0708,-0.0385,93,2.826,54,3.0703,-2.2413,-18.7138,-0.0499,0.0552,0.0727,63
3.37,65,9.3244,-3.127,-11.0048,0.0541,-0.0643,-0.0173,93,2.878,55,2.9611,-2.2576,-18.4889,-0.0246,0.0118,0.0594,63
3.422,66,9.2525,-3.1062,-11.0439,-0.0739,-0.0072,0.0009,93,2.929,56,3.0616,-2.2557,-18.4564,-0.0076,0.0088,0.0506,63
3.474,67,9.1207,-3.229,-11.1164,-0.1152,0.0065,-0.0057,93,2.981,57,3.3164,-2.1991,-18.6146,0.0358,0.0256,0.0653,63
3.526,68,8.9905,-3.3827,-11.1464,-0.1019,0.0339,-0.0127,93,3.033,58,3.4671,-2.1519,-18.7259,0.0777,0.0141,0.0602,63
3.577,69,8.6379,-3.6873,-11.0888,0.061,0.0116,-0.025,93,3.085,59,3.4551,-2.1062,-18.693,0.0374,-0.0115,0.0244,63
3.629,70,8.8993,-3.388,-10.9953,0.0539,-0.0257,-0.0469,93,3.137,60,3.3173,-2.0838,-18.5694,-0.0086,-0.0309,-0.0106,63
3.681,71,8.9186,-3.3621,-11.1252,0.0783,-0.1066,-0.1044,93,3.188,61,3.2599,-2.0883,-18.5065,-0.0132,-0.0396,-0.0577,63
3.733,72,8.9848,-3.2403,-11.1865,0.1441,-0.0682,-0.1109,93,3.24,62,3.3196,-2.1783,-18.5878,-0.0278,-0.0239,-0.123,63
3.785,73,9.1699,-3.169,-11.0892,0.1264,-0.022,0.025,93,3.292,63,3.3772,-2.3761,-18.6806,0.0017,-0.0338,-0.1804,63
3.836,74,9.1792,-3.1802,-11.0283,0.0282,-0.0401,0.0387,93,3.344,64,3.2814,-2.3849,-18.5381,0.0343,-0.089,-0.169,63
3.888,75,9.1171,-3.2701,-11.1359,-0.033,-0.0608,0.0578,93,3.395,65,3.1741,-2.2859,-18.3407,0.0135,-0.1089,-0.0827,63
3.94,76,9.0236,-3.3112,-11.1538,-0.0705,0.0087,0.0458,93,3.447,66,3.1188,-2.0989,-18.2997,-0.0065,-0.0482,0.0306,63
3.992,77,9.0738,-3.2776,-11.1765,-0.0729,0.0358,0.0055,93,3.499,67,3.2205,-2.053,-18.4792,-0.0324,0.045,0.1105,63
4.044,78,8.8829,-3.407,-11.1674,0.0424,0.0543,0.0136,93,3.551,68,3.2919,-2.0505,-18.6888,-0.0768,0.0777,0.1207,63
4.095,79,9.1916,-3.095,-10.952,0.0698,0.0419,0.0003,93,3.603,69,3.229,-2.0478,-18.737,-0.1437,0.0505,0.1103,63
4.147,80,9.0882,-3.2338,-11.1045,0.0567,-0.0887,0.0046,93,3.654,70,3.3264,-2.0459,-18.661,-0.1719,0.0247,0.0568,63
4.199,81,9.1187,-3.1887,-11.1631,0.1005,-0.0542,0.0394,93,3.706,71,3.3874,-2.14,-18.6885,-0.1907,0.0373,-0.0494,63
4.251,82,9.0245,-3.3081,-11.2785,0.0046,-0.0087,0.1088,93,3.758,72,3.4426,-2.2352,-18.7505,-0.1645,0.029,-0.1323,63
4.303,83,9.0617,-3.2605,-11.1773,-0.0509,-0.0264,0.1034,93,3.81,73,3.3361,-2.1846,-18.653,-0.1605,0.0021,-0.1241,63
4.355,84,8.9513,-3.3779,-11.2795,-0.0948,-0.0436,0.0848,93,3.861,74,3.1101,-2.0644,-18.4437,-0.1671,-0.0057,-0.0483,63
4.406,85,9.0188,-3.3931,-11.3033,-0.1552,-0.0079,0.0271,93,3.913,75,2.9869,-1.9245,-18.3432,-0.1127,0.0187,0.0436,63
4.458,86,8.9561,-3.4239,-11.3329,-0.1935,0.0415,-0.0221,93,3.965,76,3.1496,-1.6251,-18.4654,-0.0486,0.0808,0.1334,63
4.51,87,8.8524,-3.5717,-11.3152,-0.1433,0.06,-0.0353,93,4.017,77,3.3737,-1.5266,-18.7093,-0.0367,0.129,0.1785,63
4.562,88,8.5386,-3.7792,-11.2832,0.0508,0.037,-0.0394,93,4.069,78,3.4902,-1.5603,-18.8287,-0.0839,0.1389,0.1391,63
4.613,89,8.8624,-3.3555,-11.0818,0.0704,0.0116,-0.0296,93,4.12,79,3.4967,-1.6095,-18.7226,-0.0852,0.0997,0.0707,63
4.665,90,8.7963,-3.3619,-11.2886,0.0627,-0.0833,-0.039,93,4.172,80,3.6175,-1.5007,-18.5329,-0.035,0.0712,0.011,63
4.717,91,8.8325,-3.3592,-11.2501,0.0964,-0.0492,-0.0263,93,4.224,81,3.5993,-1.499,-18.3777,-0.0509,0.1058,-0.0321,63
4.769,92,8.8569,-3.3959,-11.1381,0.0506,-0.063,-0.0095,93,4.276,82,3.5199,-1.6121,-18.4399,-0.0387,0.1697,-0.085,63
4.821,93,8.9307,-3.2939,-11.1488,-0.0143,-0.0796,-0.0227,93,4.327,83,3.5733,-1.6248,-18.6389,0.0159,0.166,-0.1201,63
4.872,94,8.7153,-3.1768,-11.2484,-0.0406,-0.0364,-0.0139,93,4.379,84,3.5685,-1.5716,-18.7871,0.0258,0.1179,-0.0798,63
4.924,95,8.794,-3.2649,-11.1039,-0.0387,0.0142,-0.0134,93,4.431,85,3.5521,-1.5143,-18.6793,-0.0027,0.0585,-0.0085,63
4.976,96,8.8161,-3.2894,-11.1408,0.0114,0.0503,-0.0212,93,4.483,86,3.6489,-1.5098,-18.535,-0.0043,0.0109,0.0262,63
5.028,97,8.9285,-3.2142,-11.1477,0.077,0.0841,-0.0413,93,4.535,87,3.8468,-1.4622,-18.4634,0.0008,-0.0106,0.0262,63
5.08,98,8.9665,-3.2119,-11.0626,0.1506,0.077,0.0028,93,4.586,88,3.9954,-1.4506,-18.4091,-0.0358,-0.0017,0.0253,63
5.131,99,8.9668,-3.2257,-10.9534,0.134,0.0414,0.0089,93,4.638,89,4.1068,-1.5033,-18.3743,-0.0854,0.0173,0.0034,63
5.183,100,8.997,-3.1883,-10.9775,0.1225,-0.0046,0.0339,93,4.69,90,4.1027,-1.6525,-18.3205,-0.1393,0.0555,-0.0379,63
5.235,101,9.0027,-3.2259,-11.033,0.0637,-0.0026,0.1013,93,4.741,91,4.0059,-1.8179,-18.4364,-0.1073,0.0766,-0.0957,63
5.287,102,9.0909,-3.1771,-11.1032,0.0166,-0.0252,0.1258,93,4.793,92,3.8649,-1.8299,-18.5465,-0.0377,0.0469,-0.0942,63
5.339,103,9.015,-3.2837,-11.0629,-0.0535,-0.0063,0.1289,93,4.845,93,3.7369,-1.7393,-18.4887,-0.0078,0.0064,-0.016,63
5.39,104,8.9624,-3.328,-11.0406,-0.1283,0.0181,0.0793,93,4.897,94,3.6672,-1.6832,-18.3567,0.0025,-0.0042,0.0893,63
5.442,105,8.8391,-3.489,-11.0233,-0.2078,0.0308,-0.0021,93,4.949,95,3.6433,-1.5613,-18.2834,0.0056,-0.0165,0.1636,63
5.494,106,8.8538,-3.4168,-11.0507,-0.2422,0.042,-0.0604,93,5.001,96,3.7053,-1.418,-18.275,0.0144,-0.038,0.1879,63
5.546,107,8.8486,-3.4365,-11.0611,-0.2447,0.0485,-0.0689,93,5.053,97,3.8807,-1.1434,-18.3397,0.034,-0.024,0.1945,63
5.597,108,8.8346,-3.5167,-11.1871,-0.19,0.0478,-0.0861,93,5.104,98,3.9692,-1.0264,-18.4219,0.0208,0.01,0.1703,63
5.649,109,8.763,-3.7878,-11.0582,0.0611,0.005,-0.1217,93,5.156,99,3.9373,-1.0071,-18.5621,-0.0045,0.0319,0.0764,63
5.701,110,8.9531,-3.2674,-10.9253,0.0461,-0.0446,-0.2275,93,5.208,100,3.8021,-1.1252,-18.6986,-0.0013,-0.0016,-0.0239,63
5.753,111,8.8669,-3.2845,-11.0286,0.0923,-0.2647,-0.2489,93,5.26,101,3.6652,-1.2374,-18.7123,0.0385,-0.0803,-0.0903,63
5.805,112,8.9735,-3.0726,-11.214,0.1173,-0.2044,-0.2245,93,5.311,102,3.6359,-0.9628,-18.7781,-0.0127,-0.1532,-0.1329,63
5.857,113,9.0665,-2.9327,-11.2467,0.1903,-0.1224,-0.1903,93,5.363,103,3.6737,-0.7682,-18.9056,-0.0628,-0.2333,-0.2746,63
5.908,114,9.0861,-2.8755,-11.1827,0.1735,-0.0903,-0.146,93,5.415,104,3.788,-0.6036,-19.1673,-0.1614,-0.3421,-0.4126,63
5.96,115,9.1204,-2.779,-11.1414,0.1802,-0.1241,-0.1072,93,5.467,105,3.6449,-0.8318,-19.2892,-0.3166,-0.4578,-0.5307,63
6.012,116,9.1836,-2.7992,-10.9912,0.1399,-0.1841,-0.0793,93,5.518,106,3.3438,-1.4781,-19.1266,-0.2219,-0.5714,-0.5638,63
6.064,117,9.1489,-2.7462,-11.1906,0.1387,-0.173,-0.0186,93,5.57,107,3.1314,-1.7104,-18.9342,-0.1083,-0.5904,-0.4161,63
6.116,118,9.1367,-2.7325,-11.3287,0.1539,-0.1415,0.0328,93,5.622,108,2.7376,-1.9611,-18.7065,-0.0164,-0.4958,-0.1426,63
6.167,119,9.1122,-2.8073,-11.332,0.146,-0.1182,0.0605,93,5.674,109,2.6239,-1.8784,-17.5786,0.246,-0.2102,0.1631,63
6.219,120,9.1043,-2.8205,-11.3526,0.1029,-0.1503,0.0574,93,5.725,110,2.6731,-2.6352,-16.4595,0.6525,0.3576,0.4179,63
6.271,121,9.1009,-2.8104,-11.4699,0.0986,-0.1222,0.0457,93,5.777,111,2.8819,-3.0152,-15.5437,0.8759,0.9459,0.6553,63
6.323,122,9.0792,-2.8281,-11.5574,0.1012,-0.0687,0.0399,93,5.829,112,4.0725,-2.3699,-14.9453,0.3314,1.3754,0.7612,63
6.374,123,9.0688,-2.8456,-11.5777,0.0665,0.0093,0.0464,93,5.881,113,4.8674,-4.3143,-18.8889,-0.2058,1.6888,0.617,63
6.426,124,9.0435,-2.8607,-11.531,0.0547,0.0495,0.0259,93,5.933,114,0.9637,-4.0387,-21.7671,-0.5574,1.907,0.6104,63
6.478,125,9.079,-2.8686,-11.4157,0.0557,0.0655,0.0157,93,5.984,115,2.2236,-4.2709,-20.2995,-0.1217,1.4378,0.3304,63
6.53,126,9.0835,-2.9061,-11.3385,-0.0032,0.0302,-0.0363,93,6.036,116,4.2057,-3.3762,-18.9836,-0.2736,1.1325,0.154,63
6.582,127,9.0791,-2.88,-11.447,-0.0925,-0.04,-0.1226,93,6.088,117,5.0632,-3.1557,-17.8785,-0.2018,0.8845,0.1289,63
6.633,128,9.0739,-2.8665,-11.6855,-0.0387,0.0813,-0.223,93,6.14,118,6.046,-2.8585,-16.9104,-0.1554,0.6479,0.0896,63
6.685,129,9.0889,-2.2019,-11.3725,0.2373,0.1157,-0.0731,93,6.192,119,6.5575,-2.7357,-16.3196,-0.0761,0.3682,0.1094,63
6.737,130,8.9273,-2.3341,-11.2352,0.1252,0.1694,-0.0617,93,6.243,120,6.5439,-2.592,-16.2854,-0.035,0.1795,0.1182,63
6.788,131,9.0389,-2.214,-11.0602,0.0588,0.1509,-0.055,93,6.295,121,6.68,-2.2626,-15.813,-0.0111,0.0334,0.184,63
6.84,132,9.0695,-2.3293,-10.9285,0.0043,0.1082,-0.0196,93,6.347,122,7.0601,-2.2836,-15.5402,-0.0028,-0.1256,0.2919,63
6.892,133,9.0862,-2.2734,-11.0203,-0.0112,0.0559,0.015,93,6.399,123,6.6077,-2.5997,-15.6791,-0.0045,-0.1972,0.2927,63
6.944,134,9.1129,-2.1819,-10.9319,-0.0766,0.0457,0.0518,93,6.451,124,6.2541,-2.7427,-15.9363,0.0643,-0.1975,0.2512,63
6.996,135,9.0869,-2.1928,-10.9883,-0.2977,0.0538,0.1497,93,6.502,125,6.3342,-2.6862,-15.9974,0.0964,-0.1761,0.2036,63
7.048,136,9.0608,-2.5488,-11.1512,-0.392,0.0511,0.1824,93,6.554,126,6.3606,-2.8001,-15.9008,0.0606,-0.1749,0.2048,63
7.1,137,9.0489,-2.6532,-11.2057,-0.2862,0.0381,0.1711,93,6.606,127,6.1296,-3.0029,-15.9889,0.0814,-0.154,0.2213,63
7.151,138,9.0403,-2.7219,-11.2149,-0.2057,0.0391,0.1532,93,6.658,128,6.0501,-3.1691,-15.9981,0.1203,-0.1717,0.2099,63
7.203,139,9.031,-2.8712,-11.1903,-0.1702,0.0368,0.1368,93,6.709,129,6.1012,-3.2067,-16.0515,0.0796,-0.1599,0.2374,63
7.255,140,8.9771,-2.9526,-11.1278,-0.207,0.0618,0.151,93,6.761,130,6.1024,-3.2434,-16.061,0.0032,-0.1407,0.2888,63
7.306,141,8.9945,-3.047,-11.1297,-0.1473,0.0451,0.1431,93,6.813,131,6.1913,-3.3944,-16.1535,-0.0573,-0.1375,0.3291,63
7.358,142,8.9592,-3.1619,-11.1499,-0.0887,0.0364,0.1386,93,6.865,132,6.1341,-3.381,-16.2039,-0.1488,-0.1197,0.3945,63
7.41,143,8.948,-3.2648,-11.1841,-0.024,0.0377,0.1171,93,6.917,133,5.7807,-3.1046,-16.7885,-0.437,-0.105,0.5311,63
7.462,144,8.8945,-3.4153,-10.9999,-0.035,0.0414,0.1497,93,6.968,134,5.4333,-2.8472,-17.4259,-0.996,-0.115,0.5472,63
7.514,145,8.9319,-3.3851,-11.0168,-0.0384,0.031,0.1465,93,7.02,135,4.8651,-2.9225,-17.8387,-0.9506,-0.2733,0.4115,63
7.565,146,8.9224,-3.4283,-10.9733,-0.0913,0.0188,0.1302,93,7.072,136,4.3617,-2.6067,-17.7674,-0.426,-0.4949,0.1996,63
