right_leg_timestamp,right_leg_index,right_leg_accel_x,right_leg_accel_y,right_leg_accel_z,right_leg_gyro_x,right_leg_gyro_y,right_leg_gyro_z,right_leg_battery_percentage,left_leg_timestamp,left_leg_index,left_leg_accel_x,left_leg_accel_y,left_leg_accel_z,left_leg_gyro_x,left_leg_gyro_y,left_leg_gyro_z,left_leg_battery_percentage
0.778,15,9.1165,-3.6821,-10.2122,-0.0209,0.0363,0.029,95,0.265,5,4.4568,7.1371,-12.7864,0.8525,-0.0906,-0.1779,63
0.83,16,9.1061,-3.6035,-10.2085,-0.0241,0.0516,0.014,95,0.317,6,4.1887,7.5046,-13.1536,1.2263,-0.1851,-0.2335,63
0.882,17,9.1942,-3.1165,-9.9983,-0.0869,0.0923,0.0212,95,0.369,7,4.107,7.3787,-13.217,1.0363,-0.3936,-0.3141,63
0.933,18,9.0818,-3.4722,-10.1102,-0.0205,0.0427,-0.0204,95,0.42,8,4.4852,6.8082,-13.9836,0.6347,-0.6492,-0.3675,63
0.985,19,9.2745,-3.9205,-10.3663,0.4901,-0.0607,-0.0414,95,0.472,9,3.9154,7.031,-14.1589,0.1923,-0.6863,-0.2036,63
1.037,20,9.0516,-4.539,-10.2675,-0.1456,0.0325,0.0198,95,0.524,10,3.6194,7.1661,-13.9296,0.0603,-0.5939,-0.2404,63
1.089,21,9.2335,-3.6188,-10.3828,0.087,-0.066,0.0075,95,0.575,11,3.4417,7.5207,-14.1329,0.1056,-0.408,-0.314,63
1.141,22,9.4001,-3.468,-10.484,0.1626,-0.0842,0.0116,95,0.627,12,3.2635,7.463,-14.3541,0.1463,-0.2531,-0.3226,63
1.192,23,9.139,-3.8105,-10.3263,0.182,-0.1072,0.0088,95,0.679,13,3.103,7.4481,-14.7787,0.192,-0.2362,-0.358,63
1.244,24,9.0204,-3.7731,-10.3665,0.1184,-0.1115,0.0422,95,0.731,14,2.7474,7.8393,-15.0188,0.2933,-0.359,-0.5536,63
1.296,25,9.1465,-3.6597,-10.463,-0.0033,-0.0449,0.0554,95,0.783,15,2.2096,7.7236,-15.345,0.3441,-0.4515,-0.6918,63
1.347,26,8.8288,-3.933,-10.2941,-0.0789,-0.0948,0.0282,95,0.834,16,1.8603,7.4109,-15.3187,0.1802,-0.3309,-0.5015,63
1.399,27,8.9128,-3.804,-10.4405,-0.023,-0.101,0.0207,95,0.886,17,1.9985,7.4783,-14.9693,-0.1457,-0.2316,-0.3371,63
1.451,28,9.0716,-3.5895,-10.4655,-0.0614,-0.018,0.0341,95,0.938,18,1.9285,7.5723,-14.8769,-0.5521,-0.1757,-0.1281,63
1.503,29,8.822,-3.7833,-10.3746,-0.1225,0.0211,0.0372,95,0.99,19,1.9765,7.9033,-14.1877,-1.0768,-0.2287,0.0488,63
1.555,30,8.8427,-3.761,-10.374,-0.1567,0.0397,0.0334,95,1.042,20,1.9483,8.5631,-14.6126,-0.677,-0.2624,-0.0105,63
1.606,31,8.8954,-3.7394,-10.4045,-0.2912,0.106,0.0696,95,1.093,21,1.8401,8.9193,-14.3185,-0.6034,-0.054,0.1418,63
1.658,32,8.8678,-3.7327,-10.3868,-0.2222,0.0555,0.0252,95,1.145,22,1.5983,8.9986,-14.2869,-0.3618,0.054,0.0892,63
1.71,33,9.0445,-3.6608,-10.6687,-0.2389,0.0572,-0.006,95,1.197,23,1.5637,8.7111,-13.8408,-0.5171,0.0768,0.04,63
1.762,34,8.8523,-3.8958,-10.607,-0.226,0.0435,-0.0151,95,1.249,24,1.478,8.6275,-13.3461,-0.6044,-0.105,0.1229,63
1.814,35,8.6096,-4.1031,-10.557,-0.0864,0.0136,-0.042,95,1.301,25,1.5525,9.0231,-13.0243,-0.4829,-0.1167,0.0827,63
1.865,36,8.9231,-3.7934,-10.5589,-0.1115,0.0324,-0.0179,95,1.352,26,1.5768,9.2741,-12.5208,-0.4365,-0.3362,0.0619,63
1.917,37,8.6083,-4.1409,-10.4911,0.181,-0.0762,-0.0269,95,1.405,27,1.5514,9.2142,-12.442,-0.3451,-0.7265,0.0049,63
1.969,38,8.9142,-3.6912,-10.6003,0.2406,-0.1437,-0.0067,95,1.456,28,1.8044,9.3139,-13.0278,-0.137,-0.5349,0.0851,63
2.021,39,9.1336,-3.4508,-10.2925,0.1683,-0.0952,0.018,95,1.508,29,1.7769,9.2337,-12.7005,-0.0088,-0.425,0.0523,63
2.073,40,9.2324,-3.3424,-10.4552,-0.0002,0.0005,0.0242,95,1.56,30,1.6988,9.2639,-13.0909,0.1397,-0.4246,0.0785,63
2.124,41,9.1148,-3.632,-10.4878,-0.0608,0.0084,0.0199,95,1.611,31,1.596,8.8965,-13.3322,0.3718,0.0454,-0.0247,63
2.176,42,8.8862,-3.7149,-10.499,-0.1618,0.0581,0.02,95,1.663,32,1.3393,8.5669,-13.4192,0.4908,0.1734,-0.1085,63
2.228,43,8.6235,-4.238,-10.4555,-0.0108,-0.0089,0.0084,95,1.715,33,1.0235,8.7533,-13.554,0.1783,0.1646,-0.0664,63
2.28,44,8.9443,-3.843,-10.4927,0.0913,-0.0537,0.0165,95,1.767,34,1.1324,8.7755,-13.2571,0.0895,0.2117,-0.0786,63
2.332,45,9.1014,-3.6757,-10.4683,0.0819,-0.0208,0.0282,95,1.819,35,1.548,8.6735,-13.1507,0.092,0.1924,-0.0853,63
2.383,46,8.9133,-3.7764,-10.4366,0.0067,0.0711,-0.0032,95,1.87,36,1.6315,8.7885,-13.469,0.0353,0.1626,0.0013,63
2.435,47,8.9506,-3.7983,-10.4282,-0.1067,0.1091,0.0003,95,1.922,37,1.4572,8.5125,-13.2722,0.0924,0.0981,0.0225,63
2.487,48,8.5317,-4.2546,-10.3825,-0.1658,0.0915,0.0145,95,1.974,38,1.2282,8.3067,-13.4285,0.0964,0.0209,0.0551,63
2.539,49,8.6853,-3.8057,-10.3252,0.0661,-0.0064,-0.0234,95,2.026,39,1.0949,8.5794,-13.4323,-0.0081,0.0578,0.0582,63
2.59,50,9.0981,-3.6823,-10.5923,0.0665,0.0083,-0.0105,95,2.077,40,1.2652,8.7366,-13.4762,-0.0362,0.1319,-0.0045,63
2.642,51,8.9663,-3.8462,-10.4019,0.0824,0.0345,-0.0055,95,2.129,41,1.5956,8.5231,-13.6622,0.0431,0.1686,0.0028,63
2.694,52,8.8424,-3.9131,-10.4113,0.0717,0.0125,-0.0172,95,2.181,42,1.6875,8.4103,-13.5834,0.0292,0.1128,0.026,63
2.746,53,8.8382,-3.7612,-10.4588,0.0638,-0.0298,-0.0295,95,2.233,43,1.5308,8.5036,-13.2033,-0.0838,0.0835,0.0642,63
2.798,54,8.8714,-3.8783,-10.3062,0.1162,-0.0989,-0.0182,95,2.285,44,1.4036,8.7005,-13.3305,-0.1131,0.0218,0.0321,63
2.849,55,8.8997,-3.8237,-10.3445,0.1634,-0.1027,-0.0005,95,2.336,45,1.5775,8.6427,-13.3893,0.0042,0.0109,-0.0179,63
2.901,56,8.9797,-3.7517,-10.3146,0.1384,-0.0828,0.0168,95,2.388,46,1.7171,8.5583,-13.514,-0.0181,0.0608,-0.0025,63
2.953,57,9.0859,-3.7175,-10.2753,0.0859,-0.0047,0.0129,95,2.44,47,1.7456,8.6272,-13.5673,-0.005,0.0423,0.0205,63
3.005,58,9.0489,-3.7009,-10.2945,0.0188,0.0155,0.0112,95,2.492,48,1.694,8.5722,-13.548,0.1008,0.0158,0.0093,63
3.057,59,8.9038,-3.8195,-10.345,-0.0326,0.0075,0.0122,95,2.543,49,1.5563,8.3992,-13.5085,0.1663,-0.0086,-0.003,63
3.109,60,8.7939,-3.891,-10.4108,0.0166,-0.0469,0.0174,95,2.595,50,1.5456,8.5709,-13.5019,0.1667,0.0261,-0.0182,63
3.16,61,9.0465,-3.7713,-10.393,-0.0125,-0.0181,0.0244,95,2.647,51,1.5902,8.5251,-13.6837,0.1118,0.0731,-0.0299,63
3.212,62,8.9651,-3.845,-10.4258,-0.0506,0.0362,0.025,95,2.699,52,1.8165,8.4667,-13.7576,0.1569,0.0589,-0.0006,63
3.264,63,8.939,-3.7705,-10.3867,-0.0737,0.0688,0.0112,95,2.751,53,1.8416,8.3463,-13.7264,0.0992,0.0576,0.0565,63
3.316,64,8.857,-3.8038,-10.3927,-0.1226,0.0789,-0.0064,95,2.803,54,1.8285,8.4403,-13.8594,0.0608,0.0521,0.0604,63
3.368,65,8.8436,-3.7769,-10.3115,-0.1457,0.0859,-0.0067,95,2.854,55,1.8411,8.2824,-13.6993,0.1465,0.0487,0.0138,63
3.419,66,8.8497,-3.7679,-10.2819,-0.168,0.0783,-0.0078,95,2.906,56,1.7036,8.2744,-13.9429,0.1976,0.0414,-0.0017,63
3.471,67,8.7389,-3.9534,-10.2621,-0.1574,0.0579,-0.0045,95,2.958,57,1.6384,8.1308,-13.8091,0.1169,0.1061,-0.0003,63
3.523,68,8.8417,-3.7598,-10.2905,-0.1067,0.0303,-0.016,95,3.01,58,1.6201,8.2775,-13.8923,0.0714,0.1051,-0.0493,63
3.575,69,8.9199,-3.7456,-10.3403,-0.0414,0.0166,-0.0177,95,3.062,59,1.791,8.2081,-13.9534,0.0653,0.1175,-0.0775,63
3.626,70,8.7829,-3.8939,-10.274,-0.0111,-0.0077,-0.0218,95,3.113,60,1.8333,8.2395,-13.8523,0.0416,0.0602,-0.0432,63
3.678,71,9.3085,-3.2245,-10.6289,0.1963,-0.1562,-0.0423,95,3.165,61,1.8381,8.335,-13.9073,-0.0258,0.0792,-0.0562,63
3.73,72,9.1579,-3.5342,-10.526,0.1442,-0.1076,-0.0283,95,3.217,62,1.7654,8.325,-14.01,0.0369,0.1057,-0.0888,63
3.782,73,9.0998,-3.5983,-10.5062,0.1326,-0.0849,-0.0303,95,3.269,63,1.8208,8.1883,-13.9777,0.0363,0.0879,-0.0699,63
3.834,74,9.0058,-3.6234,-10.4816,0.0888,-0.0485,-0.0339,95,3.32,64,1.7658,8.2807,-13.9828,-0.0074,0.0965,-0.0518,63
3.885,75,8.9726,-3.6676,-10.4651,0.0683,-0.0434,-0.0424,95,3.372,65,1.7411,8.291,-13.9197,-0.0167,0.0672,-0.0491,63
3.937,76,8.8905,-3.708,-10.5024,0.0951,-0.0636,-0.0403,95,3.424,66,1.663,8.2923,-13.8935,0.0176,0.0427,-0.0629,63
3.989,77,8.9442,-3.702,-10.4554,0.1246,-0.1032,-0.0288,95,3.476,67,1.6761,8.3839,-13.9624,0.1401,0.0363,-0.1042,63
4.041,78,8.9606,-3.6049,-10.4888,0.1988,-0.1239,-0.0232,95,3.528,68,1.6198,8.3269,-13.9171,0.0654,0.0794,-0.0729,63
4.092,79,9.0531,-3.6198,-10.5317,0.2517,-0.1454,-0.0225,95,3.579,69,1.6348,8.2981,-14.0018,0.0301,0.0874,-0.0745,63
4.144,80,9.0186,-3.6094,-10.5196,0.1962,-0.0865,-0.0136,95,3.631,70,1.6671,8.3196,-13.9618,0.006,0.0955,-0.0679,63
4.196,81,8.9123,-3.7993,-10.4858,0.1375,-0.0416,-0.0062,95,3.683,71,1.6656,8.2983,-14.0155,-0.0009,0.0503,-0.0436,63
4.248,82,8.8636,-3.7531,-10.5348,0.132,-0.0251,-0.0145,95,3.735,72,1.6355,8.3226,-13.9028,0.0003,0.0647,-0.0534,63
4.3,83,8.88,-3.7515,-10.463,0.0976,-0.0088,-0.0111,95,3.786,73,1.6626,8.4537,-13.8721,-0.1127,0.1324,-0.0349,63
4.352,84,8.8879,-3.8501,-10.4589,0.0998,0.0022,-0.0092,95,3.838,74,1.6314,8.3965,-13.8898,-0.0771,0.0768,-0.0536,63
4.403,85,8.8492,-3.8408,-10.4655,0.0799,0.0128,-0.0091,95,3.89,75,1.697,8.4067,-13.8967,0.0221,0.0538,-0.054,63
4.455,86,8.8213,-3.8441,-10.4273,0.057,0.0207,-0.0073,95,3.942,76,1.6931,8.3851,-13.8069,0.0442,0.0425,-0.0417,63
4.507,87,8.8601,-3.7479,-10.4073,0.0499,0.0133,-0.0029,95,3.994,77,1.7112,8.355,-13.9171,0.0658,0.0149,-0.0323,63
4.559,88,8.8942,-3.7213,-10.401,0.0436,0.0136,0.0037,95,4.045,78,1.6602,8.3157,-13.9577,0.1377,-0.0102,-0.017,63
4.611,89,8.8154,-3.6846,-10.4153,0.0733,0.0053,-0.0059,95,4.097,79,1.6969,8.3719,-14.0652,0.1825,-0.0364,0.0153,63
4.662,90,8.8936,-3.6573,-10.4294,0.0899,-0.003,0.0001,95,4.149,80,1.7375,8.3358,-14.0499,0.2005,-0.0281,0.0659,63
4.714,91,8.833,-3.6734,-10.3908,0.0871,0.0165,0.0074,95,4.201,81,1.697,8.2999,-13.9898,0.0806,-0.068,0.0938,63
4.766,92,8.8988,-3.5962,-10.3731,0.0848,0.0231,0.0081,95,4.253,82,1.7605,8.2978,-14.082,0.0057,-0.0596,0.1077,63
4.818,93,9.0385,-3.3547,-10.2778,0.0346,0.0472,0.025,95,4.304,83,1.87,8.1112,-14.1223,-0.0034,-0.0744,0.1051,63
4.869,94,9.0615,-3.2564,-10.2974,0.0067,0.1839,0.022,95,4.356,84,1.9587,8.0835,-14.2684,-0.0829,-0.0835,0.0922,63
4.921,95,8.8035,-3.7698,-10.25,-0.221,0.2651,0.0393,95,4.408,85,1.9196,8.0445,-14.4892,-0.0475,-0.3,0.0556,63
4.973,96,8.6888,-3.8582,-10.1333,-0.2999,0.2309,0.0442,95,4.46,86,1.8355,8.1996,-14.4817,0.11,-0.3458,0.0091,63
5.025,97,8.8092,-3.7205,-10.0764,-0.3037,0.1831,0.0176,95,4.512,87,1.6547,8.1213,-14.3951,0.1174,-0.2644,-0.0088,63
5.077,98,8.7177,-3.8028,-10.0523,-0.2165,0.0948,0.0002,95,4.563,88,1.5339,7.9787,-14.2799,-0.1159,-0.1911,0.0531,63
5.128,99,8.7525,-3.7413,-10.0611,-0.101,0.02,-0.0107,95,4.615,89,1.4117,8.0711,-14.1648,-0.3073,-0.1046,0.0752,63
5.18,100,8.834,-3.6976,-10.0973,-0.0183,-0.0358,0.0032,95,4.667,90,1.4107,8.2026,-14.3725,-0.3483,-0.1062,-0.0004,63
5.232,101,8.8362,-3.8838,-10.2793,0.2208,-0.1518,0.007,95,4.718,91,1.4657,8.3851,-14.1964,-0.1335,0.0479,-0.077,63
5.284,102,9.0067,-3.801,-10.3731,0.1659,-0.1239,0.0109,95,4.77,92,1.4966,8.4812,-13.9364,-0.0859,0.2307,-0.0837,63
5.336,103,9.1856,-3.6894,-10.3384,0.0216,-0.019,0.0153,95,4.822,93,1.5126,8.4237,-14.0098,-0.0348,0.1993,-0.0524,63
5.387,104,9.0445,-3.6031,-10.3311,0.0161,-0.0124,-0.0117,95,4.874,94,1.3997,8.4966,-13.7989,-0.1247,0.2806,-0.0435,63
5.439,105,8.9965,-3.6945,-10.309,0.0694,-0.052,-0.0223,95,4.926,95,1.6143,8.594,-13.6936,-0.2794,0.1977,-0.1181,63
5.491,106,8.9623,-3.5589,-10.134,0.2471,-0.1202,-0.0172,95,4.977,96,1.6852,8.5152,-13.4214,-0.2068,0.0191,-0.1075,63
5.543,107,8.8642,-3.7445,-10.0755,0.1982,-0.0747,0.0075,95,5.029,97,1.4279,8.5744,-13.5877,-0.2708,-0.2684,-0.0111,63
5.595,108,8.9037,-3.9092,-9.9707,0.1447,-0.0332,0.0304,95,5.081,98,1.6122,8.5209,-13.4921,-0.1479,-0.2007,0.0158,63
5.646,109,9.0301,-3.7131,-10.1509,-0.0455,0.157,0.0375,95,5.133,99,1.6506,8.6861,-13.6367,-0.0344,-0.0557,0.038,63
5.698,110,8.6859,-4.0597,-10.2489,-0.3126,0.2922,0.0589,95,5.184,100,1.6009,8.5357,-13.5442,-0.0925,0.0012,0.1084,63
5.75,111,8.6725,-4.1168,-10.0847,-0.3416,0.2563,0.0398,95,5.236,101,1.6267,8.447,-13.7301,0.0447,-0.0382,0.0622,63
5.802,112,8.5988,-4.1314,-9.946,-0.3145,0.2109,-0.0025,95,5.288,102,1.7552,8.4323,-13.5103,0.0555,0.0855,0.0298,63
5.854,113,8.4415,-4.3189,-9.7355,-0.1836,0.1034,-0.0243,95,5.34,103,1.6839,8.6981,-13.128,0.0235,0.1083,0.0453,63
5.905,114,9.1017,-3.5791,-10.0661,-0.1503,0.074,-0.0263,95,5.392,104,1.5688,8.6485,-13.5172,0.0067,0.0912,0.0217,63
5.957,115,9.0022,-3.7296,-10.0044,-0.0955,-0.0043,-0.0212,95,5.443,105,1.3959,8.4664,-13.4719,0.0145,0.0522,0.0099,63
6.009,116,8.686,-4.0116,-10.0772,0.0433,-0.0891,-0.0229,95,5.495,106,1.4247,8.5712,-13.2686,-0.0396,0.0551,-0.0394,63
6.061,117,8.8144,-3.9094,-10.1441,0.0421,-0.0964,0.0038,95,5.547,107,1.475,8.7145,-13.3239,-0.0933,0.0629,-0.113,63
6.112,118,8.9675,-3.7238,-10.2869,0.0857,-0.1326,0.0244,95,5.599,108,1.7644,8.6674,-13.3378,-0.0044,0.1211,-0.128,63
6.164,119,8.9511,-3.583,-10.3054,-0.0016,-0.0413,0.0088,95,5.651,109,1.6783,8.8689,-13.4274,0.1732,0.2985,-0.0679,63
6.216,120,8.9293,-3.6691,-10.2961,-0.1759,0.0385,0.0285,95,5.702,110,1.3047,8.5484,-13.4765,0.1516,0.4,-0.0281,63
6.268,121,8.708,-3.9633,-10.1433,-0.1621,0.0446,0.0098,95,5.754,111,1.2367,8.3657,-13.2776,-0.1357,0.3145,-0.112,63
6.32,122,8.5316,-4.1075,-10.0819,-0.0398,0.0108,-0.0419,95,5.806,112,1.5143,8.733,-12.8938,-0.2425,0.2168,-0.1484,63
6.371,123,8.8133,-3.7812,-9.936,-0.0901,0.0518,-0.0031,95,5.858,113,1.4534,8.7411,-12.8739,-0.4293,0.1409,-0.1735,63
6.423,124,8.6509,-3.9126,-10.0735,0.0638,-0.0248,-0.0013,95,5.91,114,1.5203,8.7568,-12.7276,-0.4797,0.0007,-0.145,63
6.475,125,8.6449,-3.6655,-10.0754,0.19,-0.0711,-0.0009,95,5.961,115,1.509,8.9831,-12.5724,-0.2787,0.0235,-0.1493,63
6.527,126,8.8842,-3.5493,-10.0556,0.0741,-0.0012,0.0139,95,6.013,116,1.4882,8.9719,-12.512,-0.1644,0.0236,-0.1188,63
6.579,127,8.8204,-3.6515,-10.0546,0.0153,0.0196,0.0153,95,6.065,117,1.5168,8.9806,-12.4816,-0.0449,-0.0187,-0.0696,63
6.63,128,8.8003,-3.675,-10.0455,-0.0142,0.0282,0.0081,95,6.117,118,1.4551,8.8759,-12.3739,-0.0363,0.0166,-0.0057,63
6.682,129,8.7998,-3.6767,-10.0838,-0.0178,0.0231,-0.0017,95,6.168,119,1.3741,8.9586,-12.3972,0.0148,-0.0198,0.0126,63
6.734,130,8.8677,-3.6895,-10.0863,-0.0419,0.0281,-0.0016,95,6.22,120,1.3623,8.9402,-12.3795,-0.0061,-0.0211,0.0016,63
6.786,131,8.8495,-3.7346,-10.1103,-0.0332,0.0292,-0.0075,95,6.272,121,1.3446,8.852,-12.3691,-0.0419,-0.045,-0.0017,63
6.838,132,8.8774,-3.6953,-10.0894,-0.0243,0.0192,-0.0089,95,6.324,122,1.3291,8.9227,-12.3526,-0.1119,-0.0722,0.003,63
6.889,133,8.8471,-3.7241,-10.1053,-0.0219,0.0065,-0.0128,95,6.376,123,1.3208,8.8813,-12.2951,-0.1328,-0.111,0.0082,63
6.941,134,8.7047,-3.823,-10.1872,0.0171,-0.038,-0.0146,95,6.427,124,1.2511,9.0361,-12.2076,-0.178,-0.081,-0.0081,63
6.993,135,8.8698,-3.6898,-10.1946,0.0248,-0.097,-0.0062,95,6.479,125,1.3357,9.0741,-12.1332,-0.1631,-0.0422,-0.0144,63
7.045,136,8.9005,-3.7101,-10.2057,0.0156,-0.0883,0.0056,95,6.531,126,1.3612,9.0109,-12.1336,-0.0843,-0.1089,-0.0019,63
7.097,137,8.9014,-3.7336,-10.226,-0.0005,-0.0704,0.0031,95,6.583,127,1.2785,8.9966,-12.202,-0.0898,-0.089,0.0202,63
7.148,138,8.9205,-3.7056,-10.2173,0.0017,-0.0747,-0.0076,95,6.634,128,1.1893,9.0593,-12.1256,-0.0805,-0.014,0.0118,63
7.2,139,8.9572,-3.7154,-10.2773,-0.0244,-0.0625,-0.0121,95,6.686,129,1.2474,9.0811,-12.0621,-0.0661,-0.0209,-0.0052,63
7.252,140,8.9178,-3.6974,-10.3168,0.0328,-0.0718,-0.0187,95,6.738,130,1.2221,9.0728,-12.061,-0.0496,0.0258,-0.0066,63
7.304,141,8.9004,-3.6727,-10.3588,0.0546,-0.0745,-0.0184,95,6.79,131,1.1852,9.1249,-11.9496,0.0062,0.0605,-0.0213,63
7.356,142,8.9933,-3.5273,-10.4358,0.1229,-0.079,-0.0196,95,6.842,132,1.1733,9.0794,-12.0055,-0.0116,0.034,-0.0342,63
7.407,143,8.927,-3.6057,-10.4458,0.1679,-0.0816,-0.0205,95,6.893,133,1.2364,8.9957,-11.9728,-0.0846,0.0065,-0.0268,63
7.459,144,8.8905,-3.5645,-10.4962,0.1932,-0.0749,-0.0356,95,6.945,134,1.35,9.1422,-11.8959,-0.0574,0.072,-0.04,63
7.511,145,8.9358,-3.5212,-10.3485,0.1537,-0.065,-0.0229,95,6.997,135,1.4038,9.1267,-11.8573,-0.0278,0.058,-0.0326,63
7.563,146,8.9257,-3.5164,-10.3086,0.1627,-0.0724,-0.016,95,7.049,136,1.2971,9.132,-11.8375,0.0191,0.0507,-0.0231,63
7.615,147,8.9908,-3.5106,-10.322,0.1382,-0.0808,-0.0063,95,7.101,137,1.2046,9.128,-11.8835,-0.0011,0.0113,-0.0195,63
7.666,148,8.9901,-3.4508,-10.3674,0.1484,-0.0742,0.0006,95,7.153,138,1.1076,9.1386,-11.9002,0.0259,0.0037,-0.0257,63
7.718,149,8.9291,-3.6044,-10.4193,0.1131,-0.0626,0.0119,95,7.204,139,1.0729,9.104,-11.9385,-0.0265,-0.0283,-0.0268,63
7.77,150,8.9246,-3.6117,-10.3876,0.1043,-0.0494,0.0139,95,7.256,140,1.1346,9.1447,-11.9072,-0.0424,-0.0327,-0.0231,63
7.822,151,8.9267,-3.6498,-10.3697,0.0599,-0.0214,0.0154,95,7.308,141,1.1353,9.137,-11.8259,-0.0599,-0.066,-0.0086,63
7.874,152,8.9522,-3.6079,-10.3968,0.0578,-0.0223,0.0116,95,7.36,142,1.1387,9.1636,-11.8534,-0.0785,-0.107,-0.0005,63
7.925,153,8.9585,-3.5911,-10.4158,0.0446,-0.0122,0.0107,95,7.412,143,1.1119,9.1588,-11.8474,-0.0325,-0.1002,0.0026,63
7.977,154,8.9541,-3.621,-10.4372,0.019,-0.0021,0.012,95,7.463,144,1.1093,9.1215,-11.8335,-0.0366,-0.1217,0.0066,63
8.029,155,8.8822,-3.7492,-10.4391,0.0071,0.0114,0.018,95,7.515,145,1.0882,9.1513,-11.8688,-0.0189,-0.121,0.0071,63
8.081,156,8.9244,-3.7135,-10.4355,-0.0059,0.013,0.0222,95,7.567,146,1.0647,9.176,-11.8442,-0.0036,-0.1041,0.0065,63
8.133,157,8.9877,-3.5913,-10.3715,-0.0493,0.0398,0.0283,95,7.619,147,1.1199,9.1562,-11.9031,-0.0073,-0.1125,0.0152,63
8.184,158,8.9647,-3.5623,-10.3566,-0.027,0.0338,0.0201,95,7.67,148,1.0898,9.0949,-11.9396,0.0006,-0.1228,0.0232,63
8.236,159,8.9076,-3.6007,-10.3603,-0.0113,0.0203,0.0103,95,7.722,149,1.0789,9.1128,-11.8528,-0.0128,-0.1171,0.027,63
8.288,160,8.9586,-3.5599,-10.3904,-0.0073,0.0172,0.0088,95,7.774,150,1.0828,9.1299,-11.9362,-0.0043,-0.1301,0.0082,63
8.339,161,8.9339,-3.6814,-10.3738,-0.0053,0.019,0.0096,95,7.826,151,1.3079,9.0423,-11.9694,0.0185,-0.1627,0.0276,63
8.391,162,8.5095,-3.4537,-10.5595,0.012,0.1442,-0.0244,95,7.878,152,1.2546,8.9994,-11.9671,0.0543,-0.0215,0.0433,63
8.443,163,8.1789,-4.084,-10.3651,-0.1461,0.1421,0.0023,95,7.93,153,1.17,9.0776,-11.9677,0.0346,-0.1465,0.0513,63
8.495,164,8.4271,-3.9602,-10.3552,-0.1124,0.0733,0.0026,95,7.981,154,1.0108,9.0834,-11.973,0.0288,-0.2277,0.0508,63
8.547,165,8.5119,-3.9735,-10.4076,-0.0781,-0.0088,0.0063,95,8.033,155,0.9435,9.081,-12.0289,0.0095,-0.2439,0.0492,63
8.599,166,8.5837,-3.8958,-10.4459,-0.0533,-0.0068,0.0113,95,8.085,156,0.9224,9.1324,-12.0927,0.0212,-0.2107,0.0367,63
8.651,167,8.6839,-3.8698,-10.4586,-0.0363,0.0022,0.0222,95,8.137,157,1.0691,9.0226,-12.1854,0.0031,-0.166,0.0335,63
8.702,168,8.7169,-3.7463,-10.4518,-0.059,0.066,0.0179,95,8.189,158,1.1041,9.0592,-12.2085,0.019,-0.0544,0.0535,63
8.754,169,8.6575,-3.8725,-10.4248,-0.127,0.1115,0.0135,95,8.24,159,1.1162,9.0813,-12.1523,0.0513,-0.0803,0.0557,63
8.806,170,8.7284,-3.7919,-10.3935,-0.1084,0.0819,0.0076,95,8.292,160,1.0793,9.0556,-12.1388,0.0248,-0.0881,0.0485,63
8.858,171,8.7726,-3.761,-10.3867,-0.064,0.015,0.01,95,8.344,161,1.0379,9.0478,-12.1931,-0.017,-0.0734,0.0291,63
8.91,172,8.7171,-3.7192,-10.3984,-0.0381,0.052,0.0083,95,8.396,162,1.1566,9.0854,-12.1643,-0.0118,-0.0393,0.0196,63
8.961,173,8.7068,-3.7248,-10.4247,-0.0629,0.1117,0.0074,95,8.447,163,1.1641,9.0724,-12.2283,-0.0071,-0.0324,0.0358,63
9.013,174,8.7086,-3.7857,-10.3122,-0.0774,0.0954,0.0052,95,8.499,164,1.2505,8.9883,-12.2276,0.0027,0.0117,0.038,63
9.065,175,8.8517,-3.5784,-10.3193,-0.075,0.1628,-0.023,95,8.551,165,1.209,9.1008,-12.1518,-0.108,0.1636,-0.0029,63
9.117,176,8.7753,-3.7295,-10.2888,-0.1704,0.151,-0.0084,95,8.603,166,1.2708,8.9072,-12.2774,-0.09,0.077,0.0121,63
9.169,177,8.5141,-4.0587,-10.1571,-0.1349,0.0871,-0.0123,95,8.655,167,1.2305,8.8267,-12.1674,-0.0347,0.0003,0.0305,63
9.22,178,8.4573,-4.0474,-10.1219,-0.0193,-0.0185,-0.0051,95,8.707,168,1.1677,8.1257,-12.1561,-0.0091,0.0279,0.0476,63
9.272,179,8.6865,-3.839,-10.2376,-0.0049,-0.0728,0.0324,95,8.758,169,1.2595,8.4538,-12.0528,-0.0608,-0.0313,-0.0478,63
9.324,180,8.8495,-3.7233,-10.3392,0.1586,-0.1928,0.0432,95,8.81,170,1.2731,8.6338,-12.1718,-0.0302,-0.0883,-0.0647,63
9.375,181,8.9534,-3.7132,-10.3353,0.1668,-0.1511,0.0362,95,8.862,171,1.3056,8.7144,-12.1412,0.039,0.0496,-0.0398,63
9.427,182,8.9235,-3.5757,-10.5436,0.0127,0.0332,0.0264,95,8.914,172,1.1533,8.9549,-12.0449,-0.0159,0.1318,-0.034,63
9.479,183,9.0409,-3.6207,-10.6149,-0.0931,0.0804,0.0113,95,8.965,173,1.1563,8.9562,-12.2174,0.0333,0.0684,-0.0162,63
9.531,184,8.8271,-3.8861,-10.4517,-0.2122,0.123,0.0037,95,9.017,174,1.1218,8.7275,-12.3222,0.0582,0.0098,0.03,63
9.583,185,8.5813,-4.0549,-10.2517,-0.2239,0.1241,-0.0183,95,9.069,175,1.2673,8.5189,-12.1826,-0.0238,0.0247,0.0601,63
9.634,186,8.3229,-4.2918,-10.1352,-0.0106,-0.0073,-0.0506,95,9.121,176,0.9608,9.1667,-11.8154,0.0396,0.0811,0.085,63
9.686,187,9.0259,-3.4673,-10.4563,0.0195,-0.0524,-0.0149,95,9.173,177,1.2954,9.2045,-11.9431,-0.0174,0.081,-0.0564,63
9.738,188,8.9603,-3.5585,-10.3396,0.1211,-0.1003,-0.0189,95,9.224,178,1.204,9.1731,-12.0781,-0.0059,0.0338,-0.0435,63
9.79,189,8.9006,-3.694,-10.4679,0.1948,-0.1418,-0.0245,95,9.276,179,1.1786,9.1475,-12.0805,0.1043,0.2432,-0.0434,63
9.842,190,8.8619,-3.7102,-10.4047,0.0956,-0.0697,-0.022,95,9.328,180,1.1205,9.0148,-11.8165,0.0575,0.3341,-0.1003,63
9.893,191,8.8443,-3.7869,-10.4167,0.0823,-0.065,-0.0175,95,9.379,181,1.0858,8.4254,-11.9208,-0.0482,0.135,-0.0921,63
9.945,192,8.8462,-3.8627,-10.4061,0.1287,-0.0858,-0.0138,95,9.431,182,1.1389,8.7147,-11.7497,-0.0225,0.1629,-0.094,63
9.997,193,8.8404,-3.951,-10.4062,0.1053,-0.1049,0.0236,95,9.483,183,1.1489,9.2656,-11.5628,-0.1085,-0.0058,-0.0467,63
10.049,194,8.8585,-3.9172,-10.4454,0.1622,-0.1191,0.05,95,9.535,184,1.1061,9.4147,-11.7714,-0.193,-0.1221,-0.0255,63
10.101,195,9.0001,-3.7878,-10.4611,0.2264,-0.1118,0.051,95,9.587,185,1.3887,9.3999,-11.7795,0.0226,-0.1097,0.0339,63
10.152,196,9.1017,-3.6588,-10.3899,0.0853,0.0585,0.0417,95,9.638,186,1.1344,9.3496,-12.0793,-0.0215,-0.0021,0.0835,63
10.204,197,9.014,-3.7757,-10.4211,-0.0861,0.1349,0.0296,95,9.69,187,1.2503,9.2849,-12.1154,0.0763,0.1766,0.1045,63
10.256,198,9.0016,-3.7329,-10.4131,-0.2531,0.2017,0.0177,95,9.742,188,1.365,8.9766,-12.2169,0.2565,0.3088,0.1532,63
10.308,199,8.8746,-3.8023,-10.365,-0.3906,0.2328,-0.0008,95,9.794,189,1.3092,8.7747,-12.3391,0.2718,0.2946,0.1742,63
10.36,200,8.8405,-3.9714,-10.0766,-0.4735,0.2613,-0.0288,95,9.845,190,1.3569,8.7078,-12.6292,-0.044,0.3425,0.1678,63
10.411,201,8.4077,-4.6202,-9.8878,-0.4289,0.2553,-0.0566,95,9.897,191,1.3786,8.9662,-12.1258,-0.0305,0.45,0.1192,63
10.463,202,8.9152,-3.6617,-10.1889,-0.3579,0.2177,-0.0941,95,9.949,192,1.5092,8.8995,-11.9476,-0.1619,0.1913,0.1114,63
10.515,203,8.6343,-4.0671,-9.8753,-0.2024,0.158,-0.0832,95,10.001,193,1.4874,8.8867,-11.7917,-0.435,0.0893,0.0366,63
10.567,204,8.7784,-3.7734,-9.8798,0.0574,0.0479,-0.0981,95,10.053,194,1.6779,8.9698,-11.6781,-0.2572,0.0443,-0.005,63
10.619,205,8.401,-4.1283,-9.8289,0.2766,-0.1021,-0.0566,95,10.104,195,1.8112,9.1873,-11.3562,-0.3322,-0.1125,0.0074,63
10.67,206,8.7012,-3.617,-9.8864,0.3847,-0.2095,-0.0046,95,10.156,196,1.7769,9.0161,-11.3106,-0.253,-0.0884,0.0213,63
10.722,207,8.7985,-3.5928,-10.0126,0.4614,-0.2766,0.0246,95,10.208,197,1.7518,9.146,-11.2906,-0.289,-0.0886,0.0029,63
10.774,208,8.8189,-3.6372,-10.0903,0.4515,-0.2689,0.0365,95,10.26,198,1.8599,8.9043,-11.3833,-0.1309,-0.0402,0.0004,63
10.826,209,8.2721,-3.6719,-10.3362,0.3447,-0.0716,0.0167,95,10.312,199,1.8306,8.9799,-11.3104,-0.1019,0.1879,0.0191,63
10.878,210,8.4215,-3.7563,-10.289,0.2278,-0.0485,0.009,95,10.363,200,1.8892,9.0727,-11.3454,-0.0878,0.2356,0.0148,63
10.929,211,8.5437,-3.7871,-10.2088,0.1358,-0.0252,0.0021,95,10.415,201,1.9053,9.1527,-11.189,-0.0161,0.2937,0.0196,63
10.981,212,8.6142,-3.8257,-10.2286,0.052,-0.0136,-0.0051,95,10.467,202,1.9481,9.0603,-11.0698,0.0951,0.1851,0.0267,63
11.033,213,8.6551,-3.8312,-10.2016,0.0042,-0.0,-0.0103,95,10.519,203,1.9327,9.0758,-11.0341,0.0789,0.1124,0.0221,63
11.085,214,8.7063,-3.8652,-10.1338,0.0141,-0.0481,-0.0163,95,10.57,204,1.9308,8.9651,-11.0637,-0.0208,-0.0337,0.0059,63
11.137,215,8.8722,-3.6873,-10.1303,0.0805,-0.0751,-0.0209,95,10.622,205,1.9629,9.206,-11.4826,-0.0152,-0.0608,0.0106,63
11.188,216,8.8907,-3.5824,-10.0181,0.0605,-0.0731,-0.0086,95,10.674,206,1.8061,9.0884,-11.3003,0.2073,0.1338,0.0065,63
11.24,217,8.8854,-3.6705,-10.2175,0.0308,-0.0663,0.0021,95,10.726,207,2.0271,8.9342,-11.349,0.3461,0.1023,0.0046,63
11.292,218,8.8899,-3.5253,-10.2713,0.0779,-0.0545,0.0055,95,10.778,208,2.1971,8.8517,-11.3081,0.2521,0.213,-0.0101,63
11.344,219,8.8846,-3.6692,-10.2993,0.0487,-0.0362,0.0041,95,10.829,209,2.1882,8.9106,-11.422,-0.0673,0.2699,-0.0251,63
11.395,220,8.846,-3.6994,-10.3123,-0.0242,-0.0154,0.0109,95,10.881,210,2.0647,9.1167,-11.4188,0.02,0.2033,-0.0127,63
11.447,221,8.8465,-3.7168,-10.3885,-0.0527,-0.0202,0.0091,95,10.933,211,2.0036,8.9571,-11.2841,0.1405,0.1001,0.0087,63
11.499,222,8.812,-3.8004,-10.3985,-0.0344,-0.0185,0.0154,95,10.985,212,2.0282,8.8912,-11.3664,0.0144,0.0143,-0.0374,63
11.551,223,8.7985,-3.8073,-10.4081,-0.0,-0.0062,0.0095,95,11.036,213,2.0522,8.96,-11.3373,-0.1175,-0.0335,-0.0614,63
11.603,224,8.8118,-3.8755,-10.3625,0.0579,-0.0123,-0.0017,95,11.088,214,2.2954,8.7647,-11.6245,-0.0853,-0.0128,-0.0213,63
11.655,225,8.8018,-3.8117,-10.3193,0.0554,-0.0114,0.0012,95,11.14,215,5.8774,11.689,-8.6859,-0.2704,-0.6761,0.2718,63
11.706,226,8.6372,-3.5448,-10.3518,-0.0174,0.0864,-0.0121,95,11.192,216,4.8652,8.8829,-10.1659,-0.1977,-0.9323,0.1675,63
11.758,227,8.6808,-3.7635,-10.3472,-0.0598,0.1241,-0.0147,95,11.244,217,4.3923,8.8702,-10.3223,-0.172,-1.2454,0.239,63
11.81,228,8.7275,-3.7619,-10.2459,-0.0563,0.1256,-0.0195,95,11.295,218,3.5888,8.8577,-10.8815,-0.2635,-0.8214,0.2185,63
11.862,229,8.6462,-3.7758,-10.1381,-0.0017,0.0889,-0.0365,95,11.347,219,3.3165,9.0422,-10.9464,-0.2107,-0.2909,0.1585,63
11.914,230,8.7508,-3.7048,-10.1841,-0.0381,0.0654,-0.0264,95,11.399,220,3.1077,9.0254,-10.7997,-0.1029,-0.1312,0.0741,63
11.965,231,8.8885,-3.5564,-10.1882,-0.0373,0.0641,-0.0391,95,11.451,221,2.8954,8.9989,-10.9116,-0.1507,-0.1514,0.0406,63
12.017,232,8.8267,-3.6193,-10.1709,-0.0267,0.0442,-0.0475,95,11.503,222,2.6043,9.1066,-11.1133,-0.1422,-0.0744,0.0451,63
12.069,233,8.744,-3.7372,-10.1297,-0.0371,-0.0091,-0.0394,95,11.554,223,2.3672,8.9561,-10.9197,0.0019,0.1124,0.0643,63
12.121,234,8.9783,-3.5515,-10.1945,-0.0045,-0.1078,-0.0311,95,11.606,224,2.409,8.9751,-10.6609,-0.0552,0.1643,0.0002,63
12.173,235,9.0083,-3.4995,-10.2352,0.1047,-0.1189,-0.0227,95,11.658,225,2.4849,8.9784,-10.7593,-0.1501,0.0831,-0.0437,63
12.224,236,9.0066,-3.5647,-10.2149,0.1749,-0.1205,-0.0129,95,11.71,226,2.4729,9.0152,-10.8074,-0.0685,0.0847,-0.0292,63
12.276,237,9.0171,-3.5365,-10.2455,0.1631,-0.1002,-0.004,95,11.762,227,2.4955,9.0224,-10.6536,-0.0488,0.0869,-0.0065,63
12.328,238,9.0187,-3.5387,-10.2044,0.159,-0.09,-0.0074,95,11.813,228,2.3454,8.9443,-10.553,-0.0262,0.0885,0.0018,63
12.38,239,8.8943,-3.7708,-10.2904,0.0738,-0.0223,-0.0137,95,11.865,229,2.2807,8.6747,-10.7506,0.0684,-0.0823,-0.0182,63
12.431,240,8.7719,-3.8006,-10.2033,0.084,0.0093,-0.0134,95,11.917,230,1.7678,8.9948,-11.0041,0.0689,0.1738,0.1431,63
12.483,241,8.843,-3.7428,-10.1807,0.0547,0.0078,-0.0181,95,11.969,231,2.0083,9.0255,-10.8769,0.0869,0.1385,0.1487,63
12.535,242,8.867,-3.821,-10.1369,0.0294,0.0012,-0.0174,95,12.02,232,2.2749,9.1456,-10.8745,0.2031,0.0303,0.0651,63
12.587,243,8.9075,-3.6943,-10.1752,0.0583,0.0003,-0.0168,95,12.072,233,2.2894,8.9378,-10.9103,0.123,-0.0019,0.0573,63
12.639,244,8.8983,-3.6811,-10.1617,0.0784,-0.0141,-0.0179,95,12.124,234,2.3305,8.9725,-10.9519,0.0544,0.0095,0.0524,63
12.69,245,8.9037,-3.6842,-10.1987,0.0897,-0.0209,-0.0203,95,12.176,235,2.4155,8.9207,-10.9532,0.0742,0.1105,0.0725,63
12.742,246,8.8982,-3.7953,-10.0212,0.0266,-0.0206,-0.0097,95,12.227,236,2.5368,8.9502,-10.8218,0.0757,0.0645,0.0417,63
12.794,247,8.9225,-3.7451,-10.0697,0.0429,-0.0219,-0.0072,95,12.279,237,2.527,8.8276,-10.8435,0.0236,-0.0592,0.0246,63
12.846,248,8.9183,-3.6633,-10.0475,0.0607,-0.0137,-0.0053,95,12.331,238,2.4967,8.8961,-10.9574,0.0102,-0.1442,0.0124,63
12.897,249,8.9346,-3.5962,-10.0653,0.0409,-0.0006,0.0016,95,12.383,239,2.4416,8.8361,-10.9986,-0.0655,-0.1525,0.0213,63
12.949,250,8.9239,-3.6206,-10.098,0.0438,-0.0015,-0.0001,95,12.435,240,2.5112,8.8808,-11.0445,-0.0882,-0.1773,0.0175,63
13.001,251,8.9421,-3.5306,-10.1103,0.0389,-0.0008,-0.0052,95,12.486,241,2.4842,8.8562,-11.12,0.0473,-0.1904,0.0234,63
13.053,252,8.93,-3.5703,-10.116,0.0058,0.0049,-0.0029,95,12.538,242,2.4318,8.8318,-11.0161,0.013,-0.2203,0.0361,63
13.105,253,8.961,-3.5177,-10.1323,0.0266,0.0006,0.0017,95,12.59,243,2.3774,8.8324,-11.0651,-0.0819,-0.195,0.0205,63
13.157,254,8.9487,-3.5715,-10.076,0.0061,0.0116,0.0034,95,12.642,244,2.3971,8.9096,-11.1633,-0.0563,-0.1565,0.0096,63
13.208,255,8.9432,-3.5682,-10.1149,-0.0146,0.0224,0.0081,95,12.693,245,2.4241,8.8747,-11.139,-0.02,-0.0996,0.0005,63
13.26,256,8.9998,-3.4329,-10.1076,-0.06,0.0383,0.0102,95,12.745,246,2.4884,8.8039,-11.1874,0.0319,-0.0675,-0.0039,63
13.312,257,8.9881,-3.579,-10.0714,-0.0633,0.0137,0.0112,95,12.797,247,2.505,8.8344,-11.2099,-0.0166,-0.0352,0.0128,63
13.364,258,8.9498,-3.6837,-10.0013,-0.0731,0.0175,0.0017,95,12.849,248,2.5058,8.8275,-11.2287,0.0605,-0.0182,0.0131,63
13.416,259,8.9796,-3.6634,-10.0341,-0.0687,-0.0053,0.0005,95,12.901,249,2.5276,8.8658,-11.1992,0.1046,-0.0457,0.0241,63
13.467,260,9.0011,-3.6296,-10.0586,-0.064,-0.0179,0.0063,95,12.952,250,2.4355,8.8921,-11.255,0.0983,-0.0629,0.0235,63
13.519,261,8.9779,-3.6278,-10.162,-0.0475,-0.0293,0.012,95,13.004,251,2.3451,8.9228,-11.3354,0.0964,-0.0371,0.0026,63
13.571,262,8.9484,-3.6658,-10.1898,-0.0085,-0.046,0.011,95,13.056,252,2.3327,8.9229,-11.3118,0.0946,-0.0299,-0.0078,63
13.623,263,8.9241,-3.7217,-10.197,0.0379,-0.0569,0.0078,95,13.108,253,2.3066,8.918,-11.4228,0.1409,-0.0488,-0.0058,63
13.674,264,9.0797,-3.5176,-10.2517,0.15,-0.0926,0.0006,95,13.16,254,2.2172,8.886,-11.5888,0.3067,0.0483,-0.0389,63
13.726,265,9.0393,-3.6033,-10.285,0.1205,-0.0717,0.0053,95,13.211,255,2.2833,8.8674,-11.6885,0.3155,0.2146,-0.0601,63
13.778,266,9.0302,-3.5319,-10.2542,0.129,-0.0553,0.0011,95,13.263,256,2.4237,8.6675,-11.6605,0.1802,0.3803,-0.0432,63
13.83,267,9.013,-3.7797,-10.0661,0.0587,-0.0339,0.0086,95,13.315,257,2.5672,8.7256,-11.6549,0.0002,0.3513,-0.0082,63
13.882,268,9.0215,-3.661,-10.1125,0.02,-0.0065,0.0059,95,13.367,258,2.6314,8.8241,-11.788,0.1155,0.2892,0.0373,63
13.933,269,8.9516,-3.7374,-10.1456,-0.0758,0.0239,0.0123,95,13.418,259,2.3673,8.8499,-11.7572,0.1761,0.2212,0.0328,63
13.985,270,9.0012,-3.6714,-10.1844,-0.0804,0.023,0.0172,95,13.47,260,2.4957,8.7517,-11.7208,0.1485,0.1562,0.0249,63
14.037,271,8.9273,-3.6385,-10.1879,-0.0838,0.1025,0.0137,95,13.522,261,2.618,8.7602,-11.7509,0.1269,0.1067,0.0258,63
14.089,272,8.8812,-3.7315,-10.1853,-0.0655,0.1021,0.0102,95,13.574,262,2.6279,8.7535,-11.7911,0.0987,0.0398,0.0512,63
14.141,273,8.8563,-3.7352,-10.1208,-0.0827,0.0729,0.0136,95,13.626,263,2.7046,8.7137,-11.7941,0.152,0.0111,0.0469,63
14.192,274,8.863,-3.6999,-10.1188,-0.0821,0.0814,0.0127,95,13.677,264,2.7995,8.6357,-11.8528,0.1249,-0.0289,0.0629,63
14.244,275,8.9034,-3.5906,-10.0998,-0.0858,0.1359,0.0005,95,13.729,265,2.8721,8.6261,-11.9271,0.1469,-0.0636,0.0702,63
14.296,276,8.9372,-3.5902,-10.1255,-0.0946,0.1321,-0.0114,95,13.781,266,2.7775,8.73,-11.9683,0.1221,-0.1902,0.0504,63
14.348,277,8.8826,-3.5554,-10.0626,-0.099,0.1135,-0.0184,95,13.833,267,2.7364,8.8374,-12.085,0.1665,-0.312,0.055,63
14.4,278,8.8715,-3.6169,-10.0266,-0.1121,0.0954,-0.0176,95,13.884,268,2.5782,8.6056,-12.2131,0.1208,-0.3498,0.0567,63
14.451,279,8.8151,-3.7181,-9.9586,-0.1171,0.0746,-0.0178,95,13.936,269,2.5494,8.5212,-12.2987,0.0543,-0.264,0.0456,63
14.503,280,8.9013,-3.5998,-9.9407,-0.0525,0.0209,-0.0223,95,13.988,270,2.5363,8.6426,-12.2786,-0.0036,-0.1585,0.0172,63
14.555,281,8.8921,-3.6578,-9.9775,-0.049,0.0086,-0.0074,95,14.04,271,2.5691,8.6496,-12.3264,-0.074,-0.1483,0.0124,63
14.607,282,8.8565,-3.6887,-9.9511,-0.0203,-0.0029,-0.0054,95,14.092,272,2.5644,8.6768,-12.3947,-0.0332,-0.15,-0.0004,63
14.658,283,8.8554,-3.6658,-9.9754,-0.0059,-0.0247,-0.0003,95,14.143,273,2.5912,8.6931,-12.4382,0.013,-0.1825,0.0094,63
14.71,284,8.9388,-3.6056,-9.9852,0.0062,-0.0653,0.0069,95,14.195,274,2.5505,8.6161,-12.4807,0.161,-0.2134,0.0084,63
14.762,285,8.8725,-3.7346,-10.0401,0.0184,-0.1047,0.0113,95,14.247,275,2.5722,8.5851,-12.5693,0.1233,-0.2167,0.0187,63
14.814,286,8.6943,-3.6318,-10.1492,0.0219,0.0293,0.0026,95,14.299,276,2.4684,8.6217,-12.6857,0.1129,-0.0873,0.003,63
14.866,287,8.7634,-3.629,-10.1693,-0.0793,0.0875,0.0073,95,14.351,277,2.3852,8.5317,-12.8322,0.0588,-0.0497,-0.0075,63
14.917,288,8.6137,-3.8585,-10.0665,-0.1437,0.0921,0.0048,95,14.402,278,2.4087,8.4875,-12.9031,0.1424,-0.1001,0.0129,63
14.969,289,8.5337,-4.0346,-9.9901,-0.1327,0.0532,-0.0043,95,14.454,279,2.7373,9.0322,-12.8231,0.0895,-0.144,0.0377,63
15.021,290,9.0707,-3.4683,-10.141,0.1246,-0.0232,-0.0435,95,14.506,280,2.2111,8.3804,-12.8734,-0.031,-0.1069,0.0222,63
15.073,291,9.0878,-3.5492,-10.1462,0.3172,-0.1007,-0.0345,95,14.558,281,2.1968,8.4069,-12.918,-0.0654,-0.1781,0.0175,63
15.124,292,8.9817,-3.5847,-10.1339,0.2176,-0.1231,-0.0044,95,14.61,282,2.2469,8.405,-13.1473,-0.0432,-0.1413,0.0004,63
15.176,293,8.9814,-3.623,-10.1069,0.1164,-0.0726,-0.0124,95,14.661,283,2.2168,8.3716,-13.0565,0.0331,-0.0678,0.0012,63
15.228,294,8.9111,-3.7071,-10.093,0.0294,-0.0446,-0.0164,95,14.713,284,2.3881,8.4907,-12.7764,-0.0704,-0.054,0.0095,63
15.28,295,8.9245,-3.5871,-10.1618,0.0648,-0.0798,-0.0194,95,14.765,285,2.3935,8.5862,-12.7694,-0.0701,-0.0694,-0.0185,63
15.332,296,8.9569,-3.5141,-10.1801,0.0858,-0.0941,-0.0138,95,14.817,286,2.2908,8.5848,-12.817,-0.0756,-0.0706,-0.0417,63
15.384,297,8.8724,-3.7079,-10.2179,0.137,-0.1034,-0.0075,95,14.869,287,2.0854,8.6695,-12.7101,0.0041,0.2506,-0.039,63
15.435,298,8.9412,-3.4849,-10.1997,0.1046,-0.1405,0.0014,95,14.92,288,2.1629,8.6026,-12.5772,0.0646,0.4633,-0.1197,63
15.487,299,9.0232,-3.3757,-10.222,0.1535,-0.1319,-0.0014,95,14.972,289,2.3397,8.5232,-12.3957,0.0367,0.4825,-0.1347,63
15.539,300,9.0527,-3.2901,-10.3152,0.2023,-0.1119,-0.0072,95,15.024,290,2.3841,8.6967,-12.5053,0.036,0.4125,-0.1357,63
15.59,301,9.0616,-3.3061,-10.2143,0.2296,-0.1117,-0.0021,95,15.076,291,2.2775,8.5538,-12.5247,0.1408,0.4438,-0.1311,63
15.642,302,9.0121,-3.2906,-10.2697,0.1808,-0.0895,0.0024,95,15.128,292,2.396,8.5851,-12.3304,0.0874,0.3919,-0.1042,63
15.694,303,8.9132,-3.4631,-10.2663,0.1481,-0.0675,0.004,95,15.179,293,2.4945,8.7687,-12.4915,0.0469,0.2735,-0.0709,63
15.746,304,8.9439,-3.3921,-10.1657,0.1449,-0.0593,0.0041,95,15.231,294,2.3786,8.6984,-12.5171,0.1299,0.2151,-0.0499,63
15.798,305,8.9645,-3.3975,-10.1948,0.1034,-0.0512,0.0118,95,15.283,295,1.3877,8.6984,-12.7941,0.2068,0.1592,-0.0179,63
15.849,306,8.9426,-3.4639,-10.192,0.0545,-0.0388,0.0065,95,15.335,296,1.9512,9.0255,-12.657,0.0268,0.0203,-0.0471,63
15.902,307,8.9444,-3.6637,-10.0427,0.088,-0.0245,-0.0068,95,15.387,297,2.5218,8.8348,-12.8879,0.4445,-0.1244,0.0523,63
15.953,308,8.9627,-3.4796,-10.1202,0.0901,0.0063,-0.006,95,15.438,298,2.645,8.8978,-13.1431,0.3705,-0.2213,0.149,63
16.005,309,9.0286,-3.3526,-10.0515,0.093,0.0058,0.0016,95,15.49,299,2.5808,8.5861,-13.3106,0.5154,-0.3292,0.2137,63
16.057,310,8.9784,-3.5861,-10.0836,0.0543,0.0076,0.0197,95,15.542,300,2.4736,8.3774,-13.2104,0.3643,-0.4173,0.264,63
16.109,311,8.9783,-3.5598,-10.1295,0.0145,0.0122,0.0418,95,15.594,301,2.3767,8.4626,-13.272,0.2248,-0.4313,0.31,63
16.161,312,8.9506,-3.6027,-10.1224,-0.043,0.0466,0.0584,95,15.646,302,2.349,7.9725,-13.4992,0.298,-0.4982,0.3161,63
16.212,313,8.9535,-3.7511,-10.1494,-0.0304,0.0567,0.0571,95,15.697,303,2.2989,8.7894,-14.0681,0.0864,-0.4891,0.3031,63
16.264,314,9.4128,-3.1952,-10.2054,-0.307,0.3821,0.084,95,15.749,304,2.3465,8.3155,-14.1715,0.0964,-0.3645,0.2076,63
16.316,315,9.2588,-3.4066,-10.1335,-0.4728,0.4691,0.034,95,15.801,305,2.3433,8.3307,-14.0797,0.0288,-0.3462,0.1476,63
16.368,316,9.0546,-3.276,-9.9269,-0.624,0.4533,0.014,95,15.853,306,1.6199,8.1619,-14.2622,-0.132,-0.2587,0.0308,63
16.42,317,8.4429,-3.804,-9.5075,-0.513,0.3305,-0.0306,95,15.905,307,1.6557,8.0628,-14.3434,-0.0256,-0.2248,-0.0841,63
16.471,318,8.716,-3.6564,-9.8196,-0.1672,0.0943,-0.0501,95,15.957,308,1.8517,7.67,-14.0525,-0.0854,-0.129,-0.0857,63
16.523,319,8.6995,-3.597,-9.8478,-0.1472,0.0564,0.0284,95,16.008,309,2.0206,8.1123,-14.0187,-0.0157,0.001,-0.0105,63
16.575,320,8.6278,-3.8128,-9.8376,-0.095,-0.0166,0.0347,95,16.06,310,2.1631,8.3508,-14.1135,-0.0904,0.1177,0.0084,63
16.626,321,8.7305,-3.6936,-9.8236,0.0296,-0.0576,0.0046,95,16.112,311,2.2862,8.3978,-14.0742,-0.0612,0.1485,-0.0759,63
16.678,322,8.8562,-3.6075,-9.9105,-0.0166,-0.0189,0.0167,95,16.164,312,2.1134,8.4345,-14.1119,-0.1834,0.0963,-0.1328,63
16.73,323,8.8159,-3.7062,-9.8867,-0.0299,-0.0129,0.027,95,16.216,313,2.0494,8.2671,-14.1471,-0.284,0.048,-0.0939,63
16.782,324,8.6464,-3.8463,-9.9568,0.0495,-0.0882,0.0341,95,16.267,314,2.1062,8.3183,-13.9253,-0.1061,0.1159,-0.086,63
16.834,325,8.8216,-3.9478,-9.8878,-0.0553,0.0363,0.054,95,16.319,315,2.1662,8.4332,-13.9666,-0.2275,0.2443,-0.0504,63
16.885,326,8.8951,-3.8199,-9.8919,-0.122,0.0949,0.0334,95,16.371,316,2.088,8.227,-13.9804,-0.0462,0.3898,0.0229,63
16.937,327,8.8954,-3.8263,-10.0489,-0.2502,0.136,0.0267,95,16.423,317,2.2026,8.4075,-13.769,-0.0805,0.2905,0.0667,63
16.989,328,8.7488,-3.8883,-9.912,-0.3278,0.1236,0.0081,95,16.474,318,2.1483,8.2034,-13.6748,-0.1171,0.1654,0.1037,63
17.041,329,8.2878,-4.3904,-9.8629,-0.1976,0.0515,-0.0169,95,16.526,319,2.262,8.3958,-13.3854,-0.1637,0.0938,0.1115,63
17.093,330,9.4696,-3.1698,-10.1076,-0.0822,0.025,-0.0274,95,16.578,320,2.3727,8.5719,-13.1077,-0.1753,0.0421,0.0251,63
17.144,331,9.1783,-3.4912,-9.9241,0.0008,-0.0018,-0.0232,95,16.63,321,2.3616,8.3085,-13.0056,-0.2781,-0.1152,-0.0156,63
17.196,332,8.9244,-3.6857,-9.937,0.1169,-0.0731,-0.0138,95,16.682,322,2.3577,8.5685,-13.0759,-0.3272,-0.209,0.0004,63
17.248,333,9.0598,-3.6471,-9.916,0.1046,-0.0151,0.0124,95,16.733,323,2.2353,8.5717,-13.0035,-0.2985,-0.215,0.027,63
17.3,334,8.9186,-3.8181,-9.9215,0.0039,0.0266,0.0189,95,16.785,324,2.0743,8.6385,-12.9234,-0.4063,-0.1111,0.0989,63
17.351,335,8.9426,-3.7451,-9.9157,-0.0058,0.0004,0.006,95,16.837,325,2.1736,8.5574,-12.7032,-0.1998,0.0563,0.0661,63
17.403,336,8.9892,-3.6129,-9.9565,-0.0688,0.0605,0.0109,95,16.889,326,2.358,8.7425,-12.4775,-0.2225,-0.0279,0.0121,63
17.455,337,8.9752,-3.5284,-9.8579,-0.0522,0.0683,0.0007,95,16.94,327,2.4939,8.3912,-12.1086,-0.179,-0.0532,-0.0426,63
17.507,338,8.9477,-3.5789,-9.8138,-0.0855,0.0801,0.0001,95,16.992,328,2.2875,8.644,-12.2976,-0.5083,-0.1759,-0.0037,63
17.559,339,8.8739,-3.7135,-9.8387,-0.075,0.0774,-0.0056,95,17.044,329,2.2249,8.9473,-12.1827,-0.3937,-0.1005,-0.0004,63
17.611,340,8.8541,-3.7684,-9.8265,-0.0856,0.0692,-0.0173,95,17.096,330,2.3324,8.71,-11.757,-0.4443,0.0268,0.0283,63
17.662,341,8.8767,-3.7526,-9.7748,-0.0543,0.0503,-0.0334,95,17.147,331,2.4277,8.6884,-11.4966,-0.6089,0.0877,0.13,63
17.714,342,8.801,-3.8327,-9.6992,-0.0238,0.0399,-0.0374,95,17.199,332,2.4055,8.9665,-11.336,-0.5134,0.1355,0.0855,63
17.766,343,8.5951,-4.0817,-9.7172,0.0362,-0.0023,-0.0349,95,17.251,333,2.5269,9.0517,-11.0105,-0.3421,0.1621,0.0508,63
17.818,344,8.6368,-3.973,-9.7861,-0.0099,-0.0299,-0.0107,95,17.303,334,2.4425,8.8916,-10.9003,-0.319,0.1024,0.056,63
17.869,345,8.2716,-4.4038,-9.6299,0.118,-0.1264,0.0009,95,17.355,335,2.4785,9.129,-10.5896,-0.3309,0.1458,0.0684,63
17.921,346,8.6774,-3.6756,-9.7727,0.0755,-0.0726,0.0123,95,17.407,336,2.4884,9.0398,-10.3898,-0.1567,0.3243,0.0402,63
17.973,347,8.731,-3.6753,-9.9293,0.049,-0.0701,0.0206,95,17.459,337,2.6044,8.9514,-10.3212,-0.209,0.2426,-0.0015,63
18.025,348,8.7625,-3.6911,-10.006,0.0904,-0.0826,0.011,95,17.51,338,2.6335,8.9462,-10.3162,-0.1578,0.1146,0.0144,63
18.077,349,8.6858,-3.7972,-10.0309,0.0469,-0.0584,0.0172,95,17.562,339,2.6505,9.0137,-10.1474,-0.1078,0.0344,0.0249,63
18.128,350,8.8168,-3.6826,-10.0647,0.065,-0.0671,0.0206,95,17.614,340,2.6014,8.998,-10.2274,0.1444,0.035,0.0135,63
18.18,351,8.7878,-3.7365,-10.0871,0.015,-0.0416,0.0319,95,17.665,341,2.5498,8.9157,-10.1366,0.1511,0.0518,-0.0081,63
18.232,352,8.8187,-3.7697,-10.1287,0.0437,-0.064,0.0255,95,17.717,342,2.5432,8.8998,-10.2141,0.0395,0.0368,0.0033,63
18.284,353,8.8902,-3.6905,-10.1748,0.0678,-0.0581,0.0201,95,17.769,343,2.6394,8.8533,-10.226,-0.0235,-0.0138,0.003,63
18.335,354,8.9548,-3.7402,-10.1701,0.0762,-0.0332,0.0174,95,17.821,344,2.6335,8.8169,-10.4064,0.0378,0.0928,0.044,63
18.387,355,9.0445,-3.8013,-10.1541,-0.0349,0.0363,0.0177,95,17.873,345,2.6762,9.3883,-10.2525,0.1195,0.1058,0.0351,63
18.439,356,8.9919,-3.8317,-10.2196,-0.0586,0.0507,0.0028,95,17.924,346,2.7446,9.2837,-10.4523,0.1227,0.0592,0.0297,63
18.491,357,8.9541,-3.7951,-10.1646,-0.0513,0.0613,-0.0079,95,17.976,347,2.5577,8.9754,-10.4668,0.1087,0.0743,0.0313,63
18.543,358,8.8965,-3.8457,-10.1654,-0.0552,0.0606,-0.0054,95,18.028,348,2.7539,9.0384,-10.3737,0.1019,0.0796,0.0269,63
18.594,359,8.8819,-3.7885,-10.1528,-0.012,0.0268,-0.0132,95,18.08,349,2.7339,8.9846,-10.4724,0.2009,0.0219,0.0092,63
18.646,360,8.8503,-3.7894,-10.1611,0.0166,-0.0474,-0.0018,95,18.131,350,2.7695,8.7444,-10.5773,0.2528,0.0147,-0.0024,63
18.698,361,8.8325,-3.8241,-10.1943,0.0721,-0.0924,-0.0051,95,18.183,351,2.6869,8.8425,-10.5775,-0.023,0.0718,0.0101,63
18.75,362,9.0059,-3.7902,-10.2103,0.1591,-0.1436,-0.0108,95,18.235,352,2.6756,9.0571,-10.6168,0.1404,0.0967,-0.017,63
18.802,363,9.0028,-3.8032,-10.302,0.0981,-0.0823,0.0064,95,18.287,353,2.7068,8.906,-10.5182,0.1596,0.1167,-0.0263,63
18.854,364,8.9424,-3.9062,-10.2968,0.0651,-0.0669,0.0096,95,18.339,354,2.7237,8.8968,-10.7241,0.0467,0.1453,-0.0074,63
18.905,365,9.0073,-3.7956,-10.3048,0.0759,0.1029,-0.0034,95,18.39,355,2.7009,8.9545,-10.7625,0.1237,0.1362,-0.0091,63
18.957,366,8.9664,-3.8211,-10.2604,0.0161,0.1196,0.0051,95,18.442,356,2.6936,8.9126,-10.8259,0.1784,0.0827,-0.0206,63
19.009,367,8.9157,-3.8082,-10.1685,-0.0226,0.1215,0.0045,95,18.494,357,2.6992,8.8644,-10.8338,0.1685,0.1143,-0.0304,63
19.061,368,8.9466,-3.7709,-10.0856,-0.0413,0.1016,-0.0018,95,18.546,358,2.7332,8.8757,-10.9176,0.1612,0.1222,-0.0205,63
19.112,369,8.9632,-3.7194,-10.1051,-0.1005,0.1152,-0.0,95,18.597,359,2.6803,8.8362,-10.9441,0.1611,0.0872,-0.0258,63
19.164,370,8.857,-3.8301,-10.0552,-0.1185,0.1044,0.0003,95,18.649,360,2.6642,8.7983,-11.0013,0.1062,0.0349,-0.0154,63
19.216,371,8.875,-3.7848,-10.0367,-0.0833,0.0722,-0.0076,95,18.701,361,2.6202,8.7537,-11.0169,0.0426,0.0265,-0.0069,63
19.268,372,8.8458,-3.7846,-10.0426,-0.078,0.0553,-0.0062,95,18.753,362,2.63,8.7896,-10.9823,-0.008,0.016,-0.0093,63
19.32,373,8.8678,-3.7559,-10.0125,-0.0445,0.0287,-0.0079,95,18.805,363,2.791,8.8685,-10.9247,-0.0294,0.0044,-0.0078,63
19.371,374,8.8555,-3.7446,-10.0228,0.0002,-0.0104,-0.0146,95,18.857,364,2.7858,8.8885,-10.9638,-0.0569,-0.0164,-0.003,63
19.423,375,8.8909,-3.7198,-10.0211,0.0024,-0.0344,-0.0044,95,18.908,365,2.7475,8.8652,-10.9326,-0.0349,-0.0088,-0.0051,63
19.475,376,8.8802,-3.7212,-10.0555,-0.0031,-0.064,0.0023,95,18.96,366,2.5193,8.7522,-10.9218,0.0039,-0.0424,0.0175,63
19.527,377,8.8795,-3.7289,-10.0868,0.0102,-0.0524,-0.0015,95,19.012,367,2.4694,8.6145,-10.9948,0.0195,-0.0132,0.0132,63
19.578,378,8.8707,-3.7202,-10.1157,0.0108,-0.0495,0.0018,95,19.064,368,2.6295,8.7619,-10.9295,0.0244,-0.0006,0.0131,63
19.63,379,8.8856,-3.705,-10.1385,0.0114,-0.0258,0.0048,95,19.115,369,2.5639,8.6783,-10.9176,0.0254,-0.0354,0.0194,63
19.682,380,8.8873,-3.6918,-10.1394,0.0205,-0.023,0.0037,95,19.167,370,2.7233,8.8177,-10.932,0.0196,-0.0169,0.0312,63
19.734,381,8.9419,-3.6611,-10.0986,0.0289,-0.0048,0.0012,95,19.219,371,2.7828,8.8698,-10.9442,0.0602,0.011,0.0152,63
19.786,382,8.9487,-3.6211,-10.119,0.0128,0.0266,-0.001,95,19.271,372,2.7697,8.7835,-10.976,0.0609,0.0015,0.0103,63
19.838,383,8.9235,-3.6658,-10.085,0.0053,0.0261,-0.0059,95,19.323,373,2.7399,8.7502,-11.0461,-0.0032,-0.0204,0.0242,63
19.889,384,8.8883,-3.6953,-10.0738,-0.0049,0.0214,-0.0069,95,19.374,374,2.5603,8.6401,-11.0344,-0.0313,-0.0621,0.0353,63
19.941,385,8.8898,-3.6871,-10.0715,-0.0071,0.0097,-0.0081,95,19.426,375,2.6578,8.7422,-10.9494,-0.0595,-0.0697,0.036,63
19.993,386,8.8444,-3.7028,-10.0413,0.019,-0.016,-0.0082,95,19.478,376,2.6478,8.7555,-10.9441,-0.0781,-0.1023,0.0208,63
20.045,387,8.7944,-3.753,-10.1093,0.0949,-0.1044,-0.0049,95,19.53,377,2.6924,8.7654,-10.9313,-0.1119,-0.0686,0.0155,63
20.096,388,8.9332,-3.6762,-10.087,0.0613,-0.0924,-0.0011,95,19.581,378,2.7276,8.7929,-10.8497,-0.0942,-0.0316,0.0105,63
20.148,389,8.8833,-3.7128,-10.0934,0.0584,-0.0812,-0.0032,95,19.633,379,2.8067,8.904,-10.8652,-0.0809,-0.0115,0.033,63
20.2,390,8.8904,-3.7257,-10.1845,0.0723,-0.094,-0.0051,95,19.685,380,2.8341,8.9402,-10.8954,-0.0321,-0.0431,0.013,63
20.252,391,8.8769,-3.7492,-10.1774,0.0253,-0.0587,-0.0024,95,19.737,381,2.8131,8.8553,-10.8438,0.0656,-0.0337,-0.0149,63
20.304,392,8.8028,-3.783,-10.2122,0.0153,-0.0416,-0.0019,95,19.789,382,2.7674,8.8363,-10.892,-0.0089,-0.0237,-0.0068,63
20.356,393,8.8501,-3.7115,-10.2015,0.0935,-0.0788,-0.0129,95,19.84,383,2.7125,9.0487,-10.8985,-0.015,-0.009,-0.0064,63
20.407,394,8.8966,-3.5951,-10.2405,0.0977,-0.0739,-0.0077,95,19.892,384,2.7812,9.2286,-10.9103,0.0809,-0.0061,-0.0399,63
20.459,395,8.8789,-3.6364,-10.2608,0.1157,-0.0849,-0.0087,95,19.944,385,2.8768,9.0747,-11.1774,0.2985,-0.066,-0.1589,63
20.511,396,8.9162,-3.6015,-10.4348,0.1488,-0.077,-0.0121,95,19.996,386,3.0584,9.826,-10.9967,0.3029,-0.1464,-0.2634,63
20.563,397,8.8206,-3.7254,-10.3611,0.1627,-0.0283,-0.0218,95,20.047,387,2.7355,9.4124,-11.3223,0.2734,-0.1297,-0.3965,63
20.614,398,8.6803,-3.8016,-10.3215,0.1594,-0.0403,-0.022,95,20.099,388,2.1799,8.5624,-11.0477,-0.1647,-0.092,-0.5084,63
20.666,399,8.849,-3.5896,-10.4228,0.1534,-0.0548,-0.0104,95,20.151,389,1.9314,8.3956,-10.7978,-0.1468,0.0222,-0.428,63
20.718,400,8.8111,-3.7171,-10.329,0.1181,-0.0432,0.0068,95,20.203,390,1.7616,8.3297,-10.9345,-0.3838,0.1653,-0.2897,63
20.77,401,8.8885,-3.598,-10.3164,0.158,-0.0468,0.0174,95,20.255,391,1.7111,8.6957,-10.8425,-0.6599,0.2943,-0.1186,63
20.822,402,8.9218,-3.599,-10.3295,0.1387,-0.055,0.0377,95,20.306,392,1.611,9.0017,-10.7174,-0.3794,0.279,0.0521,63
20.874,403,8.8046,-3.7346,-10.3621,0.1196,-0.048,0.0339,95,20.358,393,1.4913,8.9837,-10.4777,-0.2672,0.2307,0.0828,63
20.925,404,8.8759,-3.7399,-10.4281,0.1251,-0.0344,0.0353,95,20.41,394,1.0451,9.0367,-10.5969,-0.0095,0.1041,0.1039,63
20.977,405,8.9028,-3.7436,-10.3443,0.1018,0.0057,0.0371,95,20.462,395,1.0895,8.9728,-10.6426,0.0552,0.036,0.0972,63
21.029,406,8.9676,-3.5898,-10.4067,0.0521,0.0408,0.041,95,20.513,396,1.5941,8.9639,-10.6594,0.1378,0.0694,0.0797,63
21.081,407,9.0906,-3.3842,-10.3679,-0.0003,0.1091,0.0452,95,20.565,397,2.3286,9.1079,-10.5047,0.1679,0.0401,0.0381,63
21.132,408,8.8341,-3.9139,-10.1568,-0.2114,0.2364,0.0702,95,20.617,398,2.2711,8.844,-10.7015,0.1914,0.038,0.0382,63
21.184,409,9.0429,-3.7548,-10.0436,-0.2442,0.2837,0.0526,95,20.669,399,1.7598,8.3573,-11.0107,0.1401,-0.1,0.1457,63
21.236,410,9.0221,-3.7879,-10.0368,-0.4139,0.2951,0.0505,95,20.72,400,2.2347,8.56,-10.7808,0.0875,-0.1311,0.306,63
21.288,411,8.65,-4.1237,-9.9163,-0.4382,0.2215,0.0038,95,20.772,401,2.3651,9.1043,-10.9712,0.041,-0.2725,0.3632,63
21.34,412,8.5508,-4.323,-10.147,-0.3326,0.1395,-0.0472,95,20.824,402,2.1095,9.1792,-10.8625,-0.0595,-0.4346,0.2443,63
21.391,413,8.7231,-4.1476,-9.6409,-0.2798,0.1682,-0.0393,95,20.876,403,2.4164,8.6472,-10.4718,-0.084,-0.2428,0.0973,63
21.443,414,8.5803,-4.2955,-9.94,-0.0059,0.031,-0.0377,95,20.928,404,2.5781,9.1369,-10.1359,-0.5405,0.0849,0.0791,63
21.495,415,8.5622,-4.3713,-9.8672,-0.0125,0.0275,0.0053,95,20.979,405,2.5246,9.0158,-10.398,-0.7158,0.4023,0.1223,63
21.547,416,8.6776,-4.2371,-9.8948,-0.0185,0.0195,0.0335,95,21.031,406,2.6371,9.0603,-10.1464,-0.6438,0.2718,0.1071,63
21.599,417,8.9711,-3.7383,-9.898,0.0247,0.0163,0.0085,95,21.083,407,2.6918,8.9651,-9.6818,-0.3464,0.2193,0.0973,63
21.65,418,8.9166,-3.7228,-9.9137,-0.0911,0.1109,0.0169,95,21.135,408,2.718,8.9691,-9.5049,-0.2745,0.226,0.0645,63
21.702,419,9.0471,-3.6277,-9.8996,-0.0627,0.1067,-0.008,95,21.186,409,2.7637,8.9879,-9.4449,-0.1431,0.2282,0.0552,63
21.754,420,9.0223,-3.5222,-9.9962,-0.1752,0.1522,-0.0144,95,21.238,410,2.7376,8.8558,-9.5165,0.0312,0.1567,0.0197,63
21.806,421,8.8636,-3.7188,-9.9893,-0.2917,0.1824,-0.0162,95,21.29,411,2.7855,8.157,-9.5623,0.1798,-0.0891,0.078,63
21.858,422,8.8732,-3.7903,-9.6655,-0.2667,0.1667,-0.0459,95,21.342,412,2.5008,8.2139,-10.2596,0.7701,-0.3395,0.1848,63
21.909,423,8.8016,-3.8159,-9.7041,-0.3385,0.1773,-0.0415,95,21.394,413,2.4263,8.7901,-10.985,1.126,-0.4296,0.2162,63
21.961,424,8.6175,-4.0872,-9.6279,-0.2522,0.1103,-0.0418,95,21.445,414,2.2525,7.8304,-11.1944,1.2434,-0.3517,0.307,63
22.013,425,8.8116,-3.6843,-9.8625,-0.1901,0.0585,-0.0482,95,21.497,415,3.0356,6.2233,-11.2096,1.4782,-0.1519,0.7724,63
22.065,426,8.8772,-3.7837,-10.0184,-0.1238,0.0554,-0.0587,95,21.549,416,3.6859,5.7659,-11.1479,1.7029,0.2309,1.2441,63
22.117,427,8.8605,-3.7611,-9.892,-0.0769,0.0592,-0.074,95,21.601,417,4.956,5.6786,-11.5735,1.6917,0.7148,1.5883,63
22.168,428,8.9477,-3.5637,-9.8874,-0.0585,0.0574,-0.0679,95,21.653,418,6.2758,5.1907,-12.2735,1.135,1.1543,1.8374,63
22.22,429,8.8547,-3.6922,-9.7337,-0.0248,0.0473,-0.0607,95,21.705,419,7.4429,5.5356,-12.9614,0.9986,1.2561,1.8835,63
22.272,430,8.8985,-3.5546,-9.6906,0.0514,-0.0058,-0.0764,95,21.756,420,7.534,5.6927,-13.5265,0.6529,1.125,1.6624,63
22.324,431,8.9063,-3.5272,-9.6956,-0.0087,-0.0355,-0.0689,95,21.808,421,7.5027,6.7744,-13.9643,0.1133,0.8077,1.6732,63
