right_leg_timestamp,right_leg_index,right_leg_accel_x,right_leg_accel_y,right_leg_accel_z,right_leg_gyro_x,right_leg_gyro_y,right_leg_gyro_z,right_leg_battery_percentage,left_leg_timestamp,left_leg_index,left_leg_accel_x,left_leg_accel_y,left_leg_accel_z,left_leg_gyro_x,left_leg_gyro_y,left_leg_gyro_z,left_leg_battery_percentage
0.454,8,9.4586,-1.8294,-11.0269,0.0524,-0.0836,-0.0501,79,0.138,2,0.3224,-3.9226,-18.6009,-0.0408,-0.0668,0.2051,50
0.506,9,9.3849,-1.9355,-11.0511,-0.0756,-0.1169,-0.0612,79,0.189,3,0.115,-3.8213,-18.5979,-0.0336,-0.04,0.2063,50
0.558,10,9.3886,-1.6559,-11.1988,-0.1364,-0.1851,-0.0582,79,0.241,4,0.2358,-3.8487,-18.8976,-0.0358,-0.0009,0.1858,50
0.61,11,9.4276,-1.7169,-11.3263,-0.0733,-0.175,-0.0283,79,0.293,5,0.317,-3.8701,-19.17,0.052,0.013,0.1205,50
0.661,12,9.4279,-1.6396,-11.4377,-0.0179,-0.1674,-0.0013,79,0.345,6,0.1843,-3.7566,-19.1257,0.1113,-0.0141,0.0353,50
0.713,13,9.3786,-1.6462,-11.5705,-0.0004,-0.1117,0.0617,79,0.397,7,0.0648,-3.7913,-19.0208,0.1063,-0.0515,-0.0438,50
0.765,14,9.3258,-1.7612,-11.5549,0.0489,-0.0895,0.1091,79,0.449,8,-0.0596,-3.9897,-18.8753,0.1192,-0.0709,-0.1211,50
0.817,15,9.3033,-1.7776,-11.6524,0.0194,-0.1077,0.1145,79,0.5,9,0.276,-4.3132,-18.75,0.0792,-0.0935,-0.1436,50
0.868,16,9.3214,-1.7106,-11.6397,-0.0524,-0.0699,0.1635,79,0.552,10,0.2786,-4.405,-18.7825,0.1412,-0.0317,-0.2162,50
0.92,17,9.2482,-1.985,-11.7001,-0.1101,-0.0803,0.1694,79,0.604,11,-0.0593,-4.2062,-18.8069,0.2721,0.0362,-0.3844,50
0.972,18,9.2227,-1.9852,-11.8087,-0.0443,-0.124,0.1569,79,0.656,12,0.2694,-3.9869,-18.6532,0.2886,-0.0569,-0.5059,50
1.024,19,9.2529,-1.8592,-11.9568,0.1024,-0.0943,0.2009,79,0.708,13,0.681,-3.8894,-18.6242,0.2157,-0.1679,-0.6378,50
1.076,20,8.6426,-1.4215,-11.292,0.0505,-0.0141,0.1845,79,0.759,14,1.0859,-4.0196,-18.4596,0.1376,-0.2013,-0.9014,50
1.127,21,8.8969,-1.7591,-11.5087,0.1249,-0.028,0.1385,79,0.811,15,1.3604,-4.454,-18.3485,-0.004,-0.2207,-1.0906,50
1.179,22,9.0756,-1.8763,-11.5457,0.0593,0.033,0.0727,79,0.863,16,1.6111,-4.7352,-17.926,-0.113,-0.2314,-1.1223,50
1.231,23,9.0158,-2.0135,-11.7795,-0.0366,0.0056,0.0114,79,0.915,17,1.9968,-4.5391,-17.9007,-0.2389,-0.1605,-1.0372,50
1.283,24,9.1557,-2.1153,-11.7941,-0.0675,0.0374,-0.0399,79,0.966,18,2.3484,-4.5246,-18.1985,-0.2632,-0.0318,-0.9705,50
1.335,25,9.1291,-2.1566,-11.9244,-0.2096,0.105,-0.1005,79,1.018,19,2.5098,-4.4868,-18.4039,-0.2132,0.1397,-0.8593,50
1.386,26,9.2689,-2.1526,-11.6849,-0.509,0.2454,-0.1162,79,1.07,20,2.4265,-4.3654,-18.4679,-0.1839,0.2392,-0.5775,50
1.438,27,9.1619,-2.0706,-11.6938,-0.6352,0.2819,-0.1148,79,1.122,21,2.2727,-3.9974,-18.5053,-0.1822,0.3485,-0.2876,50
1.49,28,9.1433,-1.8982,-11.6712,-0.554,0.252,-0.1048,79,1.174,22,2.1522,-3.8579,-18.7615,-0.2438,0.4322,-0.0561,50
1.542,29,9.3494,-1.7548,-11.6512,-0.5051,0.2536,-0.0566,79,1.225,23,2.1179,-3.7671,-18.8197,-0.2467,0.4139,0.154,50
1.594,30,9.2819,-1.925,-11.596,-0.4289,0.2368,-0.0283,79,1.277,24,2.1609,-3.5157,-18.6118,-0.1952,0.3296,0.3469,50
1.645,31,8.7829,-3.0072,-11.5488,-0.1094,0.1502,-0.0549,79,1.329,25,2.2546,-3.1162,-18.7745,-0.1218,0.3,0.4652,50
1.697,32,9.6115,-1.7689,-11.2082,-0.0591,-0.0104,-0.0209,79,1.381,26,2.8189,-2.8481,-18.8778,-0.1776,0.2621,0.5127,50
1.749,33,9.6858,-1.5156,-11.36,-0.0711,-0.0376,0.0046,79,1.432,27,2.9119,-2.8692,-18.6347,-0.2036,0.23,0.4509,50
1.801,34,9.5523,-1.4424,-11.4194,-0.1932,0.0021,0.0291,79,1.484,28,2.7934,-2.8834,-18.4399,-0.197,0.244,0.3457,50
1.853,35,9.4314,-1.6152,-11.55,-0.2611,0.0325,0.0566,79,1.536,29,2.7181,-2.9735,-18.338,-0.257,0.2513,0.2649,50
1.904,36,9.345,-1.9644,-11.4638,-0.2512,0.0522,0.0503,79,1.588,30,2.7191,-3.0495,-18.2861,-0.2165,0.2372,0.1923,50
1.956,37,9.001,-2.6497,-11.5636,-0.038,-0.0271,0.0028,79,1.639,31,2.6939,-2.9257,-18.4507,-0.1326,0.2332,0.0846,50
2.008,38,9.6778,-1.5699,-11.3102,0.1896,-0.1061,-0.0415,79,1.691,32,2.9758,-2.8143,-18.6859,-0.1523,0.1907,0.0136,50
2.06,39,9.6713,-1.5103,-11.4359,0.1744,-0.1261,-0.0459,79,1.743,33,2.98,-2.9982,-18.6208,-0.1773,0.1374,-0.0375,50
2.112,40,9.5579,-1.6362,-11.5924,0.1694,-0.1371,-0.0681,79,1.795,34,2.9008,-3.1107,-18.5523,-0.1284,0.1013,-0.0944,50
2.163,41,9.4819,-1.6348,-11.7398,0.2612,-0.0921,-0.0855,79,1.846,35,2.9604,-3.088,-18.5564,-0.0967,0.0699,-0.1081,50
2.215,42,9.4246,-1.7539,-11.5894,0.2839,-0.1167,-0.0871,79,1.898,36,2.9764,-3.0947,-18.5147,-0.0614,0.0513,-0.1129,50
2.267,43,9.4124,-1.7194,-11.69,0.3086,-0.1524,-0.1218,79,1.951,37,2.9896,-3.0696,-18.5534,-0.0349,0.034,-0.1111,50
2.319,44,9.4399,-1.7027,-11.6864,0.3162,-0.1353,-0.1252,79,2.002,38,3.0664,-2.9879,-18.7006,-0.0268,-0.0076,-0.0522,50
2.371,45,9.4192,-1.7153,-11.6812,0.2824,-0.138,-0.1249,79,2.054,39,3.0227,-2.9186,-18.6556,-0.0111,-0.0645,0.0106,50
2.422,46,9.4025,-1.6334,-11.747,0.2334,-0.1257,-0.1091,79,2.106,40,3.0306,-2.8793,-18.4706,-0.0046,-0.098,0.0424,50
2.474,47,9.3809,-1.6249,-11.7666,0.1776,-0.1155,-0.0843,79,2.157,41,3.1575,-2.8092,-18.4489,-0.0117,-0.0838,0.0635,50
2.526,48,9.3752,-1.6222,-11.8151,0.1172,-0.1042,-0.0557,79,2.209,42,3.2704,-2.7978,-18.3992,-0.0197,-0.0547,0.0859,50
2.578,49,9.3517,-1.6107,-11.8176,0.0693,-0.1012,-0.0321,79,2.261,43,3.3277,-2.8242,-18.4248,-0.024,-0.0304,0.092,50
2.63,50,9.3326,-1.6366,-11.902,0.0352,-0.1269,-0.0252,79,2.313,44,3.3426,-2.934,-18.5016,-0.0503,-0.0163,0.1139,50
2.681,51,9.3205,-1.6595,-11.9856,0.0021,-0.1095,-0.008,79,2.365,45,3.2821,-3.0611,-18.4709,-0.0598,0.0081,0.1528,50
2.733,52,9.308,-1.7229,-11.9354,-0.0652,-0.129,-0.0135,79,2.416,46,3.1827,-3.0948,-18.5046,-0.0623,0.0172,0.2191,50
2.785,53,9.2651,-1.6315,-12.1391,-0.1167,-0.1551,-0.0089,79,2.468,47,3.0916,-3.1048,-18.4901,-0.062,0.0315,0.2948,50
2.837,54,9.2825,-1.5645,-12.2283,-0.1493,-0.161,0.0099,79,2.52,48,3.0031,-3.0541,-18.0836,-0.0258,0.0831,0.3123,50
2.889,55,9.1804,-1.5106,-12.4031,-0.1256,-0.1533,0.006,79,2.572,49,3.0688,-2.929,-18.0271,-0.0264,0.2117,0.2534,50
2.94,56,9.1913,-1.3925,-12.4721,-0.097,-0.0776,0.0118,79,2.623,50,3.1764,-2.9757,-18.4436,-0.0418,0.2649,0.2099,50
2.992,57,9.1933,-1.5048,-12.4459,-0.058,-0.0382,-0.0066,79,2.675,51,3.242,-2.8976,-18.6916,-0.032,0.2178,0.1931,50
3.044,58,9.1507,-1.3376,-12.701,0.001,0.0458,-0.0136,79,2.727,52,3.1992,-3.0424,-18.7929,-0.0215,0.1449,0.2135,50
3.096,59,9.2181,-1.4495,-12.3444,-0.0153,0.0428,-0.0223,79,2.779,53,3.01,-3.0378,-18.7808,-0.0094,0.0065,0.2178,50
3.147,60,9.2245,-1.4032,-12.4591,-0.0257,-0.0434,-0.0762,79,2.831,54,2.8208,-2.9905,-18.8043,0.0308,-0.1031,0.1887,50
3.199,61,9.2549,-1.3887,-12.3946,-0.0383,0.0054,-0.0451,79,2.882,55,2.7541,-3.0724,-18.5193,0.1269,-0.1616,0.149,50
3.251,62,9.2383,-1.4454,-12.3884,-0.0515,-0.0066,-0.0215,79,2.934,56,2.6805,-3.0951,-18.4816,0.1167,-0.2098,0.1352,50
3.303,63,9.2612,-1.4797,-12.3468,-0.0385,-0.0184,-0.0043,79,2.986,57,2.5951,-3.1669,-18.4484,0.1301,-0.222,0.113,50
3.355,64,9.2408,-1.5083,-12.3514,-0.0444,-0.0432,0.0019,79,3.038,58,2.6216,-3.1907,-18.443,0.1507,-0.2123,0.0618,50
3.407,65,9.122,-1.505,-12.4367,-0.0448,-0.054,-0.0007,79,3.089,59,2.7879,-3.2199,-18.4075,0.1143,-0.2121,0.0592,50
3.458,66,9.1571,-1.4881,-12.4596,-0.0386,-0.0513,0.0219,79,3.141,60,2.8684,-3.2572,-18.2959,0.0774,-0.1696,0.0779,50
3.51,67,9.2076,-1.6087,-12.4292,-0.0537,-0.0394,0.0611,79,3.193,61,2.8677,-3.2547,-18.1523,0.046,-0.096,0.0748,50
3.562,68,9.1404,-1.5739,-12.5307,-0.1394,-0.0307,0.1059,79,3.245,62,2.7817,-3.1848,-18.1457,-0.031,-0.021,0.0488,50
3.614,69,9.1017,-1.3225,-12.5493,-0.2164,-0.0279,0.1,79,3.297,63,2.6086,-3.2586,-18.2049,-0.106,0.0571,-0.0195,50
3.666,70,9.0641,-1.3304,-12.6623,-0.1937,-0.0006,0.1189,79,3.348,64,2.6537,-3.4393,-18.4285,-0.1086,0.1195,-0.1339,50
3.717,71,9.117,-1.9572,-12.5769,-0.0263,0.1768,0.0968,79,3.4,65,2.815,-3.4558,-18.6236,-0.0788,0.1237,-0.1921,50
3.769,72,9.2068,-1.8917,-12.3746,-0.1161,0.1418,0.1386,79,3.452,66,2.8139,-3.351,-18.6546,-0.051,0.0856,-0.238,50
3.821,73,9.2216,-1.7418,-12.383,-0.0201,0.1562,0.1049,79,3.504,67,2.962,-3.299,-18.6084,-0.0636,0.0127,-0.281,50
3.873,74,9.2119,-1.3963,-12.2827,-0.2111,0.3181,0.1678,79,3.556,68,3.0411,-3.3969,-18.4192,-0.0845,0.0115,-0.2743,50
3.925,75,9.2342,-1.6751,-12.1631,-0.297,0.2657,0.1429,79,3.607,69,2.9535,-3.5071,-18.3762,-0.074,0.0777,-0.2765,50
3.976,76,9.1588,-1.9604,-12.1149,-0.252,0.2469,0.0704,79,3.659,70,2.8044,-3.5061,-18.4756,0.0051,0.0952,-0.2408,50
4.028,77,9.1055,-1.9393,-12.0697,-0.121,0.2024,0.0277,79,3.711,71,2.8635,-3.2138,-18.7387,0.0509,0.0478,-0.1673,50
4.08,78,9.2617,-1.6802,-11.8433,-0.08,0.1563,0.0245,79,3.763,72,2.9401,-2.9717,-18.607,0.0221,-0.0068,-0.1014,50
4.132,79,9.3095,-1.5126,-11.8542,-0.1784,0.1249,0.0537,79,3.815,73,2.846,-2.9401,-18.3935,-0.0019,-0.0092,-0.0902,50
4.183,80,9.2555,-1.7424,-11.9315,-0.1237,0.1032,0.03,79,3.866,74,2.6797,-2.9644,-18.3623,0.0337,0.0158,-0.1081,50
4.235,81,9.2145,-1.6821,-11.8549,0.0106,0.0767,0.0181,79,3.918,75,2.7353,-2.8762,-18.4874,0.0311,0.0098,-0.0915,50
4.287,82,9.2888,-1.7045,-11.783,0.0082,0.0379,0.0317,79,3.97,76,2.9151,-2.8425,-18.6088,-0.0129,-0.0386,-0.0556,50
4.339,83,9.269,-1.7715,-11.7997,-0.0321,0.0294,0.0441,79,4.022,77,3.023,-2.9148,-18.5466,-0.0211,-0.0748,-0.0467,50
4.391,84,9.2946,-1.7959,-11.7987,-0.0209,0.0381,0.044,79,4.073,78,3.1024,-2.9647,-18.4568,-0.0188,-0.0878,-0.0563,50
4.442,85,9.3007,-1.8193,-11.7687,0.0017,0.0392,0.0364,79,4.125,79,3.105,-3.0141,-18.3633,-0.0023,-0.0778,-0.0647,50
4.494,86,9.278,-1.906,-11.755,0.0208,0.024,0.0248,79,4.177,80,3.1042,-3.0254,-18.4025,0.0009,-0.0569,-0.0549,50
4.546,87,9.2912,-1.871,-11.7416,0.0416,0.0306,0.0191,79,4.229,81,3.0818,-2.9969,-18.4364,-0.0079,-0.0341,-0.0283,50
4.598,88,9.247,-2.0166,-11.7188,0.0646,0.0092,-0.0046,79,4.281,82,2.9488,-2.9522,-18.4449,0.0009,-0.013,-0.0128,50
4.65,89,9.2673,-2.0028,-11.7289,0.1097,-0.0021,-0.0234,79,4.332,83,2.9041,-2.9272,-18.4848,0.0073,-0.0103,0.0034,50
4.702,90,9.1972,-1.9828,-11.6925,0.171,-0.0315,-0.0345,79,4.384,84,2.9135,-2.87,-18.5036,-0.0069,-0.0143,0.031,50
4.753,91,9.2356,-1.9441,-11.6897,0.1933,-0.0828,-0.0486,79,4.436,85,2.9531,-2.8246,-18.5109,-0.0066,0.0009,0.0324,50
4.805,92,9.2987,-1.8816,-11.8054,0.2081,-0.095,-0.0576,79,4.487,86,3.0079,-2.7641,-18.5597,-0.0074,0.0081,0.0127,50
4.857,93,9.3024,-1.7921,-11.781,0.2312,-0.058,-0.0438,79,4.539,87,3.0101,-2.7782,-18.509,-0.0262,0.0081,0.0051,50
4.909,94,9.3022,-1.7966,-11.7483,0.1908,-0.0639,-0.0238,79,4.591,88,3.0361,-2.8246,-18.4312,-0.036,0.0107,-0.0114,50
4.961,95,9.3103,-1.7614,-11.7729,0.0714,-0.0398,0.0146,79,4.643,89,3.1142,-2.8192,-18.4434,-0.0569,0.0282,-0.0184,50
5.012,96,9.2973,-1.9004,-11.7651,-0.0453,-0.0169,0.0438,79,4.695,90,3.1465,-2.893,-18.4577,-0.0635,0.0581,-0.0306,50
5.064,97,9.2493,-1.8529,-11.7844,-0.1543,0.0465,0.0545,79,4.746,91,3.1847,-2.9782,-18.4961,-0.0484,0.0795,-0.0388,50
5.116,98,9.2657,-1.9004,-11.8227,-0.1767,0.0457,0.043,79,4.798,92,3.1778,-2.9489,-18.5452,-0.0237,0.0801,-0.009,50
5.168,99,9.2577,-1.935,-11.8301,-0.1624,0.0482,0.0395,79,4.85,93,3.1132,-2.864,-18.5081,-0.0396,0.074,0.0463,50
5.219,100,9.2762,-1.9432,-11.8125,-0.1541,0.0597,0.0384,79,4.902,94,3.0457,-2.8186,-18.3997,-0.0588,0.0868,0.0801,50
5.271,101,9.3227,-1.8995,-11.8098,-0.165,0.0601,0.0319,79,4.954,95,3.0427,-2.7772,-18.468,-0.0781,0.1075,0.0989,50
5.323,102,9.2945,-1.9302,-11.8157,-0.1574,0.0737,0.0348,79,5.005,96,3.0738,-2.7356,-18.6139,-0.0836,0.0944,0.129,50
5.375,103,9.2905,-1.9651,-11.7157,-0.1378,0.0787,0.0401,79,5.057,97,3.1251,-2.6928,-18.6642,-0.0964,0.0466,0.1483,50
5.427,104,9.3032,-1.9735,-11.6832,-0.1431,0.0609,0.0376,79,5.109,98,3.1079,-2.6716,-18.4791,-0.0974,0.0166,0.1363,50
5.478,105,9.2842,-2.029,-11.6869,-0.1383,0.0615,0.037,79,5.161,99,3.096,-2.6696,-18.328,-0.079,0.025,0.096,50
5.53,106,9.2026,-2.1261,-11.6819,-0.0909,0.0462,0.0303,79,5.213,100,3.1219,-2.6392,-18.39,-0.0646,0.0501,0.0568,50
5.582,107,9.2379,-2.0738,-11.6803,-0.037,0.0324,0.0226,79,5.264,101,3.1865,-2.5775,-18.5414,-0.0739,0.0423,0.0349,50
5.634,108,9.2697,-2.0363,-11.624,-0.0102,0.0216,0.0162,79,5.316,102,3.1622,-2.5849,-18.527,-0.0585,0.0252,-0.0089,50
5.686,109,9.2722,-2.0141,-11.6383,0.0051,0.008,0.0056,79,5.368,103,3.0768,-2.6357,-18.4029,-0.0094,0.0067,-0.0674,50
5.737,110,9.0874,-2.3368,-11.6275,0.0748,-0.0102,-0.0082,79,5.42,104,3.1299,-2.522,-18.4611,0.0462,0.0084,-0.1261,50
5.789,111,9.1937,-2.072,-11.5504,0.0786,-0.046,-0.0133,79,5.471,105,3.2701,-2.4067,-18.6326,0.061,-0.0074,-0.1684,50
5.841,112,9.3323,-1.8359,-11.5648,0.1229,-0.0957,-0.0295,79,5.523,106,3.2924,-2.4112,-18.6074,0.0461,-0.038,-0.2078,50
5.893,113,9.3481,-1.8078,-11.658,0.0974,-0.0919,-0.0319,79,5.575,107,3.2827,-2.5506,-18.518,0.0407,-0.0408,-0.2203,50
5.945,114,9.3202,-1.8732,-11.6954,0.0518,-0.0713,-0.0204,79,5.627,108,3.2977,-2.703,-18.5283,0.0409,-0.0419,-0.1867,50
5.996,115,9.2989,-1.92,-11.7144,0.0266,-0.0532,-0.0119,79,5.678,109,3.3756,-2.7472,-18.6448,0.083,-0.0418,-0.1314,50
6.048,116,9.2882,-1.9082,-11.6746,-0.0542,-0.0143,0.0049,79,5.73,110,3.4569,-2.7298,-18.729,0.1093,-0.0696,-0.0701,50
6.1,117,9.3545,-1.8847,-11.708,-0.1001,-0.0267,-0.0021,79,5.782,111,3.4317,-2.8227,-18.6998,0.1156,-0.1043,-0.0208,50
6.152,118,9.3952,-1.8291,-11.7861,-0.1676,0.0105,-0.0,79,5.834,112,3.314,-2.9321,-18.4949,0.1062,-0.123,0.0226,50
6.204,119,9.3668,-1.8372,-11.8099,-0.2224,0.0569,0.0109,79,5.886,113,3.1184,-2.9697,-18.2317,0.0906,-0.1047,0.0758,50
6.255,120,9.3012,-1.9439,-11.8172,-0.2056,0.0841,0.0174,79,5.937,114,2.9191,-2.8825,-18.0741,0.0684,-0.0637,0.1254,50
6.307,121,9.1288,-2.1308,-11.8657,-0.0912,0.1195,0.0223,79,5.989,115,2.8832,-2.7263,-18.232,0.0598,-0.0169,0.1543,50
6.359,122,9.1596,-2.1095,-11.6587,-0.0112,0.1041,0.0268,79,6.041,116,2.9238,-2.5505,-18.4426,0.0323,-0.0027,0.1447,50
6.411,123,9.2794,-1.8642,-11.6436,0.1704,0.0225,-0.0032,79,6.093,117,2.9141,-2.436,-18.541,0.008,0.0032,0.0686,50
6.462,124,9.364,-1.7979,-11.58,0.2449,-0.0257,-0.0131,79,6.144,118,2.9292,-2.5062,-18.5732,-0.0169,-0.0031,-0.0256,50
6.514,125,9.3421,-1.8496,-11.5751,0.2355,-0.045,-0.0178,79,6.196,119,2.9268,-2.6805,-18.5334,-0.0274,-0.013,-0.0994,50
6.566,126,9.3438,-1.8909,-11.6138,0.2002,-0.0386,-0.0118,79,6.248,120,2.9751,-2.7976,-18.5776,-0.0261,-0.0149,-0.1264,50
6.618,127,9.3449,-1.9193,-11.5891,0.1674,-0.0342,0.0008,79,6.3,121,3.0682,-2.8205,-18.6324,-0.0375,-0.0266,-0.1079,50
6.67,128,9.3957,-1.8584,-11.5837,0.0696,-0.0043,0.0142,79,6.352,122,3.1415,-2.9163,-18.5564,-0.0602,-0.0274,-0.0517,50
6.721,129,9.3942,-1.8815,-11.5737,-0.0554,0.0347,0.0356,79,6.404,123,3.169,-3.0269,-18.434,-0.0623,0.0012,0.0058,50
6.773,130,9.3802,-1.9386,-11.6017,-0.1316,0.038,0.0401,79,6.455,124,3.1332,-2.9962,-18.4478,-0.0439,0.04,0.0542,50
6.825,131,9.3525,-1.9535,-11.6502,-0.1421,0.0495,0.0427,79,6.507,125,3.0635,-2.8826,-18.5317,-0.0505,0.0569,0.107,50
6.877,132,9.2955,-2.0201,-11.61,-0.1087,0.0538,0.0461,79,6.559,126,3.0255,-2.7422,-18.6681,-0.0553,0.046,0.1336,50
6.929,133,9.3587,-1.94,-11.5519,-0.0626,0.0391,0.0344,79,6.611,127,2.9579,-2.6528,-18.6945,-0.0716,0.0104,0.1285,50
6.98,134,9.3486,-1.95,-11.5505,-0.0761,0.0436,0.034,79,6.663,128,2.8989,-2.6851,-18.6264,-0.0911,-0.0274,0.0962,50
7.032,135,9.3306,-2.0149,-11.5471,-0.0662,0.0514,0.0302,79,6.714,129,2.8641,-2.7403,-18.5861,-0.078,-0.043,0.0619,50
7.084,136,9.3144,-2.0247,-11.4793,-0.042,0.0509,0.0254,79,6.766,130,2.8869,-2.7029,-18.6752,-0.0672,-0.0532,0.0409,50
7.136,137,9.3202,-2.0455,-11.4662,-0.0113,0.0322,0.0173,79,6.818,131,2.8868,-2.6733,-18.7662,-0.045,-0.0904,0.0339,50
7.188,138,9.3216,-2.0204,-11.4591,0.013,0.0251,0.0112,79,6.87,132,2.7915,-2.6624,-18.6951,-0.0251,-0.1207,0.0276,50
7.239,139,9.3292,-2.0131,-11.4728,0.0274,0.0401,0.0177,79,6.921,133,2.6837,-2.6753,-18.5579,-0.0111,-0.1167,0.0196,50
7.291,140,9.3311,-2.0706,-11.4402,0.0175,0.0709,0.0332,79,6.973,134,2.6017,-2.6981,-18.5104,-0.0211,-0.0833,0.0059,50
7.343,141,9.3238,-2.1172,-11.3748,0.0189,0.0868,0.0368,79,7.025,135,2.6087,-2.6469,-18.6445,0.0052,-0.0508,-0.006,50
7.395,142,9.3325,-2.1155,-11.3256,0.0335,0.0947,0.0392,79,7.077,136,2.5775,-2.5835,-18.7853,0.009,-0.0494,0.0009,50
7.447,143,9.3355,-2.1292,-11.2666,0.0373,0.1087,0.0495,79,7.129,137,2.5637,-2.5868,-18.7845,0.0093,-0.0622,0.003,50
7.498,144,9.3331,-2.1664,-11.2011,0.0412,0.1151,0.0555,79,7.18,138,2.5744,-2.6175,-18.7041,-0.0023,-0.0681,-0.008,50
7.55,145,9.319,-2.181,-11.1195,0.0293,0.122,0.0572,79,7.232,139,2.5998,-2.6831,-18.7008,0.0048,-0.0542,-0.0259,50
7.602,146,9.3096,-2.2115,-11.0908,0.0339,0.1192,0.0552,79,7.284,140,2.689,-2.6957,-18.793,0.0056,-0.0526,-0.0215,50
7.654,147,9.3049,-2.2473,-11.0116,0.029,0.1143,0.0516,79,7.335,141,2.7267,-2.6607,-18.7863,0.017,-0.0576,-0.0054,50
7.706,148,9.3304,-2.3099,-10.8944,-0.0117,0.1055,0.0481,79,7.387,142,2.7514,-2.6577,-18.6771,0.0096,-0.0497,0.0026,50
7.757,149,9.3418,-2.2769,-10.8931,-0.0556,0.095,0.0399,79,7.439,143,2.7789,-2.6668,-18.6532,0.0074,-0.0225,0.0088,50
7.809,150,9.3242,-2.2831,-10.8961,-0.0809,0.0925,0.0315,79,7.491,144,2.7503,-2.6648,-18.6585,-0.0041,-0.0005,0.0298,50
7.861,151,9.3199,-2.3182,-10.8289,-0.0742,0.0811,0.0184,79,7.543,145,2.6844,-2.6332,-18.5651,-0.0014,0.0267,0.0528,50
7.913,152,9.2943,-2.3386,-10.7657,-0.0317,0.0587,0.0076,79,7.594,146,2.6159,-2.5305,-18.2468,-0.0043,0.1142,0.0638,50
7.965,153,9.3199,-2.3637,-10.6933,-0.0047,0.0426,0.0018,79,7.646,147,2.4622,-2.3145,-17.3381,-0.0369,0.3317,0.0042,50
8.016,154,9.3539,-2.3415,-10.6989,0.014,0.0403,-0.0027,79,7.698,148,2.6882,-2.1896,-15.6382,-0.4254,0.722,-0.0914,50
8.068,155,9.3829,-2.3286,-10.7048,0.0215,0.0587,0.0058,79,7.75,149,3.3367,-1.4895,-14.3985,-0.7298,1.2119,-0.278,50
8.12,156,9.367,-2.347,-10.6768,0.0139,0.083,0.0143,79,7.802,150,5.4704,-0.3496,-13.9061,-1.0281,1.5695,-0.538,50
8.172,157,9.3892,-2.3658,-10.671,-0.0072,0.1177,0.0197,79,7.853,151,9.1098,1.7406,-13.9461,-1.3775,1.8304,-0.8951,50
8.224,158,9.3378,-2.3897,-10.6301,0.0045,0.1839,0.0174,79,7.905,152,7.6698,-1.066,-11.1471,-1.6824,1.1838,-0.7968,50
8.275,159,9.3017,-2.3491,-10.4594,0.0086,0.2113,0.01,79,7.957,153,6.4164,3.1639,-10.8442,-0.5532,1.2959,-0.6015,50
8.327,160,9.1664,-2.4299,-10.397,-0.0237,0.15,-0.0249,79,8.009,154,7.2686,1.761,-11.033,-0.6371,1.0592,-0.4745,50
8.379,161,9.2143,-2.3755,-10.3401,-0.0507,0.1645,-0.0476,79,8.061,155,7.9644,1.5024,-10.5377,-0.5144,0.7963,-0.3782,50
8.43,162,9.3035,-2.2496,-10.1942,-0.019,0.134,-0.0416,79,8.112,156,8.1576,1.5858,-10.3955,-0.3462,0.5695,-0.2751,50
8.482,163,9.3528,-2.2821,-10.129,0.0131,0.0898,-0.0449,79,8.165,157,8.2712,1.8151,-10.3189,-0.2763,0.3714,-0.2008,50
8.534,164,9.3874,-2.2444,-10.145,0.0197,0.0534,-0.0527,79,8.216,158,8.4703,1.8499,-10.2913,-0.1849,0.2635,-0.1471,50
8.586,165,9.3964,-2.2064,-10.0567,0.0196,0.0419,-0.0491,79,8.268,159,8.5481,1.906,-10.2665,-0.116,0.2011,-0.1159,50
8.638,166,9.4082,-2.186,-10.0297,0.0118,0.025,-0.051,79,8.32,160,8.6027,1.9449,-10.2192,-0.074,0.1475,-0.0943,50
8.689,167,9.3962,-2.1963,-10.0218,0.0101,0.0068,-0.0537,79,8.371,161,8.6554,1.9894,-10.2227,-0.0366,0.1113,-0.0839,50
