right_leg_timestamp,right_leg_index,right_leg_accel_x,right_leg_accel_y,right_leg_accel_z,right_leg_gyro_x,right_leg_gyro_y,right_leg_gyro_z,right_leg_battery_percentage
0.362,6,8.5874,-0.1624,-15.4526,0.007,-1.8231,0.418,75
0.414,7,7.7872,-0.1718,-15.7536,0.0328,-1.9081,0.4847,75
0.466,8,7.101,-0.3324,-15.968,0.0384,-1.891,0.5123,75
0.517,9,6.5119,-0.5892,-16.274,-0.0047,-1.7602,0.5196,75
0.569,10,6.0396,-0.7747,-16.5451,-0.0539,-1.5922,0.5152,75
0.621,11,5.5438,-0.9912,-16.9011,-0.0598,-1.3734,0.504,75
0.673,12,5.1002,-0.8082,-17.0298,-0.0909,-1.1523,0.4916,75
0.725,13,4.4813,-1.271,-17.4662,-0.0794,-0.8835,0.4416,75
0.776,14,4.2845,-0.7486,-17.3348,0.1069,-0.588,0.3789,75
0.828,15,4.1242,-0.9814,-17.6385,-0.0351,-0.3467,0.3021,75
0.88,16,4.114,-0.9084,-17.8638,0.0509,-0.1708,0.2054,75
0.932,17,4.142,-1.1358,-18.1311,-0.0554,-0.0383,0.1326,75
0.983,18,4.1595,-1.0873,-18.339,-0.0595,0.053,0.0689,75
1.035,19,4.0389,-1.134,-18.5781,-0.0618,0.1094,0.0158,75
1.087,20,3.8948,-1.0866,-18.6124,-0.0463,0.1298,-0.0322,75
1.139,21,3.641,-1.3052,-18.737,-0.0036,0.1394,-0.0804,75
1.191,22,3.7305,-1.1579,-18.6131,0.059,0.1451,-0.1335,75
1.242,23,3.6798,-1.4263,-18.7431,0.0625,0.1457,-0.1549,75
1.294,24,3.7564,-1.3559,-18.8425,0.0175,0.1289,-0.1303,75
1.346,25,3.7728,-1.4233,-18.8894,0.0129,0.0952,-0.0829,75
1.398,26,3.7635,-1.4238,-18.8677,-0.0237,0.0599,-0.0274,75
1.45,27,3.6719,-1.4915,-18.8355,-0.015,0.034,0.015,75
1.502,28,3.6918,-1.3139,-18.8221,-0.0314,0.0237,0.0408,75
1.553,29,3.7284,-1.2215,-18.9086,-0.0368,-0.0035,0.0427,75
1.605,30,3.7646,-1.2483,-18.9397,-0.0136,-0.0635,0.0205,75
1.657,31,3.7993,-1.2938,-18.8942,0.0096,-0.1228,-0.012,75
1.709,32,3.8011,-1.2688,-18.7636,0.0173,-0.1605,-0.0287,75
1.76,33,3.8587,-1.095,-18.6322,0.0331,-0.1512,-0.0355,75
1.812,34,3.9997,-0.9462,-18.6053,-0.001,-0.1102,-0.0489,75
1.864,35,4.0844,-0.9331,-18.6765,-0.0299,-0.0738,-0.0728,75
1.916,36,4.1128,-1.02,-18.6393,-0.0175,-0.0606,-0.1084,75
1.967,37,3.9874,-1.1075,-18.6016,-0.0366,-0.0463,-0.1245,75
2.019,38,3.8564,-1.1623,-18.5595,-0.008,-0.0098,-0.112,75
2.071,39,3.8213,-1.1498,-18.6358,0.0104,0.0141,-0.0908,75
2.123,40,3.8293,-1.0925,-18.714,0.0336,0.0151,-0.0625,75
2.175,41,3.8469,-1.0767,-18.777,0.0337,0.0075,-0.037,75
2.226,42,3.8736,-0.9552,-18.7764,0.0542,-0.0043,-0.0176,75
2.278,43,3.8524,-0.9852,-18.7424,0.0544,-0.0135,-0.0067,75
2.33,44,3.8761,-0.981,-18.6704,0.067,-0.0064,0.0055,75
2.382,45,3.8739,-1.2419,-18.8422,0.0719,0.0093,0.0015,75
2.434,46,3.864,-1.2011,-18.9279,0.1282,-0.0106,-0.0021,75
2.485,47,3.7777,-1.214,-18.8603,0.1209,-0.0363,0.0025,75
2.537,48,3.698,-1.2097,-18.7364,0.093,-0.0497,-0.0119,75
2.589,49,3.6913,-1.18,-18.5912,-0.0214,-0.0416,-0.0211,75
2.641,50,3.7076,-1.209,-18.5657,0.0128,0.0049,-0.0334,75
2.693,51,3.8109,-1.306,-18.6389,-0.0408,0.0447,-0.0342,75
2.744,52,3.9203,-1.4181,-18.8408,-0.0455,0.0399,-0.0181,75
2.796,53,3.9978,-1.497,-18.8586,-0.021,-0.0043,0.0006,75
2.848,54,3.936,-1.4707,-18.8027,0.0036,-0.0378,0.0129,75
2.9,55,3.8255,-1.3826,-18.7252,0.0304,-0.0488,0.012,75
2.952,56,3.7002,-1.331,-18.716,0.0431,-0.0402,0.004,75
3.003,57,3.62,-1.3088,-18.7505,0.053,-0.0314,-0.0106,75
3.055,58,3.5324,-1.279,-18.7975,0.0421,-0.0257,-0.0237,75
3.107,59,3.5024,-1.2422,-18.8448,0.0515,-0.0242,-0.0499,75
3.159,60,3.5075,-1.3336,-18.8752,0.0589,-0.0291,-0.0732,75
3.21,61,3.5268,-1.3504,-18.9184,0.0199,-0.0427,-0.0755,75
3.262,62,3.5382,-1.3926,-18.9306,0.017,-0.0568,-0.0739,75
3.314,63,3.5488,-1.4123,-18.8885,0.0084,-0.07,-0.0533,75
3.366,64,3.5536,-1.4297,-18.8483,0.0059,-0.0809,-0.0312,75
3.417,65,3.609,-1.422,-18.7834,0.0216,-0.0809,-0.0182,75
3.469,66,3.6089,-1.3995,-18.747,0.0169,-0.0675,-0.0004,75
3.521,67,3.5521,-1.3887,-18.7507,0.021,-0.0431,0.0143,75
3.573,68,3.5003,-1.3611,-18.8122,0.0137,-0.02,0.0259,75
3.625,69,3.4804,-1.3015,-18.8176,0.0075,-0.0107,0.0301,75
3.676,70,3.4311,-1.1838,-18.6767,-0.0444,0.0112,0.0366,75
3.728,71,3.5177,-1.2037,-18.7021,-0.0344,0.0661,0.0246,75
3.78,72,3.6213,-1.2487,-18.8601,-0.0481,0.0814,0.0088,75
3.832,73,3.6421,-1.2185,-18.9126,-0.0232,0.0606,0.0024,75
3.884,74,3.6246,-1.2708,-18.8751,-0.0137,0.0269,-0.0037,75
3.935,75,3.5635,-1.2584,-18.7522,0.0001,0.0014,-0.0036,75
3.987,76,3.5164,-1.3311,-18.7527,0.0076,0.0083,0.0141,75
4.039,77,3.6017,-1.3407,-18.8306,-0.0017,0.0088,0.0504,75
4.091,78,3.665,-1.344,-18.887,-0.0039,-0.0032,0.0908,75
4.142,79,3.7139,-1.3629,-18.906,-0.0197,-0.0124,0.1292,75
4.194,80,3.6785,-1.2965,-18.7879,-0.0248,-0.0052,0.1473,75
4.246,81,3.7008,-1.2576,-18.7348,-0.0469,0.0164,0.1508,75
4.298,82,3.704,-1.254,-18.7786,-0.0478,0.035,0.1276,75
4.35,83,3.673,-1.2673,-18.8308,-0.041,0.0394,0.0986,75
4.401,84,3.6394,-1.2982,-18.8808,-0.0293,0.0307,0.0697,75
4.453,85,3.5837,-1.2955,-18.9162,-0.0118,0.0159,0.0378,75
4.505,86,3.556,-1.2965,-18.895,-0.0212,-0.0107,0.0144,75
4.557,87,3.4758,-1.4368,-18.9804,-0.0318,-0.0062,0.0112,75
4.608,88,3.4537,-1.4402,-18.9821,-0.0399,-0.0037,0.0157,75
4.66,89,3.4603,-1.434,-18.9819,-0.0442,-0.0021,0.0293,75
4.712,90,3.4683,-1.4255,-18.959,-0.0422,-0.0083,0.0372,75
4.764,91,3.4812,-1.3796,-18.886,-0.0369,-0.0131,0.0471,75
4.816,92,3.5034,-1.3344,-18.8513,-0.0376,-0.0047,0.0507,75
4.867,93,3.5228,-1.3092,-18.8333,-0.0229,0.0032,0.0455,75
4.919,94,3.498,-1.3357,-18.7997,-0.0323,-0.0002,0.0426,75
4.971,95,3.513,-1.3851,-18.843,-0.0167,0.0068,0.0395,75
5.023,96,3.5637,-1.336,-18.8917,0.0026,0.0113,0.0488,75
5.075,97,3.5853,-1.2616,-18.9165,-0.0065,0.0056,0.0656,75
5.126,98,3.5557,-1.1912,-18.8865,-0.0057,-0.0037,0.0672,75
5.178,99,3.491,-1.1803,-18.8824,0.0099,-0.01,0.0444,75
5.23,100,3.4783,-1.1668,-18.8763,0.0108,-0.025,0.0151,75
5.282,101,3.4933,-1.1665,-18.8685,0.022,-0.0436,-0.0111,75
5.333,102,3.5445,-1.2022,-18.8621,0.0298,-0.0566,-0.0336,75
5.385,103,3.5862,-1.2359,-18.8683,0.0372,-0.0572,-0.0463,75
5.437,104,3.5423,-1.1861,-18.8324,0.0376,-0.0592,-0.052,75
5.489,105,3.511,-1.1878,-18.8083,0.0457,-0.0558,-0.0528,75
5.541,106,3.5127,-1.2407,-18.8068,0.0322,-0.0463,-0.0551,75
5.592,107,3.5216,-1.2358,-18.8282,0.0412,-0.0282,-0.0588,75
5.644,108,3.5103,-1.2556,-18.8773,0.03,-0.0095,-0.0596,75
5.696,109,3.4414,-1.2646,-18.8353,0.0578,-0.0045,-0.0712,75
5.747,110,3.3791,-1.3124,-18.8148,0.0774,0.0024,-0.0901,75
5.799,111,3.3809,-1.3482,-18.8874,0.0922,0.0151,-0.1046,75
5.852,112,3.4061,-1.339,-18.937,0.0896,0.0182,-0.0927,75
5.903,113,3.4262,-1.4155,-18.9881,0.0718,0.0166,-0.0608,75
5.955,114,3.3898,-1.3461,-18.9564,0.0926,0.0158,-0.0345,75
6.007,115,3.4038,-1.3565,-18.8621,0.0789,0.0036,-0.0242,75
6.059,116,3.3846,-1.5092,-18.8707,0.0782,-0.001,-0.0287,75
6.11,117,3.3386,-1.5573,-18.8717,0.0881,-0.0225,-0.0437,75
6.162,118,3.3139,-1.56,-18.8136,0.0981,-0.0351,-0.0463,75
6.214,119,3.4095,-1.5979,-18.7328,0.1004,-0.0273,-0.0264,75
6.266,120,3.498,-1.7148,-18.7575,0.0766,-0.0076,0.01,75
6.318,121,3.5267,-1.7386,-18.7475,0.0675,0.0073,0.0462,75
6.369,122,3.4905,-1.7246,-18.7564,0.0565,0.0296,0.0752,75
6.421,123,3.4867,-1.6906,-18.7966,0.0289,0.0502,0.1007,75
6.473,124,3.4446,-1.7036,-18.8493,0.0139,0.0592,0.114,75
6.524,125,3.3819,-1.7647,-18.9032,-0.0075,0.0492,0.112,75
6.576,126,3.4496,-1.8929,-18.9347,0.0078,0.027,0.105,75
6.628,127,3.5156,-1.9295,-18.9149,0.0363,0.0032,0.1229,75
6.68,128,3.4918,-1.967,-18.8235,0.0083,-0.0161,0.1597,75
6.732,129,3.4679,-1.9533,-18.7637,0.0,-0.0148,0.1869,75
6.783,130,3.4571,-1.8711,-18.742,-0.0183,-0.0054,0.1856,75
6.835,131,3.466,-1.8158,-18.7468,-0.017,0.0046,0.1643,75
6.887,132,3.4977,-1.8797,-18.7839,0.0041,-0.0044,0.1261,75
6.939,133,3.5172,-1.9601,-18.781,0.0111,-0.0271,0.0935,75
6.99,134,3.5103,-2.02,-18.7415,0.0225,-0.0322,0.0888,75
7.042,135,3.4733,-1.9439,-18.6998,0.0121,-0.0183,0.0887,75
7.094,136,3.4014,-1.8846,-18.7162,-0.0244,-0.0114,0.0762,75
7.146,137,3.3299,-1.8607,-18.7638,-0.0644,-0.0084,0.0508,75
7.198,138,3.2844,-1.8404,-18.8305,-0.0559,-0.0094,-0.0034,75
7.25,139,3.2526,-1.7328,-18.8302,-0.0387,-0.0107,-0.0546,75
7.301,140,3.1535,-1.9007,-19.0384,-0.0361,-0.0052,-0.0822,75
7.353,141,3.1607,-1.7475,-19.0175,-0.0219,-0.016,-0.0843,75
7.405,142,3.1752,-1.7781,-18.9526,-0.0175,-0.0269,-0.0849,75
7.457,143,3.1694,-1.7547,-18.8857,-0.0235,-0.0226,-0.0768,75
7.508,144,3.1846,-1.8579,-18.9006,-0.1042,-0.0181,-0.0504,75
7.56,145,3.2198,-1.87,-18.907,-0.0592,-0.0151,-0.0275,75
7.612,146,3.2309,-1.8701,-18.9012,-0.0665,-0.0245,0.0045,75
7.664,147,3.2046,-1.7936,-18.861,-0.0421,-0.0305,0.0256,75
7.716,148,3.174,-1.7587,-18.8056,-0.03,-0.0188,0.0446,75
7.767,149,3.2007,-1.7179,-18.8374,-0.0328,0.0095,0.0651,75
7.819,150,3.2364,-1.6743,-18.9521,-0.0302,0.0363,0.0949,75
7.871,151,3.2553,-1.6245,-19.0335,-0.0507,0.0331,0.1246,75
7.923,152,3.2316,-1.5496,-19.0107,-0.0352,0.0142,0.1323,75
7.974,153,3.2029,-1.5329,-18.9811,-0.0336,-0.0021,0.1104,75
8.026,154,3.1717,-1.5266,-18.9383,-0.0302,-0.0157,0.0695,75
8.078,155,3.1792,-1.5202,-18.9168,-0.068,-0.0255,0.0233,75
8.13,156,3.1837,-1.6223,-18.9512,-0.039,-0.0312,-0.0177,75
8.182,157,3.1945,-1.6508,-18.9413,-0.0226,-0.0453,-0.0563,75
8.233,158,3.208,-1.6586,-18.8895,0.0123,-0.055,-0.0819,75
8.285,159,3.206,-1.6584,-18.8469,0.0072,-0.0469,-0.0695,75
8.337,160,3.1993,-1.6772,-18.8871,-0.0187,-0.0284,-0.038,75
8.389,161,3.1536,-1.6827,-18.8992,0.0008,-0.0116,-0.0083,75
8.441,162,3.0566,-1.593,-18.9083,-0.0237,0.0033,0.0259,75
8.492,163,2.9644,-1.6375,-18.9749,0.0001,0.0227,0.0364,75
8.544,164,2.9569,-1.6164,-19.0547,-0.003,0.0204,0.0319,75
8.596,165,2.9843,-1.6254,-19.1215,0.0217,-0.0008,0.0273,75
8.648,166,2.9931,-1.6332,-19.1147,0.007,-0.0394,0.0309,75
8.7,167,3.0189,-1.6457,-19.0707,0.024,-0.0659,0.0241,75
8.751,168,3.0286,-1.5902,-18.9716,0.0194,-0.0753,0.0187,75
8.803,169,3.027,-1.6822,-18.9317,0.0329,-0.0562,0.0145,75
8.855,170,3.0427,-1.7041,-18.9248,0.0136,-0.0356,0.0155,75
8.907,171,3.0484,-1.686,-18.9032,0.0127,-0.0036,0.0321,75
8.958,172,3.0224,-1.7639,-18.9461,-0.0585,0.0204,0.0616,75
9.01,173,3.004,-1.8408,-19.0109,-0.0139,0.0329,0.0692,75
9.062,174,2.996,-1.7538,-19.0495,-0.0128,0.0266,0.0756,75
9.114,175,2.9572,-1.6609,-19.0495,0.0052,0.0219,0.0753,75
9.166,176,2.93,-1.5954,-19.0551,-0.0032,0.0248,0.0673,75
9.217,177,2.9175,-1.5487,-19.0837,0.0105,0.0248,0.049,75
9.269,178,2.9603,-1.5367,-19.1102,0.0044,0.0027,0.0244,75
9.321,179,2.9984,-1.5903,-19.098,-0.0042,-0.0224,0.0068,75
9.372,180,3.0063,-1.6209,-19.0235,0.0107,-0.0343,-0.0067,75
9.424,181,2.9785,-1.7009,-18.9643,-0.0067,-0.0315,-0.0056,75
9.476,182,2.9465,-1.7845,-18.939,0.0069,-0.022,-0.0053,75
9.528,183,2.945,-1.8796,-18.8612,0.0078,-0.0108,-0.0002,75
9.58,184,2.9231,-1.9164,-18.8554,0.0216,-0.0029,0.0106,75
9.632,185,2.8919,-1.9389,-18.8845,0.0495,0.0034,0.0204,75
9.683,186,2.9011,-1.9134,-18.9399,0.0618,0.0078,0.0401,75
9.735,187,2.8967,-1.8132,-18.823,0.0694,0.0252,0.0632,75
9.787,188,2.908,-1.8015,-18.6915,0.0771,0.0777,0.0756,75
9.839,189,2.966,-1.6367,-18.1347,0.1371,0.2033,0.0456,75
9.89,190,3.0412,-1.1448,-17.3063,0.1985,0.4847,-0.0409,75
9.942,191,3.4328,-1.0102,-17.1693,0.0978,0.9068,-0.1938,75
9.994,192,4.1043,-0.942,-17.3222,-0.2698,1.2819,-0.3648,75
10.046,193,4.733,-1.101,-17.8613,-0.1451,1.5123,-0.5403,75
10.098,194,5.2259,-1.2072,-17.5918,0.1716,1.6466,-0.6945,75
10.149,195,6.1675,-1.04,-17.3519,0.3359,1.8075,-0.7412,75
10.201,196,6.9139,0.7028,-14.5724,0.2849,1.7146,-0.4921,75
10.253,197,7.8424,1.2376,-14.1752,0.2577,1.7179,-0.3108,75
10.305,198,8.1532,0.7107,-13.7935,0.1402,1.5934,-0.2443,75
10.357,199,8.1618,0.2238,-13.4015,0.1295,1.3781,-0.1792,75
10.408,200,8.5811,0.0044,-13.1521,0.121,1.203,-0.1296,75
