right_leg_timestamp,right_leg_index,right_leg_accel_x,right_leg_accel_y,right_leg_accel_z,right_leg_gyro_x,right_leg_gyro_y,right_leg_gyro_z,right_leg_battery_percentage,left_leg_timestamp,left_leg_index,left_leg_accel_x,left_leg_accel_y,left_leg_accel_z,left_leg_gyro_x,left_leg_gyro_y,left_leg_gyro_z,left_leg_battery_percentage
0.05,0,4.8971,0.0324,-18.1446,-0.1019,-0.5093,-0.0271,92,0.958,18,8.8695,-0.9989,-11.1963,0.1477,0.0971,0.0251,62
0.102,1,4.704,-0.1143,-18.2344,-0.075,-0.4467,-0.0454,92,1.009,19,8.8734,-0.7773,-10.9939,0.0372,0.0757,0.0319,62
0.154,2,4.482,-0.0417,-18.359,-0.0623,-0.388,-0.0695,92,1.061,20,8.9038,-0.7658,-11.0114,-0.0738,0.0281,0.0291,62
0.205,3,4.4183,0.0012,-18.435,-0.0189,-0.3407,-0.1144,92,1.113,21,8.9238,-0.6762,-11.0345,-0.148,-0.0054,0.0227,62
0.257,4,4.4169,-0.0143,-18.5042,-0.0364,-0.276,-0.1564,92,1.165,22,8.9144,-0.6851,-11.0771,-0.1582,-0.0201,0.0164,62
0.309,5,4.3199,-0.1035,-18.4697,-0.0636,-0.1961,-0.1817,92,1.217,23,8.9517,-0.6894,-11.1006,-0.1742,-0.0285,0.0099,62
0.361,6,4.1898,-0.0245,-18.5317,-0.0106,-0.1335,-0.1831,92,1.268,24,8.9182,-0.6959,-11.1017,-0.163,-0.0231,0.0035,62
0.413,7,4.0576,0.1893,-18.6349,0.0298,-0.1064,-0.1747,92,1.32,25,8.9489,-0.8148,-11.1234,-0.1366,-0.0392,-0.0151,62
0.464,8,3.984,0.2932,-18.7589,0.0448,-0.0904,-0.1643,92,1.372,26,8.9376,-0.5581,-11.1133,-0.0449,-0.0118,-0.0263,62
0.516,9,3.9758,0.2868,-18.9146,0.0128,-0.0758,-0.1692,92,1.424,27,8.9449,-0.6474,-11.0886,-0.0499,-0.0138,-0.0234,62
0.568,10,3.9351,0.2368,-18.976,0.0257,-0.0937,-0.1697,92,1.475,28,8.9237,-0.6506,-11.1118,-0.0114,-0.001,-0.0234,62
0.62,11,3.8695,0.1952,-18.9305,0.0246,-0.1221,-0.1646,92,1.527,29,8.8927,-0.5604,-11.0941,0.1694,0.0271,-0.0294,62
0.672,12,3.8234,0.1052,-18.9333,0.0555,-0.1336,-0.1395,92,1.579,30,8.9197,-0.2022,-11.0652,0.2049,0.0348,-0.0341,62
0.723,13,3.8093,0.0906,-18.9366,0.0675,-0.1363,-0.0982,92,1.631,31,9.063,-0.311,-11.1047,0.1286,0.0103,-0.0203,62
0.775,14,3.7045,0.15,-18.8402,0.0832,-0.1317,-0.0576,92,1.683,32,9.0277,-0.2856,-11.1093,0.0087,0.0293,-0.0036,62
0.827,15,3.4512,0.0852,-18.6571,0.1597,-0.1008,-0.0354,92,1.734,33,8.9458,-0.607,-11.0178,-0.0096,0.0313,-0.0032,62
0.879,16,3.3035,0.2796,-18.7958,0.2245,-0.0575,-0.024,92,1.786,34,8.8384,-0.9321,-11.0268,0.1448,0.0478,0.0034,62
0.93,17,3.4182,0.2776,-18.9464,0.1786,-0.0158,-0.0124,92,1.838,35,8.8623,-0.507,-10.9521,0.1116,0.0703,0.0067,62
0.982,18,3.5818,0.1377,-19.0764,0.1486,-0.0181,-0.0071,92,1.89,36,8.8139,-0.7461,-10.8607,0.0099,0.0405,0.0168,62
1.034,19,3.6805,0.1119,-19.1301,0.0451,-0.0513,-0.0139,92,1.941,37,8.8957,-0.6527,-10.9754,-0.1141,-0.0307,0.0056,62
1.086,20,3.7785,0.0628,-19.0891,0.0341,-0.0882,-0.0114,92,1.993,38,8.8571,-0.661,-11.0395,-0.144,-0.0438,0.001,62
1.137,21,3.8671,-0.0157,-19.0618,0.0177,-0.1026,-0.0247,92,2.045,39,8.8846,-1.0439,-11.0274,-0.1099,-0.0362,0.0021,62
1.189,22,3.906,-0.1151,-19.004,-0.0163,-0.0988,-0.0224,92,2.097,40,8.9759,-0.5827,-11.0245,0.0178,-0.0071,-0.0022,62
1.241,23,3.813,-0.1829,-18.8849,-0.0301,-0.0887,-0.0251,92,2.149,41,8.9318,-0.6778,-11.0567,-0.0094,-0.0201,0.0019,62
1.293,24,3.6791,-0.1984,-18.8331,0.0283,-0.039,-0.0381,92,2.201,42,8.9406,-0.7616,-11.0919,-0.0343,-0.0029,-0.0,62
1.345,25,3.6652,-0.2147,-18.8652,0.0556,0.0314,-0.0437,92,2.252,43,8.9395,-0.6356,-11.0318,-0.0331,0.0202,0.0027,62
1.396,26,3.63,-0.2707,-18.8956,0.1036,0.092,-0.0242,92,2.304,44,8.9244,-0.7044,-11.0532,-0.0315,0.0198,0.0032,62
1.448,27,3.637,-0.2803,-18.9556,0.1303,0.1279,-0.0192,92,2.356,45,8.9335,-0.7134,-11.0344,-0.0058,0.0344,0.002,62
1.5,28,3.6264,-0.2276,-18.9818,0.1363,0.13,-0.011,92,2.408,46,8.9655,-0.55,-10.9138,0.0494,0.0467,0.005,62
1.552,29,3.646,-0.1706,-18.9639,0.1221,0.1138,0.0029,92,2.459,47,8.9835,-0.5377,-10.9348,0.0232,0.0179,0.005,62
1.603,30,3.6775,-0.1871,-18.9591,0.0986,0.1099,0.0159,92,2.511,48,8.9951,-0.5396,-10.9648,0.0259,0.0322,0.0087,62
1.655,31,3.7252,-0.2275,-18.9858,0.0678,0.0991,0.0275,92,2.563,49,8.9368,-0.5388,-10.9023,0.0113,0.0373,0.009,62
1.707,32,3.8027,-0.2474,-18.9986,0.0338,0.0718,0.0331,92,2.615,50,8.9309,-0.5355,-10.9231,-0.0014,0.0169,0.0023,62
1.759,33,3.8025,-0.287,-18.9515,0.0041,0.0403,0.0419,92,2.667,51,8.926,-0.6051,-10.9207,-0.0175,0.0048,-0.0022,62
1.811,34,3.8202,-0.2789,-18.8991,-0.009,0.0184,0.0494,92,2.718,52,8.9198,-0.5695,-10.8858,0.0027,0.0052,-0.0034,62
1.863,35,3.8392,-0.304,-18.8395,-0.0282,0.0068,0.0513,92,2.77,53,8.9288,-0.6591,-10.9508,0.0161,0.001,-0.0078,62
1.914,36,3.8677,-0.3225,-18.7835,-0.0301,0.0128,0.0497,92,2.822,54,8.9662,-0.6644,-10.9543,0.0709,0.0166,-0.0041,62
1.966,37,3.9412,-0.3068,-18.8096,-0.0118,0.0293,0.0427,92,2.874,55,8.9257,-0.6191,-10.8598,0.0367,0.0187,0.0,62
2.018,38,4.0174,-0.3003,-18.8741,-0.0144,0.0293,0.0329,92,2.925,56,8.9312,-0.6764,-10.9081,0.0304,0.0015,-0.0033,62
2.07,39,4.0227,-0.28,-18.8273,-0.0099,0.0079,0.001,92,2.977,57,8.9369,-0.6488,-10.9134,0.0442,0.0026,-0.0034,62
2.121,40,3.9947,-0.299,-18.7163,0.0143,0.0039,-0.0343,92,3.029,58,9.0044,-0.4048,-10.8742,-0.0148,-0.0058,-0.0047,62
2.173,41,3.9164,-0.276,-18.6869,0.0204,0.0368,-0.0596,92,3.081,59,8.9779,-0.3028,-10.9913,-0.1212,-0.041,-0.0153,62
2.225,42,3.9106,-0.2828,-18.7212,0.0212,0.0626,-0.0659,92,3.133,60,8.9342,-0.483,-11.0717,-0.2329,-0.0302,-0.0224,62
2.277,43,3.9743,-0.2626,-18.8222,0.0065,0.0589,-0.0667,92,3.184,61,8.8475,-1.0383,-11.0498,-0.0294,0.025,-0.0161,62
2.329,44,3.9857,-0.2467,-18.8807,0.0027,0.0366,-0.0614,92,3.236,62,9.0842,0.0345,-11.2918,0.4903,0.1027,-0.0103,62
2.38,45,3.9801,-0.3219,-18.8361,-0.0039,0.0171,-0.0534,92,3.288,63,9.1855,-0.7449,-11.1936,0.2079,0.0586,0.0151,62
2.432,46,4.0313,-0.3176,-18.7811,-0.0095,0.0128,-0.05,92,3.339,64,9.1226,-0.828,-11.0729,0.0148,0.0367,0.0089,62
2.484,47,4.0412,-0.2864,-18.7953,-0.006,0.0221,-0.0462,92,3.391,65,9.0301,-0.6967,-10.9526,0.0576,0.0329,-0.0002,62
2.536,48,4.0821,-0.2901,-18.7749,-0.0172,0.0285,-0.0419,92,3.443,66,8.9537,-0.7567,-10.9307,0.1559,0.0248,0.0008,62
2.587,49,4.1148,-0.2794,-18.7355,-0.042,0.0281,-0.0282,92,3.495,67,8.9439,-0.7143,-10.9238,0.1099,0.0185,0.0015,62
2.639,50,4.1443,-0.2415,-18.7177,-0.0492,0.0125,-0.0037,92,3.547,68,8.9307,-0.7596,-10.9641,0.1683,0.0371,-0.0019,62
2.691,51,4.0959,-0.1961,-18.6761,-0.0634,-0.0034,0.0082,92,3.598,69,8.9259,-0.5557,-10.8567,0.2182,0.0607,0.0043,62
2.743,52,4.0691,-0.0577,-18.6862,-0.0427,0.0147,-0.0087,92,3.651,70,8.9317,-0.527,-10.75,0.0467,0.0339,0.0169,62
2.795,53,4.1134,0.0095,-18.7801,-0.042,0.0321,-0.0004,92,3.702,71,8.9864,-0.7836,-10.8718,-0.0002,0.0028,0.0059,62
2.846,54,4.1288,-0.0683,-18.7831,-0.0877,0.0181,0.0228,92,3.754,72,8.9952,-0.6978,-10.8325,0.0451,0.0595,0.0096,62
2.898,55,4.0815,-0.0196,-18.709,-0.0758,-0.0052,0.0309,92,3.806,73,8.9701,-0.7426,-10.6269,0.0824,0.071,0.0173,62
2.95,56,4.077,0.0163,-18.6649,-0.0557,0.0003,0.0262,92,3.857,74,8.973,-0.7899,-10.6044,0.0263,-0.002,0.0111,62
3.002,57,4.1222,0.0404,-18.7156,-0.0511,0.0265,0.0256,92,3.909,75,9.0167,-0.8445,-10.7524,-0.0037,-0.0475,0.0063,62
3.054,58,4.1118,0.0606,-18.7727,-0.0454,0.0301,0.0247,92,3.961,76,9.0346,-0.6951,-10.7919,0.0159,-0.0447,0.002,62
3.106,59,4.1003,0.0574,-18.8039,-0.0366,0.0154,0.0233,92,4.013,77,9.0113,-0.7028,-10.8337,-0.0418,-0.0483,0.0021,62
3.157,60,4.1539,0.0595,-18.7731,-0.0329,-0.0052,0.0292,92,4.065,78,9.0184,-0.7788,-10.902,-0.036,-0.0297,-0.0026,62
3.209,61,4.1866,0.0768,-18.7416,-0.0322,-0.0197,0.0245,92,4.116,79,8.9631,-0.7223,-10.8222,-0.0006,0.001,0.0007,62
3.261,62,4.1424,0.1044,-18.6983,-0.0345,-0.0236,0.0274,92,4.168,80,8.9594,-0.785,-10.8275,-0.0202,-0.0066,-0.001,62
3.313,63,4.1367,0.0512,-18.6543,-0.0509,-0.0175,0.038,92,4.22,81,8.9497,-0.7278,-10.8474,-0.0185,-0.0,-0.0018,62
3.364,64,4.18,-0.0435,-18.6717,-0.0265,0.0038,0.0308,92,4.272,82,8.9461,-0.6953,-10.8139,0.0127,0.008,-0.0029,62
3.416,65,4.1932,-0.0829,-18.7489,0.0156,0.0249,0.0069,92,4.323,83,8.9591,-0.6714,-10.8098,0.0301,-0.0013,-0.0042,62
3.468,66,4.1886,-0.0534,-18.8141,0.0331,0.0252,-0.0007,92,4.375,84,8.9863,-0.6559,-10.8538,0.0159,-0.0044,-0.0036,62
3.52,67,4.1332,-0.0331,-18.8181,0.0278,0.0047,0.0084,92,4.427,85,8.9794,-0.6738,-10.8596,0.0003,-0.005,-0.0026,62
3.572,68,4.0746,-0.0155,-18.7541,0.0175,-0.0137,0.024,92,4.479,86,8.9613,-0.7304,-10.8272,0.0066,-0.0073,-0.0135,62
3.623,69,4.0544,0.0005,-18.675,0.0072,-0.0131,0.0386,92,4.531,87,8.9069,-0.8302,-10.8187,0.0666,-0.0093,-0.0153,62
3.675,70,4.0891,0.0347,-18.6535,-0.007,0.0092,0.0461,92,4.582,88,8.9197,-0.5004,-10.8227,0.0688,-0.0189,-0.0139,62
3.727,71,4.1217,0.0349,-18.6787,-0.0114,0.0262,0.0484,92,4.634,89,8.925,-0.5675,-10.8745,-0.0124,-0.0141,-0.0025,62
3.779,72,4.1689,0.0202,-18.7089,-0.0135,0.0264,0.0455,92,4.686,90,8.9221,-0.6825,-10.8686,-0.0588,-0.0037,0.0017,62
3.83,73,4.2046,0.0365,-18.7441,-0.0121,0.0208,0.0399,92,4.738,91,8.8929,-0.6772,-10.8227,-0.0229,0.0102,0.0003,62
3.882,74,4.2183,0.0564,-18.718,-0.0182,0.0176,0.0321,92,4.789,92,8.931,-0.5569,-10.8167,0.0472,0.0105,-0.0002,62
3.934,75,4.2108,0.0286,-18.6996,-0.025,0.0202,0.0269,92,4.841,93,8.9502,-0.7527,-10.8043,0.0121,-0.0092,0.002,62
3.986,76,4.1818,0.0239,-18.6957,-0.009,0.0196,0.0166,92,4.893,94,8.9541,-0.7732,-10.805,0.0318,-0.0126,-0.0059,62
4.038,77,4.1901,0.0298,-18.6756,0.0109,0.0196,0.0015,92,4.945,95,8.9372,-0.6757,-10.8064,-0.0335,-0.0119,-0.0008,62
4.089,78,4.2591,0.0662,-18.7121,0.0052,0.0277,-0.0122,92,4.997,96,8.9032,-0.5763,-10.8281,-0.0728,-0.0114,0.005,62
4.141,79,4.2443,0.0765,-18.7666,-0.0062,0.0215,-0.0108,92,5.048,97,8.9188,-0.7517,-10.8714,-0.0625,-0.0199,0.0014,62
4.193,80,4.2581,-0.0146,-18.7013,-0.0314,0.0193,-0.0129,92,5.1,98,8.9559,-0.7096,-10.8597,0.0716,-0.0106,-0.021,62
4.245,81,4.2597,0.0521,-18.6769,-0.0449,0.0181,-0.0042,92,5.152,99,9.0366,-0.3223,-10.8658,0.0848,-0.025,-0.0233,62
4.297,82,4.3647,-0.1033,-18.5369,-0.0222,0.0434,0.0135,92,5.204,100,9.0569,-0.3949,-10.9138,0.0082,-0.0292,-0.0123,62
4.348,83,4.4893,0.1432,-18.2544,-0.0481,0.0342,0.023,92,5.256,101,9.0208,-0.6264,-10.9304,0.0436,-0.0194,-0.0236,62
4.4,84,4.4692,-0.3328,-18.5033,-0.0357,0.0312,0.0215,92,5.308,102,8.9341,-0.5973,-10.9139,0.0755,-0.0071,-0.0284,62
4.452,85,4.6147,0.1308,-18.4263,0.026,-0.0019,-0.0004,92,5.359,103,8.8796,-0.5425,-10.9051,0.1167,-0.014,-0.0357,62
4.504,86,4.5071,-0.1197,-18.9799,-0.0692,-0.0463,-0.0419,92,5.411,104,8.9045,-0.5761,-10.9423,0.2277,-0.0255,-0.041,62
4.556,87,4.2743,0.2865,-19.353,0.0345,-0.1914,-0.1069,92,5.463,105,8.9511,-0.4205,-11.0089,0.2408,-0.0327,-0.0471,62
4.607,88,3.9502,0.1687,-19.2314,-0.0364,-0.3001,-0.2013,92,5.515,106,8.966,-0.3134,-10.983,0.1878,-0.0137,-0.0368,62
4.659,89,3.6803,0.2426,-19.0998,-0.0021,-0.3566,-0.2879,92,5.566,107,8.9488,-0.3838,-10.9516,0.0961,-0.0083,-0.0207,62
4.711,90,3.544,0.1602,-18.6048,-0.1015,-0.3534,-0.34,92,5.618,108,8.9855,-0.297,-11.0023,-0.0068,0.0099,-0.0167,62
4.763,91,3.3168,0.223,-18.5866,-0.0856,-0.29,-0.3289,92,5.67,109,8.9283,-0.5808,-10.9242,-0.0146,0.0196,-0.0168,62
4.815,92,3.2725,0.2546,-18.5573,-0.1287,-0.1554,-0.3198,92,5.722,110,8.9925,-0.5566,-10.9628,0.0563,-0.0042,-0.0369,62
4.866,93,3.4145,0.2694,-18.5453,-0.0422,0.0342,-0.2877,92,5.774,111,9.004,-0.4635,-11.0334,0.0727,-0.0037,-0.0322,62
4.918,94,3.5875,0.4524,-18.7478,-0.0357,0.1282,-0.2339,92,5.825,112,8.9278,-0.3358,-10.9622,0.0868,0.0253,-0.0189,62
4.97,95,3.6515,0.5986,-18.9027,-0.1409,0.1363,-0.194,92,5.877,113,8.9632,-0.4043,-10.9514,-0.1435,-0.0259,-0.0094,62
5.021,96,3.6722,0.5831,-19.0548,-0.0728,0.1385,-0.1811,92,5.929,114,8.9716,-0.6389,-10.9264,-0.3168,-0.0589,-0.0018,62
5.073,97,3.6977,0.5662,-18.8432,0.1052,0.0342,-0.1898,92,5.981,115,8.9649,-0.5378,-11.0022,-0.1821,-0.0206,-0.0133,62
5.125,98,3.7783,0.8967,-19.4576,0.0833,-0.0351,-0.1601,92,6.032,116,8.946,-0.7028,-11.0404,0.0092,0.0214,-0.0128,62
5.177,99,3.6764,1.0021,-19.8286,0.0217,-0.2491,-0.1303,92,6.084,117,8.9861,-0.6276,-11.0217,0.1968,0.0665,-0.0144,62
5.229,100,3.4436,1.0327,-19.9147,-0.0215,-0.4738,-0.1381,92,6.136,118,8.9536,-0.6158,-10.8895,0.2458,0.0857,-0.0037,62
5.281,101,3.1486,1.0296,-19.7742,-0.0521,-0.6561,-0.1565,92,6.188,119,8.9632,-0.5623,-10.8593,0.27,0.05,-0.0095,62
5.332,102,2.7342,0.9926,-19.5786,-0.0314,-0.7878,-0.1814,92,6.24,120,8.9327,-0.4187,-10.8703,0.2103,0.0509,0.004,62
5.384,103,2.3502,0.9907,-19.3899,-0.0359,-0.8738,-0.1956,92,6.291,121,8.9216,-0.3449,-10.769,0.0706,0.036,0.0021,62
5.436,104,1.9441,0.9904,-19.104,-0.0295,-0.8664,-0.1847,92,6.343,122,9.0589,-0.907,-10.9407,-0.0353,0.0273,-0.0128,62
5.488,105,1.5348,0.885,-18.9219,-0.0492,-0.7355,-0.1554,92,6.395,123,9.0678,-0.716,-10.9053,-0.081,0.0578,-0.0208,62
5.539,106,1.3187,1.0901,-18.2012,-0.0052,-0.4071,-0.0834,92,6.446,124,9.0545,-0.7532,-10.7525,-0.0706,0.0688,-0.0325,62
