right_leg_timestamp,right_leg_index,right_leg_accel_x,right_leg_accel_y,right_leg_accel_z,right_leg_gyro_x,right_leg_gyro_y,right_leg_gyro_z,right_leg_battery_percentage
0.359,6,9.5048,-0.9379,-10.4763,-0.0285,-0.0116,0.2933,75
0.411,7,9.5671,-0.9007,-10.5315,-0.0141,-0.0539,0.1958,75
0.462,8,9.5026,-1.0783,-10.6503,0.0364,-0.0812,0.1423,75
0.514,9,9.6901,-0.784,-10.6911,0.0664,-0.0639,0.1058,75
0.566,10,9.6348,-0.9405,-10.7462,0.02,-0.0257,0.0798,75
0.618,11,9.5983,-0.921,-10.6637,-0.061,-0.019,0.0328,75
0.669,12,9.5343,-0.9478,-10.6296,-0.1558,-0.0735,-0.0273,75
0.721,13,9.487,-0.9488,-10.7801,-0.185,-0.1726,-0.1076,75
0.773,14,9.5833,-1.1045,-10.4446,-0.2375,-0.334,-0.189,75
0.825,15,9.6572,-0.4992,-10.9993,-0.1815,-0.3907,-0.2322,75
0.877,16,9.5652,-0.5737,-11.3664,-0.2386,-0.3575,-0.226,75
0.928,17,9.5126,-0.4471,-11.6068,-0.1827,-0.2698,-0.2152,75
0.98,18,9.4204,-0.3143,-11.7074,-0.1152,-0.1906,-0.2071,75
1.032,19,9.4554,-0.2335,-11.7398,-0.0575,-0.1722,-0.2128,75
1.083,20,9.3429,0.0179,-11.7512,-0.0131,-0.1908,-0.2114,75
1.135,21,9.5315,0.0823,-11.9334,0.0143,-0.2717,-0.2364,75
1.187,22,9.5373,0.031,-11.8094,0.18,-0.3361,-0.2654,75
1.239,23,9.106,0.2467,-10.392,0.3347,-0.0455,-0.2059,75
1.291,24,9.9538,-0.5256,-8.0088,0.1686,-0.2324,-0.1583,75
1.343,25,10.2597,-0.9484,-9.2591,0.0591,-0.1632,-0.058,75
1.394,26,10.3401,-0.7802,-9.9746,-0.0672,-0.1236,-0.0358,75
1.446,27,10.0896,-0.4811,-10.5509,-0.0443,-0.118,-0.0484,75
1.498,28,9.9984,-0.3462,-11.101,0.0544,-0.1881,-0.1009,75
1.55,29,9.8697,0.0253,-11.5007,0.0939,-0.1837,-0.1287,75
1.602,30,9.5457,0.2026,-11.8529,0.1676,-0.2101,-0.1392,75
1.654,31,9.3966,0.2583,-12.2149,0.145,-0.2101,-0.1283,75
1.705,32,9.3483,-0.0567,-11.5629,0.2104,-0.0066,-0.0515,75
1.757,33,9.5883,-0.1789,-11.5151,0.3153,0.2526,0.0645,75
1.809,34,9.5435,-0.0529,-11.6051,0.3883,0.3674,0.1695,75
1.86,35,9.3789,0.0414,-11.903,0.3157,0.3602,0.2213,75
1.912,36,9.0397,0.7881,-12.1271,0.2273,0.227,0.1575,75
1.964,37,9.1762,0.4513,-12.3644,0.3143,0.0698,0.1699,75
2.016,38,9.32,0.151,-12.5049,0.3565,0.0065,0.1643,75
2.068,39,9.5929,0.4206,-12.2031,0.2075,0.0399,0.23,75
2.119,40,9.5331,-0.1368,-12.0219,0.1262,0.0471,0.2674,75
2.171,41,9.5162,-0.7008,-11.8157,0.0674,0.0294,0.2463,75
2.223,42,9.4703,-0.8485,-11.7978,0.1837,0.0274,0.1489,75
2.275,43,9.4383,-0.7889,-11.751,0.2404,0.0358,0.0868,75
2.327,44,9.346,-1.3579,-11.6673,0.4152,0.0143,0.0316,75
2.378,45,9.324,-0.8656,-11.5526,0.7046,-0.0583,-0.0515,75
2.43,46,9.3799,-0.6658,-11.729,0.7067,-0.1223,-0.0499,75
2.482,47,9.5291,-0.333,-11.7234,0.5855,-0.1108,-0.0115,75
2.534,48,9.5861,0.1678,-11.7884,0.1776,-0.036,0.1021,75
2.586,49,9.262,-0.993,-11.9999,0.0022,0.0302,0.1294,75
2.637,50,9.2076,-1.3416,-11.8208,0.0702,0.0378,0.0612,75
2.689,51,9.2584,-1.1012,-11.7526,0.2958,-0.0015,0.0127,75
2.741,52,9.3488,-0.7911,-11.7828,0.1759,0.0107,0.0311,75
2.793,53,9.4047,-0.5694,-11.7658,-0.0318,0.0199,0.0727,75
2.844,54,9.2726,-1.3753,-11.8372,-0.1387,0.0408,0.0851,75
2.896,55,9.2692,-1.5063,-11.6443,0.0922,0.0289,0.0269,75
2.948,56,9.4357,-1.0621,-11.518,0.1015,0.0169,0.0231,75
3.0,57,9.3802,-1.2737,-11.5477,0.0974,0.0188,0.0399,75
3.052,58,9.4631,-0.9261,-11.4796,0.0647,0.0176,0.0531,75
3.103,59,9.4672,-1.137,-11.6004,-0.2336,0.0086,0.1025,75
3.155,60,9.3832,-1.4426,-11.6622,-0.2526,0.012,0.0967,75
3.207,61,9.4192,-1.5518,-11.5729,-0.2025,-0.0148,0.0762,75
3.259,62,9.4542,-1.1492,-11.7278,-0.159,-0.0125,0.0677,75
3.311,63,9.4753,-1.3172,-11.7151,-0.2461,0.0157,0.0875,75
3.362,64,9.4191,-1.5733,-11.6683,-0.2029,0.0403,0.0549,75
3.414,65,9.2879,-1.8916,-11.7612,0.1456,0.0408,-0.0224,75
3.466,66,9.5459,-0.9067,-11.4308,0.2452,-0.0001,-0.0419,75
3.518,67,9.4721,-1.2982,-11.5204,0.28,-0.0464,-0.0725,75
3.57,68,9.5153,-1.1443,-11.5563,0.4267,-0.0951,-0.1037,75
3.621,69,9.5654,-1.0762,-11.5836,0.3091,-0.0786,-0.0563,75
3.673,70,9.4987,-1.3003,-11.6008,0.2216,-0.0446,-0.0111,75
3.725,71,9.4301,-1.3645,-11.573,0.2151,-0.0402,-0.0133,75
3.777,72,9.4909,-1.062,-11.6267,0.101,-0.0289,0.0068,75
3.829,73,9.5033,-0.9475,-11.6861,-0.0622,0.0094,0.0564,75
3.88,74,9.3722,-1.3609,-11.6405,-0.0527,0.0101,0.0572,75
3.932,75,9.4168,-1.1434,-11.6236,-0.0287,-0.0237,0.0325,75
3.984,76,9.4242,-1.1349,-11.7897,-0.1996,-0.0108,0.0644,75
4.036,77,9.3804,-1.4322,-11.8406,-0.2713,0.0004,0.0778,75
4.087,78,9.2812,-1.6262,-11.8472,-0.1649,0.0218,0.0343,75
4.139,79,9.4694,-1.0982,-11.7113,-0.0508,0.0008,0.0202,75
4.191,80,9.4514,-1.0786,-11.7619,-0.2631,0.0123,0.0649,75
4.243,81,9.4984,-1.0427,-11.7182,-0.3502,0.0018,0.0982,75
4.295,82,9.4428,-1.2972,-11.7682,-0.4089,0.0122,0.1023,75
4.346,83,9.3946,-1.3799,-11.7999,-0.3931,0.0295,0.0943,75
4.398,84,9.3933,-1.372,-11.753,-0.4058,0.0449,0.0954,75
4.45,85,9.3895,-1.4483,-11.7055,-0.3909,0.043,0.0879,75
4.502,86,9.2748,-1.9095,-11.7583,-0.2888,0.0328,0.0589,75
4.554,87,9.3789,-1.6203,-11.7856,-0.2222,0.0409,0.0267,75
4.606,88,9.3199,-1.8751,-11.7707,-0.1364,0.0242,0.0151,75
4.657,89,9.473,-1.1999,-11.6688,-0.0529,0.0142,-0.0169,75
4.709,90,9.3853,-1.3882,-11.7732,-0.1187,0.0163,0.0146,75
4.761,91,9.3503,-1.5736,-11.8714,-0.0162,0.0062,-0.0151,75
4.813,92,9.4563,-1.0603,-11.7844,-0.1264,0.0326,-0.0073,75
4.865,93,9.227,-1.7224,-11.7979,-0.1157,0.0316,-0.0111,75
4.916,94,9.1022,-2.3681,-11.9193,0.1828,-0.0003,-0.071,75
4.968,95,9.7255,-0.5893,-11.3316,0.3203,-0.0249,-0.0978,75
5.02,96,9.4915,-1.197,-11.5522,0.0726,-0.0538,-0.0282,75
5.072,97,9.4024,-1.5688,-11.6931,0.1626,-0.0395,-0.066,75
5.123,98,9.6294,-0.5032,-11.763,0.4134,-0.0338,-0.116,75
5.175,99,9.3797,-1.0529,-11.8594,0.3943,-0.0092,-0.1082,75
5.227,100,9.5287,-0.7639,-11.8007,0.5068,-0.0319,-0.1073,75
5.279,101,9.453,-0.8647,-11.9388,0.1891,-0.0163,-0.0507,75
5.331,102,9.3736,-1.2896,-11.9716,0.1081,0.0072,-0.0317,75
5.382,103,9.3516,-1.4562,-11.7972,0.1473,0.0214,-0.037,75
5.434,104,9.3842,-1.3169,-11.773,0.2689,0.0228,-0.0476,75
5.486,105,9.3745,-1.3826,-11.7063,0.2094,0.0308,-0.0223,75
5.538,106,9.4337,-1.4019,-11.5722,0.2985,0.011,-0.0288,75
5.589,107,9.4365,-1.3625,-11.5527,0.1447,0.0319,-0.0113,75
5.641,108,9.3619,-1.5029,-11.5379,0.1478,0.0449,-0.0148,75
5.693,109,9.3085,-1.6575,-11.4849,0.1953,0.0234,-0.0293,75
5.745,110,9.193,-1.8144,-11.5073,0.3759,-0.0367,-0.0793,75
5.797,111,9.356,-1.6918,-11.4991,0.3357,-0.0995,-0.0811,75
5.849,112,9.49,-1.38,-11.613,0.2564,-0.1195,-0.065,75
5.9,113,9.5796,-1.0991,-11.6615,0.1537,-0.0872,-0.0354,75
5.952,114,9.5984,-1.146,-11.5585,-0.216,-0.0377,0.046,75
6.004,115,9.4282,-1.6529,-11.5468,-0.1891,-0.0095,0.0321,75
6.056,116,9.4234,-1.4272,-11.4805,-0.0433,-0.0223,0.0211,75
6.108,117,9.4518,-1.1895,-11.5747,-0.0415,-0.0185,0.0305,75
6.159,118,9.44,-1.1034,-11.6383,-0.2001,0.0068,0.0718,75
6.211,119,9.3402,-1.4292,-11.7401,-0.1619,0.0213,0.0643,75
6.263,120,9.35,-1.4556,-11.7102,-0.0563,0.0186,0.0393,75
6.315,121,9.4111,-1.0688,-11.6434,-0.0978,0.025,0.0474,75
6.366,122,9.3211,-1.5551,-11.6345,-0.2519,0.0184,0.0791,75
6.418,123,9.3706,-1.6003,-11.6316,-0.157,0.0103,0.0503,75
6.47,124,9.5031,-1.1967,-11.5733,-0.2744,0.0171,0.0717,75
6.522,125,9.424,-1.3254,-11.6628,-0.4128,-0.0088,0.0869,75
6.574,126,9.363,-1.3672,-11.8506,-0.341,-0.0222,0.0585,75
6.625,127,9.3566,-1.604,-11.7808,-0.2404,-0.0167,0.0286,75
6.677,128,9.2569,-1.9156,-11.9052,0.0374,0.0013,-0.0168,75
6.729,129,9.2856,-1.5277,-11.9167,0.232,0.0068,-0.0573,75
6.781,130,9.5681,-0.9292,-11.8152,0.0909,-0.0158,-0.0504,75
6.833,131,9.437,-1.23,-11.9602,-0.0421,0.0071,-0.0082,75
6.884,132,9.3935,-1.5047,-11.8084,0.0237,0.0325,-0.0231,75
6.936,133,9.3633,-1.2166,-11.9086,0.1956,0.0388,-0.0498,75
6.988,134,9.404,-1.3153,-11.8126,-0.0706,0.0787,0.0203,75
7.04,135,9.3751,-1.6939,-11.7281,-0.0148,0.089,0.008,75
7.092,136,9.3549,-1.7411,-11.5291,0.1243,0.0643,-0.0165,75
7.143,137,9.5438,-0.8736,-11.3941,0.1585,0.0246,-0.0201,75
7.195,138,9.4433,-1.4973,-11.4208,0.0022,0.0047,0.0114,75
7.247,139,9.454,-1.4767,-11.3804,0.1132,-0.0162,-0.0172,75
7.299,140,9.5567,-1.0186,-11.3867,0.0712,-0.0204,-0.018,75
7.351,141,9.4592,-1.2684,-11.3939,-0.0748,0.0013,0.0189,75
7.403,142,9.3824,-1.6783,-11.383,0.0104,0.0101,-0.0121,75
7.454,143,9.4108,-1.7118,-11.4061,0.1921,-0.0285,-0.0303,75
7.506,144,9.4434,-1.4716,-11.4105,0.2931,-0.0564,-0.0432,75
7.558,145,9.5405,-1.0328,-11.3733,0.1383,-0.0498,-0.0165,75
7.61,146,9.5287,-1.0685,-11.4562,-0.0475,-0.0313,0.024,75
7.661,147,9.4179,-0.9896,-11.6447,-0.2223,0.0249,0.0835,75
7.713,148,9.4305,-1.239,-11.6296,-0.305,0.0454,0.1046,75
7.765,149,9.4057,-1.4443,-11.5951,-0.3337,0.045,0.1042,75
7.817,150,9.2809,-1.7005,-11.6587,-0.2239,0.0415,0.0709,75
7.869,151,9.2962,-1.648,-11.6058,-0.2389,0.0361,0.0508,75
7.92,152,9.2639,-1.7813,-11.6919,-0.1251,0.0306,0.0039,75
7.972,153,9.2896,-1.5574,-11.7038,0.1745,0.0155,-0.037,75
8.024,154,9.3078,-1.4513,-11.7436,0.0534,0.0124,-0.0239,75
8.076,155,9.3022,-1.5705,-11.7231,0.1057,-0.0059,-0.0453,75
8.128,156,9.4044,-1.2467,-11.5202,0.211,-0.0309,-0.0562,75
8.179,157,9.427,-0.9058,-11.7284,0.2262,-0.0326,-0.0516,75
8.231,158,9.4993,-0.7229,-11.5968,0.0012,0.0077,0.0004,75
8.283,159,9.4303,-1.2137,-11.63,-0.1381,0.0163,0.0371,75
8.335,160,9.4275,-1.2685,-11.6377,-0.1041,0.0263,0.0329,75
8.387,161,9.5075,-0.9597,-11.5616,-0.1512,0.0364,0.0475,75
8.438,162,9.3475,-1.3052,-11.577,-0.1414,0.0353,0.0481,75
8.49,163,9.3947,-1.0206,-11.5887,-0.1872,0.0515,0.0576,75
8.542,164,9.3701,-1.2402,-11.6354,-0.2542,0.0495,0.0577,75
8.593,165,9.3671,-1.5809,-11.5968,-0.2132,0.0556,0.0346,75
8.645,166,9.3318,-0.9259,-11.8823,0.0645,0.0487,-0.0188,75
8.697,167,9.2896,-1.1836,-11.6747,0.0208,0.0308,-0.0252,75
8.749,168,9.1656,-1.5532,-11.7148,0.1752,-0.008,-0.0646,75
8.801,169,9.5085,-0.7753,-11.4291,0.2601,-0.0478,-0.0844,75
8.853,170,9.4988,-1.081,-11.5404,0.1856,-0.0378,-0.0565,75
8.905,171,9.5063,-1.0276,-11.4845,0.1256,-0.0055,-0.0342,75
8.956,172,9.5018,-1.0958,-11.5144,0.0446,0.0084,-0.008,75
9.008,173,9.4652,-1.2724,-11.5172,-0.05,0.019,0.0113,75
9.06,174,9.4389,-1.288,-11.4654,0.0012,0.0104,0.004,75
9.112,175,9.482,-1.1803,-11.4122,-0.0294,-0.001,0.0071,75
9.164,176,9.4336,-1.358,-11.4342,-0.091,0.0049,0.0195,75
9.215,177,9.4311,-1.4293,-11.3798,-0.0161,-0.0004,0.0022,75
9.267,178,9.3683,-1.8242,-11.3952,0.1178,-0.014,-0.0147,75
9.319,179,9.5859,-0.5787,-11.28,0.252,-0.0494,-0.0372,75
9.37,180,9.5342,-0.9918,-11.4463,-0.0715,-0.032,0.0191,75
9.422,181,9.4914,-1.2217,-11.4417,-0.0789,-0.0106,0.0402,75
9.474,182,9.4132,-1.3436,-11.4799,-0.0621,0.0054,0.0381,75
9.526,183,9.3872,-1.4266,-11.402,-0.0274,-0.0054,0.0343,75
9.578,184,9.4231,-1.3075,-11.4288,-0.0391,-0.0222,0.025,75
9.629,185,9.4029,-1.4659,-11.469,-0.021,-0.0363,0.0137,75
9.681,186,9.414,-1.5165,-11.447,0.0408,-0.0303,-0.0081,75
9.733,187,9.3732,-1.4408,-11.4691,0.2659,-0.0401,-0.0316,75
9.785,188,9.4044,-1.3233,-11.4984,0.3178,-0.0533,-0.043,75
9.836,189,9.5095,-1.0658,-11.5782,0.2281,-0.0584,-0.0251,75
9.888,190,9.4382,-1.2146,-11.6483,0.1064,-0.0535,-0.0022,75
9.94,191,9.4322,-1.3053,-11.6139,0.112,-0.044,-0.0026,75
9.992,192,9.5221,-0.9285,-11.5417,0.0702,-0.0273,0.0131,75
10.044,193,9.4915,-1.1275,-11.6022,-0.2181,-0.0054,0.0741,75
10.095,194,9.4417,-1.4077,-11.6771,-0.4113,0.0129,0.1123,75
10.147,195,9.4399,-1.488,-11.6272,-0.3633,0.0228,0.0923,75
10.199,196,9.3035,-1.7933,-11.6669,-0.2856,0.0306,0.0658,75
10.251,197,9.3448,-1.2738,-11.6312,-0.061,0.0189,0.0205,75
10.303,198,9.3608,-1.2479,-11.5079,-0.1043,0.0099,0.0232,75
10.355,199,9.3838,-1.2237,-11.6611,-0.0894,-0.0089,0.0102,75
10.406,200,9.5024,-0.7904,-11.7437,-0.1957,0.0244,0.0376,75
10.458,201,9.3626,-1.3505,-11.7542,-0.2748,0.038,0.0578,75
10.51,202,9.2966,-1.6857,-11.6642,-0.0835,0.0349,0.0162,75
10.562,203,9.5526,-1.014,-11.2749,0.123,0.0044,-0.0387,75
10.614,204,9.517,-1.2743,-11.391,0.0943,-0.0075,-0.0299,75
10.665,205,9.4664,-1.5058,-11.4756,0.1396,-0.0114,-0.0389,75
10.717,206,9.6036,-1.2849,-11.345,0.1423,-0.0273,-0.0482,75
10.769,207,9.4929,-1.4605,-11.5836,0.1532,-0.0098,-0.0586,75
10.821,208,9.5581,-1.0289,-11.4992,0.1871,0.0087,-0.0459,75
10.872,209,9.4979,-1.2517,-11.5014,0.0707,0.0258,-0.0145,75
10.924,210,9.4024,-1.4885,-11.5116,0.0731,0.029,-0.0246,75
10.976,211,9.3813,-1.5988,-11.5415,0.1412,0.0308,-0.027,75
11.028,212,9.4105,-1.2426,-11.5605,0.1848,0.0334,-0.0263,75
11.08,213,9.4128,-1.3803,-11.4878,0.1287,0.0377,-0.0118,75
11.131,214,9.4495,-1.1674,-11.4659,0.1351,0.0249,-0.0107,75
11.183,215,9.5133,-1.1435,-11.3674,-0.0363,0.0362,0.0127,75
11.235,216,9.4639,-1.2675,-11.4225,-0.1117,0.0307,0.0279,75
11.287,217,9.4676,-1.365,-11.4015,-0.2102,0.0389,0.0357,75
11.339,218,9.4113,-1.6048,-11.3588,-0.1124,0.0495,0.0035,75
11.39,219,9.2878,-1.9366,-11.3508,0.1322,0.0287,-0.0404,75
11.442,220,9.4347,-1.376,-11.2418,0.3136,-0.0226,-0.0525,75
11.494,221,9.5832,-0.9504,-11.2756,0.1999,-0.0504,-0.0354,75
11.546,222,9.5103,-1.3893,-11.2954,-0.0317,-0.0347,0.0096,75
11.597,223,9.4892,-1.4018,-11.3155,0.0138,-0.0084,-0.0033,75
11.649,224,9.4465,-1.3357,-11.2852,0.0564,-0.0091,0.0014,75
11.701,225,9.4106,-1.4183,-11.3376,0.0618,-0.0185,0.0039,75
11.753,226,9.4818,-1.0394,-11.4042,-0.01,-0.0057,0.0056,75
11.805,227,9.454,-1.2195,-11.4532,-0.0847,0.0068,0.0238,75
11.857,228,9.4085,-1.4141,-11.4347,-0.1093,0.0303,0.0286,75
11.908,229,9.5196,-1.121,-11.2707,-0.1773,0.0472,0.0369,75
11.96,230,9.4074,-1.5161,-11.3554,-0.22,0.0375,0.0296,75
12.012,231,9.4034,-1.4208,-11.4321,-0.1033,0.0206,0.0041,75
12.064,232,9.406,-1.4238,-11.4129,-0.0494,0.0165,0.0016,75
12.116,233,9.3492,-1.5926,-11.3636,0.0153,0.0186,-0.0029,75
12.167,234,9.5371,-1.2258,-11.1522,0.043,0.0068,-0.0058,75
12.219,235,9.4893,-1.329,-11.2317,0.02,-0.0013,0.0019,75
12.271,236,9.4818,-1.3461,-11.2519,0.0069,-0.0042,-0.0026,75
12.323,237,9.4981,-1.2591,-11.2474,0.0157,-0.0136,-0.0072,75
12.374,238,9.4993,-1.2802,-11.2531,-0.0636,-0.0169,-0.0036,75
12.426,239,9.4805,-1.3771,-11.3014,-0.0584,-0.0174,-0.0066,75
12.478,240,9.4483,-1.4134,-11.4023,0.0059,-0.0124,-0.0201,75
12.53,241,9.4322,-1.5273,-11.4142,0.0325,0.0008,-0.0189,75
12.582,242,9.3767,-1.5599,-11.4693,0.1607,0.0256,-0.0324,75
12.633,243,9.5161,-0.9726,-11.3651,0.2103,0.0332,-0.0275,75
12.685,244,9.4884,-1.1692,-11.2872,0.1134,0.0266,-0.0053,75
12.737,245,9.4593,-1.216,-11.3215,-0.0057,0.0128,0.0004,75
12.789,246,9.4678,-1.1059,-11.4032,-0.1891,0.0228,0.0231,75
12.841,247,9.4166,-1.4155,-11.4242,-0.2698,0.0304,0.0409,75
12.892,248,9.4571,-1.4119,-11.3893,-0.2378,0.0428,0.0401,75
12.944,249,9.5018,-1.405,-11.3444,-0.241,0.059,0.047,75
12.996,250,9.5138,-1.4649,-11.3891,-0.2586,0.0857,0.0582,75
13.048,251,9.5139,-1.4224,-11.3574,-0.237,0.1279,0.0645,75
13.1,252,9.4953,-1.5638,-11.272,-0.1601,0.1602,0.0562,75
13.151,253,9.4525,-1.4974,-11.1638,-0.0623,0.1707,0.0424,75
13.203,254,9.3531,-1.8438,-11.0336,0.0729,0.1393,0.0282,75
13.255,255,9.459,-1.4892,-11.0048,0.2973,0.0873,-0.0018,75
13.307,256,9.5086,-1.5876,-10.8862,0.2231,0.055,-0.0137,75
13.359,257,9.5102,-1.4673,-10.8691,0.2241,0.0436,-0.0297,75
13.41,258,9.499,-1.477,-10.8216,0.1574,0.0408,-0.0455,75
13.462,259,9.5014,-1.4229,-10.7779,0.1116,0.038,-0.0625,75
13.514,260,9.5006,-1.4027,-10.7476,0.0425,0.0421,-0.0823,75
