right_leg_timestamp,right_leg_index,right_leg_accel_x,right_leg_accel_y,right_leg_accel_z,right_leg_gyro_x,right_leg_gyro_y,right_leg_gyro_z,right_leg_battery_percentage,left_leg_timestamp,left_leg_index,left_leg_accel_x,left_leg_accel_y,left_leg_accel_z,left_leg_gyro_x,left_leg_gyro_y,left_leg_gyro_z,left_leg_battery_percentage
0.192,3,4.9394,0.8676,-15.6694,-0.0135,-2.1149,-0.326,92,0.012,0,8.1923,0.1831,-7.9422,-0.1908,0.1039,-0.1085,63
0.244,4,3.756,1.0554,-15.6646,-0.0103,-1.8512,-0.2119,92,0.064,1,8.5212,0.169,-8.1234,-0.2787,0.0605,-0.1348,63
0.295,5,2.7247,0.883,-16.1521,0.0705,-1.53,-0.1422,92,0.116,2,8.6383,0.3511,-8.3904,-0.3483,-0.0198,-0.1612,63
0.347,6,1.8789,0.7272,-16.8801,0.1408,-1.1772,-0.1068,92,0.168,3,8.8517,0.2562,-8.7978,-0.3242,-0.0139,-0.1573,63
0.399,7,1.4699,0.9617,-17.5795,0.2189,-0.8634,-0.1067,92,0.219,4,8.9816,0.2126,-8.9442,-0.0999,0.0763,-0.1669,63
0.451,8,1.0404,1.3094,-18.3693,0.2757,-0.619,-0.1597,92,0.271,5,9.068,0.8667,-8.993,0.25,0.2332,-0.1535,63
0.503,9,0.4727,1.076,-18.7808,0.2531,-0.4635,-0.2278,92,0.323,6,8.9194,1.0423,-8.8166,0.314,0.2237,-0.1016,63
0.555,10,0.1079,0.7424,-19.0082,0.0599,-0.3532,-0.1993,92,0.375,7,8.7041,1.3142,-8.5195,0.2991,0.1794,-0.044,63
0.607,11,-0.117,0.9777,-19.1196,-0.0201,-0.2519,-0.1761,92,0.427,8,8.618,1.1737,-8.6928,0.1261,0.1201,-0.0065,63
0.658,12,-0.4002,0.9032,-19.2844,0.0295,-0.1624,-0.2046,92,0.478,9,8.8992,0.8601,-8.8039,-0.1244,0.1127,-0.0112,63
0.71,13,-0.4435,0.7835,-19.4852,0.0031,-0.1217,-0.1738,92,0.53,10,8.876,0.8992,-8.6315,-0.1368,0.1289,-0.03,63
0.762,14,-0.5056,0.6501,-19.5831,-0.0536,-0.1012,-0.1342,92,0.582,11,8.9595,0.8202,-8.5691,-0.0746,0.1309,-0.0376,63
0.814,15,-0.6059,0.4941,-19.5616,-0.0348,-0.0783,-0.1125,92,0.633,12,8.825,1.0694,-8.3869,-0.0626,0.1482,-0.0178,63
0.865,16,-0.6464,0.537,-19.6337,0.0282,-0.0597,-0.0833,92,0.685,13,8.7285,1.0002,-8.1358,-0.1131,0.098,-0.0145,63
0.917,17,-0.7374,0.5546,-19.6973,0.0377,-0.0523,-0.0528,92,0.737,14,8.8136,0.95,-8.2343,-0.1058,0.0604,-0.0412,63
0.969,18,-0.8378,0.57,-19.6755,0.0019,-0.0378,-0.0106,92,0.789,15,8.7516,1.0398,-8.2262,-0.1003,0.0554,-0.0194,63
1.021,19,-0.9278,0.6392,-19.6659,-0.0043,-0.0267,0.0289,92,0.841,16,8.6934,0.9896,-8.0543,-0.1192,0.0226,-0.014,63
1.072,20,-1.0652,0.8228,-19.6248,-0.0651,-0.0294,0.0787,92,0.892,17,8.751,0.9184,-8.1218,-0.1044,-0.019,-0.0161,63
1.124,21,-0.9256,0.9713,-19.6793,-0.0395,-0.0291,0.0886,92,0.944,18,8.7778,0.9572,-8.1388,-0.086,-0.0164,-0.0044,63
1.176,22,-0.7317,0.9939,-19.7833,-0.0456,-0.0125,0.078,92,0.996,19,8.7752,0.9452,-8.1263,-0.0907,-0.0351,-0.0096,63
1.228,23,-0.6872,0.9396,-19.7082,-0.0988,0.0133,0.1119,92,1.048,20,8.794,0.9204,-8.1328,-0.0697,-0.0805,-0.032,63
1.28,24,-0.7586,1.0674,-19.6321,-0.0735,0.0637,0.0995,92,1.1,21,8.8105,1.0246,-8.2568,-0.046,-0.0813,-0.0331,63
1.331,25,-0.9431,1.0853,-19.5345,-0.0123,0.0828,0.036,92,1.151,22,8.825,0.996,-8.264,-0.0281,-0.0758,-0.035,63
1.383,26,-1.0071,1.0477,-19.5378,-0.0126,0.0808,-0.0194,92,1.203,23,8.8623,0.9785,-8.3413,-0.0012,-0.0759,-0.0335,63
1.435,27,-0.8921,1.0234,-19.6598,-0.0211,0.0734,-0.0855,92,1.255,24,8.9538,0.8603,-8.1905,0.2009,-0.0218,-0.014,63
1.487,28,-0.7861,0.7953,-19.7507,-0.0314,0.062,-0.1179,92,1.307,25,8.8646,1.0741,-8.2262,0.1811,-0.0199,-0.0276,63
1.538,29,-0.8021,0.6789,-19.7486,-0.0386,0.0572,-0.0894,92,1.359,26,8.9354,1.0136,-8.3682,0.1469,-0.0213,-0.0151,63
1.59,30,-0.8737,0.9185,-19.7761,0.0348,0.0459,-0.0762,92,1.41,27,8.8775,1.0959,-8.3617,0.1443,-0.0164,0.0085,63
1.642,31,-0.9122,0.9659,-19.7954,0.0611,0.0129,-0.0771,92,1.462,28,8.7953,1.1697,-8.3743,0.1074,-0.0217,0.0305,63
1.694,32,-0.8352,0.9568,-19.7803,-0.0214,-0.0219,-0.0466,92,1.514,29,8.6915,1.2984,-8.292,0.0015,-0.0434,0.0452,63
1.746,33,-0.8049,0.9189,-19.6633,-0.0417,-0.035,-0.045,92,1.566,30,8.8074,0.986,-8.237,-0.1237,-0.0823,0.0253,63
1.797,34,-0.7684,0.8757,-19.5691,0.0155,-0.0239,-0.0603,92,1.617,31,8.9051,0.881,-8.4854,-0.1631,-0.1268,-0.0038,63
1.849,35,-0.7213,0.7938,-19.6092,0.0222,-0.0109,-0.0402,92,1.669,32,8.964,0.7532,-8.6162,-0.0926,-0.0786,-0.0072,63
1.901,36,-0.6068,0.8621,-19.7122,0.0215,-0.0002,-0.006,92,1.721,33,8.9111,0.9847,-8.4682,0.1062,-0.0084,-0.0087,63
1.953,37,-0.5692,0.8836,-19.7226,0.0455,0.0101,0.0202,92,1.773,34,8.8748,1.0481,-8.462,0.1632,0.0214,0.0006,63
2.005,38,-0.5492,0.8675,-19.6891,0.0334,0.0312,0.0583,92,1.825,35,8.8582,1.0996,-8.4614,0.1481,0.0306,0.0058,63
2.057,39,-0.5524,0.82,-19.6662,0.0236,0.0628,0.0927,92,1.876,36,8.9011,1.0447,-8.5017,0.114,0.035,0.0061,63
2.108,40,-0.5809,0.6994,-19.6891,0.0365,0.0866,0.1065,92,1.928,37,8.8557,1.1467,-8.4984,0.0962,0.047,0.0041,63
2.16,41,-0.542,0.6975,-19.7694,0.0503,0.0892,0.1177,92,1.98,38,8.8663,1.1675,-8.4914,0.0316,0.0367,0.0049,63
2.212,42,-0.4662,0.7935,-19.8334,0.0522,0.0783,0.1249,92,2.032,39,8.9166,1.0819,-8.3705,0.0179,0.047,-0.007,63
2.264,43,-0.4527,0.8502,-19.8511,0.0488,0.0605,0.1142,92,2.083,40,8.8248,1.221,-8.3193,0.0382,0.0612,-0.0126,63
2.315,44,-0.4764,0.8737,-19.7769,0.0034,0.0269,0.1205,92,2.135,41,8.7698,1.2636,-8.4096,0.0083,0.0273,-0.0089,63
2.367,45,-0.5702,0.89,-19.7081,-0.0033,-0.0056,0.1428,92,2.187,42,8.7991,1.1649,-8.4146,-0.0335,-0.0165,-0.0135,63
2.419,46,-0.6613,0.8744,-19.7031,-0.0082,-0.0432,0.1821,92,2.239,43,8.8446,1.1966,-8.5,-0.0686,-0.042,-0.0244,63
2.471,47,-0.6057,0.9109,-19.7051,-0.039,-0.0759,0.1961,92,2.291,44,8.9189,1.0102,-8.4757,-0.0748,-0.0373,-0.0298,63
2.523,48,-0.5763,0.8943,-19.6419,-0.0723,-0.0896,0.1734,92,2.342,45,8.9889,0.8772,-8.6189,-0.0019,-0.0135,-0.033,63
2.574,49,-0.558,0.7541,-19.6496,-0.0451,-0.0746,0.1387,92,2.394,46,8.8477,1.1308,-8.5548,0.0904,0.0202,-0.0244,63
2.626,50,-0.621,0.7449,-19.6742,0.0093,-0.0514,0.0947,92,2.446,47,8.9415,1.1924,-8.5465,0.1479,0.0339,-0.0133,63
2.678,51,-0.6731,0.8669,-19.7588,0.0495,-0.048,0.0734,92,2.498,48,8.8567,1.1753,-8.4835,0.1948,0.0454,0.0086,63
2.73,52,-0.7506,0.9943,-19.7794,0.0326,-0.0722,0.0507,92,2.55,49,8.8344,1.2214,-8.4852,0.2561,0.0401,0.0234,63
2.781,53,-0.6986,0.861,-19.7191,-0.0055,-0.1063,0.0182,92,2.601,50,8.8011,1.3136,-8.446,0.2292,0.0216,0.0385,63
2.833,54,-0.6483,0.6647,-19.7255,-0.0114,-0.105,0.0183,92,2.653,51,8.6847,1.3758,-8.4145,0.1102,-0.0005,0.0406,63
2.885,55,-0.6326,0.6536,-19.6803,0.0095,-0.0785,0.0217,92,2.705,52,8.7812,1.2629,-8.4742,0.0884,-0.0067,0.0344,63
2.937,56,-0.6436,0.7285,-19.6796,0.0594,-0.0509,0.0217,92,2.757,53,8.8354,1.1814,-8.5147,0.0985,0.0242,0.0339,63
2.989,57,-0.701,0.748,-19.7262,0.0457,-0.0341,0.0545,92,2.808,54,8.9113,1.0808,-8.5044,0.1311,0.0584,0.032,63
3.04,58,-0.7973,0.8579,-19.743,0.0269,-0.0077,0.0535,92,2.86,55,8.8329,1.1676,-8.4363,0.1634,0.0934,0.0346,63
3.092,59,-0.9235,0.8812,-19.7066,0.0244,0.0006,0.0314,92,2.912,56,8.7001,1.3995,-8.3004,0.0803,0.0914,0.0231,63
3.144,60,-0.9615,0.9659,-19.6474,-0.0082,-0.0159,0.0133,92,2.964,57,9.0676,0.841,-8.4186,0.0014,0.053,0.0221,63
3.196,61,-1.036,0.7151,-19.54,-0.026,-0.0432,-0.0125,92,3.016,58,9.0449,0.8762,-8.4383,0.0036,0.0486,0.0011,63
3.248,62,-0.9177,0.6002,-19.6199,-0.055,-0.0479,0.0004,92,3.067,59,8.9476,1.0063,-8.3699,-0.0086,0.0507,-0.0021,63
3.299,63,-0.6869,0.5523,-19.8462,0.0531,-0.0353,0.0147,92,3.119,60,8.9087,0.9443,-8.2721,0.012,0.0455,-0.0035,63
3.351,64,-0.6537,0.7471,-19.8993,0.0537,-0.0284,0.0547,92,3.171,61,8.9606,0.966,-8.3062,0.0578,0.0584,0.001,63
3.403,65,-0.7443,0.8564,-19.7961,0.0051,-0.0114,0.0818,92,3.222,62,8.8506,1.1424,-8.2822,0.0897,0.0709,0.0129,63
3.455,66,-0.8835,0.9212,-19.627,-0.0203,0.0063,0.0912,92,3.274,63,8.8355,1.1927,-8.1859,0.0755,0.0563,0.0265,63
3.507,67,-0.9777,0.9597,-19.5843,-0.0073,0.0151,0.0609,92,3.326,64,8.6687,1.5323,-8.0313,-0.0027,0.052,0.0193,63
3.558,68,-1.0427,0.8815,-19.6178,-0.0224,0.0123,0.02,92,3.378,65,8.6162,1.3127,-7.9903,-0.0995,0.0283,-0.0168,63
3.61,69,-1.0614,0.8509,-19.649,-0.0095,0.0026,-0.0449,92,3.43,66,8.7577,1.1057,-8.058,-0.0681,0.0081,-0.0316,63
3.662,70,-1.045,0.7367,-19.7036,0.0165,-0.0152,-0.0829,92,3.481,67,8.7861,0.8065,-8.1794,-0.0355,0.0429,-0.0262,63
3.714,71,-0.9723,0.7402,-19.758,0.0132,-0.0239,-0.0871,92,3.533,68,8.8193,0.8885,-8.2361,0.0885,0.0527,-0.0034,63
3.765,72,-0.9366,0.7741,-19.7124,0.029,-0.0301,-0.0862,92,3.585,69,8.7442,1.0324,-8.1229,0.1838,0.078,0.0262,63
3.817,73,-0.8941,0.7293,-19.6521,0.0085,-0.0243,-0.0593,92,3.637,70,8.5641,1.3126,-7.9104,0.2163,0.0689,0.0366,63
3.869,74,-0.9292,0.681,-19.6018,0.0241,-0.0082,-0.0415,92,3.688,71,8.4793,1.2944,-7.9927,0.1273,0.0574,0.0351,63
3.921,75,-0.9503,0.6062,-19.6392,0.0527,0.0055,-0.0206,92,3.74,72,8.4722,1.3886,-7.8409,0.1108,0.0501,0.0272,63
3.973,76,-0.9513,0.6228,-19.7424,0.0604,0.0118,0.0128,92,3.792,73,8.6315,1.1664,-7.9355,-0.0137,-0.0007,0.0104,63
4.024,77,-0.9232,0.7197,-19.7593,0.0649,0.0054,0.0199,92,3.844,74,8.7005,1.1533,-7.9875,-0.0143,0.0048,0.0052,63
4.076,78,-0.8839,0.8217,-19.6164,0.0164,-0.0062,0.0328,92,3.896,75,8.6999,1.1765,-7.9856,-0.0109,0.0088,0.0118,63
4.128,79,-0.9161,0.4884,-19.5201,0.0376,-0.0139,0.0404,92,3.947,76,8.6953,1.1524,-8.0057,0.0238,0.0093,0.0169,63
4.18,80,-0.9998,0.5303,-19.6026,0.0996,0.0199,0.0579,92,3.999,77,8.8276,1.1397,-7.9147,0.0304,0.0339,0.0229,63
4.232,81,-0.9695,0.7866,-19.8032,0.1998,0.0188,0.0152,92,4.051,78,8.8132,1.1016,-7.932,0.0311,0.0379,0.0224,63
4.283,82,-0.9501,0.7291,-19.8933,0.0967,-0.0087,0.026,92,4.103,79,8.7835,1.0019,-7.8994,0.0113,0.0558,0.0194,63
4.335,83,-0.9655,0.5983,-19.7363,0.0048,-0.0317,0.0295,92,4.155,80,8.7429,1.0707,-7.9011,0.0235,0.0658,0.0182,63
4.387,84,-0.9419,0.4286,-19.6488,0.023,-0.0371,0.0143,92,4.207,81,8.667,1.1678,-7.8281,-0.0092,0.0514,0.0146,63
4.439,85,-0.9338,0.5136,-19.6623,0.0705,-0.0218,-0.008,92,4.258,82,8.3782,1.5182,-7.6789,-0.1454,0.0275,-0.0163,63
4.491,86,-0.9314,0.4921,-19.6858,0.0481,-0.01,-0.0191,92,4.31,83,8.5182,1.2848,-7.7515,-0.1157,0.0283,-0.0325,63
4.542,87,-0.9073,0.3893,-19.7314,0.0177,-0.0078,-0.0124,92,4.362,84,8.5462,1.2937,-7.8237,-0.0996,0.0436,-0.0263,63
4.594,88,-0.8198,0.3664,-19.7862,0.0398,0.0015,-0.0085,92,4.414,85,8.5543,1.172,-7.8065,-0.0764,0.0505,-0.0186,63
4.646,89,-0.7813,0.6083,-19.7755,0.0463,0.027,-0.004,92,4.465,86,8.6126,1.1245,-7.7906,-0.0836,0.0255,-0.0084,63
4.697,90,-0.8567,0.5846,-19.6443,-0.0521,0.0586,0.0617,92,4.517,87,8.7009,1.0009,-7.7883,-0.104,-0.0001,-0.012,63
4.75,91,-0.8904,0.3872,-19.5299,-0.1321,0.0743,0.1517,92,4.569,88,8.7555,0.9483,-7.811,-0.0807,-0.0044,-0.0082,63
4.801,92,-0.9013,-0.0126,-19.5685,-0.1173,0.0708,0.2117,92,4.621,89,8.736,0.9771,-7.8025,-0.1015,-0.0056,-0.0052,63
4.853,93,-0.8336,0.1108,-19.7379,0.0286,0.0718,0.212,92,4.673,90,8.7475,0.9164,-7.7774,-0.1779,-0.0261,-0.0247,63
4.905,94,-0.8189,0.4471,-19.9004,0.0875,0.0521,0.1813,92,4.724,91,8.6655,0.5904,-7.8895,-0.1514,0.0142,-0.0299,63
4.957,95,-0.8593,0.5764,-19.9183,0.0422,0.0084,0.1626,92,4.776,92,8.6419,0.8854,-7.8254,0.0127,0.0345,-0.0214,63
5.009,96,-0.7997,0.5983,-19.8507,-0.023,-0.0314,0.129,92,4.828,93,8.5563,1.1722,-7.6756,0.0597,0.0388,0.003,63
5.06,97,-0.7089,0.6317,-19.781,-0.011,-0.0483,0.0699,92,4.88,94,8.4768,1.1748,-7.6328,0.0108,0.0015,0.0048,63
5.112,98,-0.6956,0.7626,-19.7649,0.0083,-0.0269,-0.0022,92,4.931,95,8.9321,0.7538,-7.8911,-0.1637,-0.0815,-0.0254,63
5.164,99,-0.681,0.8671,-19.7314,-0.0449,0.0041,-0.0411,92,4.983,96,8.9084,0.7587,-7.9199,-0.2272,-0.0816,-0.0526,63
5.216,100,-0.6959,0.6898,-19.6314,-0.1077,0.0219,-0.0658,92,5.035,97,8.8911,0.8181,-7.8694,-0.2084,-0.0736,-0.0684,63
5.268,101,-0.7109,0.307,-19.5909,-0.0784,0.0243,-0.0395,92,5.087,98,8.8818,0.9467,-7.9188,-0.218,-0.0658,-0.0834,63
5.319,102,-0.6825,-0.133,-19.8378,-0.0281,0.0445,0.0459,92,5.139,99,8.8594,0.9432,-7.9249,-0.1696,-0.041,-0.0742,63
5.371,103,-0.5768,0.5607,-19.9728,0.0788,0.0487,0.076,92,5.19,100,9.0105,0.6972,-8.0087,-0.0047,-0.0229,-0.0513,63
5.423,104,-0.5911,0.6978,-19.8915,0.0299,0.0323,0.1082,92,5.242,101,8.9082,0.965,-7.9207,0.1159,0.0196,-0.0172,63
5.475,105,-0.6397,0.785,-19.702,-0.1008,0.0189,0.1304,92,5.294,102,8.8811,1.0368,-7.9729,0.1418,0.0238,0.0089,63
5.527,106,-0.7457,0.636,-19.5356,-0.1019,0.0145,0.0793,92,5.346,103,8.7409,1.285,-7.7904,0.1128,0.025,0.0281,63
5.578,107,-0.7745,0.4879,-19.5497,-0.0388,0.0203,0.0366,92,5.397,104,8.9645,1.0018,-8.0137,0.0021,0.0115,0.0205,63
5.63,108,-0.7747,0.6522,-19.7378,0.0479,0.0249,0.0172,92,5.449,105,8.9218,0.854,-8.0524,-0.011,0.0108,0.0106,63
5.682,109,-0.7651,0.7463,-19.9202,0.0573,0.0016,0.0005,92,5.501,106,8.8552,1.08,-7.9503,0.0602,0.0153,0.0138,63
5.734,110,-0.7541,0.8361,-19.8899,-0.0331,-0.0293,0.0181,92,5.553,107,8.7939,1.1443,-7.8159,0.0813,0.0099,0.0249,63
5.785,111,-0.7598,0.8535,-19.7614,-0.0573,-0.046,0.0159,92,5.605,108,8.7561,1.1482,-7.8119,0.0775,-0.008,0.0431,63
5.837,112,-0.8376,0.8079,-19.6637,-0.0634,-0.0491,0.047,92,5.656,109,8.5626,1.2285,-7.7177,0.0068,-0.0346,0.0363,63
5.889,113,-0.7582,1.0247,-19.6642,-0.1379,-0.0363,0.1222,92,5.708,110,8.6017,1.2109,-7.8558,-0.067,-0.0635,0.0039,63
5.941,114,-0.7034,1.177,-19.8196,-0.119,-0.035,0.1575,92,5.76,111,8.6884,1.2286,-7.8987,-0.0791,-0.0604,-0.0208,63
5.992,115,-0.6957,1.1269,-19.8706,-0.135,-0.0406,0.1636,92,5.811,112,8.7164,1.1167,-7.8765,-0.0404,-0.0479,-0.0321,63
6.044,116,-0.7785,1.0462,-19.7713,-0.1071,-0.0537,0.1387,92,5.863,113,8.7615,1.0931,-7.9497,0.0386,-0.0176,-0.0289,63
6.096,117,-0.8885,0.9829,-19.5592,-0.0486,-0.0478,0.0792,92,5.915,114,8.7557,1.0558,-7.9269,0.0844,0.0025,-0.0162,63
6.148,118,-0.9259,0.97,-19.4452,-0.0045,-0.0326,0.0229,92,5.967,115,8.8716,0.9244,-8.0776,0.1425,0.0198,0.0044,63
6.2,119,-0.7908,1.0039,-19.5361,0.0178,-0.0241,-0.0107,92,6.019,116,8.9083,0.8315,-8.1585,0.2853,0.0532,0.0251,63
6.251,120,-0.6387,0.9964,-19.6507,0.0309,-0.0122,-0.0096,92,6.07,117,8.7789,1.0034,-8.105,0.4437,0.0745,0.0523,63
6.303,121,-0.5346,1.017,-19.721,-0.0154,0.0106,0.0487,92,6.122,118,8.6249,1.3045,-7.9233,0.5244,0.0855,0.0892,63
6.355,122,-0.5298,1.1095,-19.7075,-0.0401,0.0318,0.1264,92,6.174,119,8.6231,1.5278,-7.907,0.4621,0.0703,0.1362,63
6.407,123,-0.522,1.3417,-19.7618,0.0274,0.0462,0.1725,92,6.226,120,8.8073,1.137,-7.9176,0.3806,0.0664,0.1444,63
6.459,124,-0.5039,1.4793,-19.8596,0.0304,0.0486,0.2045,92,6.277,121,8.7778,1.3854,-7.6974,0.2481,0.0556,0.1085,63
6.511,125,-0.5142,1.5796,-19.7289,0.0132,0.031,0.17,93,6.329,122,8.8569,1.284,-7.7359,0.1723,0.0476,0.0667,63
6.563,126,-0.6841,1.2246,-19.4928,0.0991,0.0182,0.0381,93,6.381,123,8.798,1.2415,-7.7251,0.1244,0.0239,0.0216,63
6.614,127,-0.8737,0.9973,-19.3285,0.0954,0.0414,-0.0597,93,6.433,124,8.8967,1.0268,-7.8778,0.1045,0.0085,-0.0018,63
6.666,128,-0.9177,1.2035,-19.2242,0.1264,0.0845,-0.1761,93,6.485,125,8.8843,0.9379,-7.8616,0.1962,-0.0024,-0.0109,63
6.718,129,-0.9076,0.8584,-19.3114,0.192,0.0723,-0.2331,93,6.536,126,8.9477,0.8905,-8.003,0.3488,0.0101,-0.0041,63
6.77,130,-0.578,0.6435,-19.5075,0.0704,0.07,-0.1266,93,6.588,127,8.7809,1.223,-7.8633,0.4295,0.017,0.0272,63
6.821,131,-0.5034,0.5733,-19.7839,0.1739,0.11,-0.097,93,6.64,128,8.7345,1.6256,-7.7413,0.4445,0.0062,0.0902,63
6.873,132,-0.4129,1.0666,-19.9338,0.2354,0.1296,-0.0491,93,6.692,129,8.5111,1.9828,-7.8638,0.2627,0.0099,0.1247,63
6.925,133,-0.4175,1.1062,-20.0579,0.1661,0.0978,-0.0056,93,6.743,130,9.0124,1.0054,-8.0178,0.1682,-0.0038,0.1454,63
6.977,134,-0.3658,1.0141,-19.8684,-0.0069,0.0404,0.0612,93,6.795,131,8.6654,2.0613,-7.5916,0.0169,0.0094,0.0619,63
7.028,135,-0.5006,0.8616,-19.6853,-0.0903,0.0014,0.0973,93,6.847,132,7.8042,2.8183,-7.3355,-0.634,-0.0279,-0.0891,63
7.08,136,-0.4993,0.5781,-19.6575,-0.0951,-0.0115,0.125,93,6.899,133,8.3376,1.1016,-8.2107,-0.5943,-0.0808,-0.1539,63
7.132,137,-0.3792,0.6019,-19.7787,-0.0129,-0.0163,0.1226,93,6.951,134,8.4713,0.6635,-8.2264,-0.3964,-0.0588,-0.1279,63
7.184,138,-0.2732,0.9006,-19.8374,0.0382,-0.0254,0.122,93,7.002,135,8.5774,0.6917,-8.3297,-0.2669,-0.0111,-0.1193,63
7.236,139,-0.2598,0.9266,-19.8464,0.0124,-0.0505,0.1421,93,7.054,136,8.5535,0.8988,-8.1455,-0.1568,-0.0149,-0.0733,63
7.287,140,-0.2804,1.0212,-19.7667,-0.0223,-0.0506,0.1212,93,7.106,137,8.5488,0.978,-8.2062,-0.115,-0.0247,-0.0441,63
7.339,141,-0.2923,1.0385,-19.646,0.0045,-0.0411,0.0619,93,7.158,138,8.403,1.0919,-8.0966,-0.2213,-0.0508,-0.055,63
7.391,142,-0.4119,1.0764,-19.4807,-0.0122,0.0088,0.023,93,7.21,139,8.7336,0.7037,-8.2343,-0.192,-0.0856,-0.0558,63
7.443,143,-0.3683,1.1363,-19.5234,-0.0269,0.0764,0.0129,93,7.261,140,8.7218,0.9632,-8.1522,-0.0628,-0.0156,-0.0442,63
7.494,144,-0.3118,1.1845,-19.5736,-0.0148,0.1154,0.0342,93,7.313,141,8.7214,1.0143,-8.1384,-0.0463,-0.0079,-0.0337,63
7.546,145,-0.3492,1.0633,-19.5702,-0.0014,0.1304,0.0469,93,7.365,142,8.8259,0.8668,-8.1756,-0.0496,-0.0279,-0.0293,63
7.598,146,-0.2262,0.764,-19.3576,-0.0112,0.1272,0.0796,93,7.417,143,8.8968,0.8677,-8.2296,0.0172,-0.0183,-0.0288,63
7.65,147,-0.405,0.5832,-19.3036,0.1091,0.1751,0.0221,93,7.468,144,8.8464,1.0487,-8.2003,0.0699,-0.0018,-0.0132,63
7.702,148,-0.5102,0.6473,-19.2956,0.2478,0.2603,-0.065,93,7.52,145,8.8756,0.9699,-8.0336,0.0982,-0.0035,0.002,63
7.754,149,-0.1423,1.0376,-19.776,0.2953,0.3215,-0.1266,93,7.572,146,8.9481,0.9515,-8.1101,0.176,0.0051,0.0134,63
7.806,150,0.2876,1.0429,-20.0461,0.2654,0.3122,-0.1943,93,7.624,147,8.7846,1.2133,-8.021,0.2151,0.0028,0.0239,63
7.858,151,0.579,1.0195,-20.1636,0.21,0.2601,-0.2969,93,7.676,148,8.5922,1.4994,-7.9121,0.0505,-0.0314,0.0269,63
7.909,152,0.7102,0.8571,-19.92,0.1902,0.2121,-0.3749,93,7.727,149,8.7263,1.046,-8.2178,-0.0957,-0.1666,-0.0044,63
7.961,153,0.7769,0.7311,-19.7401,0.1208,0.1837,-0.364,93,7.779,150,8.7085,1.2369,-8.3578,-0.1755,-0.2945,-0.0428,63
8.013,154,0.9068,0.7493,-19.5526,0.0123,0.1622,-0.2841,93,7.831,151,8.878,0.8466,-8.8265,-0.2511,-0.3531,-0.0963,63
8.064,155,1.1638,0.617,-19.8563,-0.0652,0.1282,-0.2047,93,7.883,152,8.9887,0.9675,-8.9634,-0.1421,-0.2811,-0.0898,63
8.116,156,1.3154,0.389,-20.0252,-0.1028,0.0595,-0.1858,93,7.934,153,9.084,0.9774,-9.2267,0.0017,-0.2042,-0.083,63
8.168,157,1.2655,0.1746,-19.7655,-0.0832,-0.0057,-0.2354,93,7.986,154,8.8996,1.1214,-8.8428,0.0417,-0.1382,-0.0509,63
8.22,158,1.2113,0.0861,-19.3883,-0.0076,-0.0234,-0.3222,93,8.038,155,8.9866,1.0252,-9.0435,0.0341,-0.0797,-0.0073,63
8.272,159,1.1837,0.0737,-19.2745,0.0467,0.0137,-0.3694,93,8.09,156,8.8119,0.9565,-8.9257,0.0757,-0.0321,-0.0082,63
8.323,160,1.1937,-0.008,-19.4227,0.0463,0.0837,-0.3914,93,8.141,157,8.9639,0.7585,-9.1471,0.1522,0.0183,-0.0109,63
8.375,161,1.0826,0.1967,-19.5562,0.0826,0.1445,-0.407,93,8.193,158,9.0676,1.0133,-9.1329,0.3116,0.051,0.0064,63
8.427,162,0.9269,0.4122,-19.7256,0.1377,0.1567,-0.4384,93,8.245,159,8.8948,1.1159,-9.0865,0.4672,0.1239,0.0278,63
8.479,163,0.9222,0.4051,-19.7241,0.079,0.1215,-0.4098,93,8.297,160,8.6258,2.2533,-8.545,0.387,0.1441,0.0697,63
8.53,164,1.0589,0.4577,-19.6716,0.0309,0.0884,-0.3262,93,8.349,161,9.4997,0.9969,-8.7194,-0.2676,-0.104,0.2217,63
8.582,165,1.1623,0.4479,-19.7043,0.0604,0.0811,-0.2257,93,8.4,162,9.7113,0.3135,-9.143,-0.5238,-0.145,0.1985,63
8.634,166,1.2188,0.8756,-19.5623,0.065,0.0712,-0.13,93,8.453,163,9.7196,0.1457,-9.0956,-0.3405,-0.1357,0.0892,63
8.686,167,1.0169,0.7867,-19.7868,0.0272,0.0446,-0.1156,93,8.504,164,9.7991,0.526,-9.1719,-0.2575,-0.1787,0.0339,63
8.738,168,1.2094,0.4533,-19.9228,-0.147,-0.0236,-0.1012,93,8.556,165,9.7688,0.4611,-9.282,-0.2337,-0.1267,0.011,63
8.789,169,1.4215,0.337,-19.9944,-0.1873,-0.1173,-0.149,93,8.608,166,9.4586,0.4037,-9.2165,-0.1152,-0.0266,-0.0105,63
8.841,170,1.3768,0.1244,-19.7537,-0.1623,-0.2068,-0.1529,93,8.66,167,9.1367,0.5678,-9.3374,0.0107,0.1043,-0.0476,63
8.893,171,1.3111,0.0561,-19.5979,-0.1133,-0.2422,-0.0814,93,8.712,168,9.0045,0.6002,-9.1588,0.0475,0.1028,-0.0501,63
8.945,172,1.0515,0.4251,-19.5307,-0.0717,-0.2121,0.0181,93,8.763,169,8.8384,0.9316,-8.9208,0.0708,0.0882,-0.0347,63
8.997,173,1.077,0.7333,-19.6163,-0.0355,-0.2032,0.1174,93,8.815,170,8.7125,1.4413,-8.7605,-0.0782,0.0167,0.0162,63
9.048,174,0.9575,0.6737,-19.671,-0.0279,-0.2032,0.1266,93,8.867,171,9.3593,1.0525,-8.8885,-0.272,-0.057,0.0461,63
9.1,175,0.6872,0.2534,-19.506,-0.1027,-0.2244,0.1216,93,8.919,172,9.3023,0.6918,-8.5321,-0.2677,-0.0594,0.0437,63
9.152,176,0.501,0.3775,-19.2904,-0.0659,-0.2207,0.0847,93,8.971,173,9.04,0.2922,-8.8126,-0.1991,-0.0217,0.0183,63
9.204,177,0.4675,0.7051,-19.455,0.1207,-0.1789,0.0487,93,9.022,174,9.1436,-0.1496,-8.956,0.0588,0.0642,-0.0583,63
9.256,178,0.5891,1.23,-19.7293,0.2444,-0.104,0.0826,93,9.074,175,8.7899,0.9915,-8.4691,0.1643,0.0711,-0.1069,63
9.308,179,0.3988,1.3916,-19.6122,0.0967,-0.053,0.2465,93,9.126,176,8.8452,0.9054,-8.6799,0.0228,0.04,-0.0724,63
9.359,180,0.2375,1.6811,-19.5156,-0.0139,0.0274,0.4178,93,9.178,177,8.7892,1.0384,-8.6975,-0.0987,0.0442,-0.061,63
9.411,181,0.1882,1.8114,-19.6632,-0.0307,0.0708,0.4349,93,9.23,178,8.9141,0.5005,-8.8317,-0.1964,0.0158,-0.0952,63
9.463,182,0.2053,1.3971,-19.6981,-0.1983,0.0507,0.4067,93,9.281,179,9.0216,0.415,-9.0984,-0.1529,0.1075,-0.1432,63
9.515,183,0.2669,1.149,-19.7322,-0.2615,0.0376,0.3303,93,9.333,180,9.1739,0.2781,-9.0085,0.1056,0.2719,-0.1766,63
9.567,184,0.1911,0.854,-19.5904,-0.1326,0.0219,0.1623,93,9.385,181,8.9831,0.951,-8.8135,0.2999,0.2756,-0.1818,63
9.618,185,0.115,0.6274,-19.5254,-0.0567,0.0032,0.0627,93,9.437,182,9.0165,1.0599,-8.6384,0.4519,0.2797,-0.0689,63
9.67,186,0.3461,0.5181,-19.631,-0.0022,-0.0101,0.0265,93,9.489,183,8.7048,1.4285,-8.5019,0.5752,0.2712,0.0138,63
9.722,187,0.3937,0.5204,-19.8456,0.1042,0.0017,-0.0121,93,9.54,184,8.4076,2.107,-8.2116,0.5791,0.2399,0.1304,63
9.774,188,0.4338,0.8519,-19.8457,0.1669,-0.0043,-0.017,93,9.592,185,8.31,1.7831,-8.3237,0.3859,0.2153,0.2184,63
9.826,189,0.4905,0.9635,-19.8722,0.1797,-0.0326,-0.0289,93,9.644,186,8.6032,1.2683,-8.2989,0.3341,0.1589,0.1941,63
9.877,190,0.3694,0.9117,-19.8755,0.0747,-0.0384,-0.0108,93,9.696,187,8.6111,1.4271,-8.1361,0.2967,0.1336,0.149,63
9.929,191,0.39,1.0215,-19.8795,0.0415,-0.041,-0.0334,93,9.747,188,7.5845,2.2675,-8.0102,-0.2126,0.1135,0.0307,63
9.981,192,0.4857,0.9529,-19.8065,-0.0,-0.0457,-0.0432,93,9.799,189,7.9148,1.5918,-8.2083,-0.114,0.0929,-0.0117,63
10.033,193,0.4656,0.89,-19.7119,-0.0447,-0.0292,-0.0334,93,9.851,190,8.078,1.4482,-8.1291,-0.0185,0.0753,-0.0217,63
10.084,194,0.3727,0.771,-19.6757,-0.0261,-0.0143,-0.0355,93,9.903,191,8.3143,1.2958,-8.0971,-0.1278,0.0564,-0.0295,63
10.136,195,0.3001,0.7085,-19.6591,-0.0027,-0.0014,-0.0458,93,9.955,192,8.2989,1.157,-7.9641,-0.0982,0.0656,-0.0284,63
10.188,196,0.1931,0.6846,-19.6057,0.0159,0.0114,-0.0555,93,10.007,193,8.4684,0.9756,-7.97,0.0144,0.115,-0.0228,63
10.24,197,0.0975,0.7323,-19.571,0.0944,0.0077,-0.0846,93,10.058,194,8.5913,1.0297,-7.9645,0.091,0.121,-0.0074,63
10.292,198,0.0806,0.7813,-19.6431,0.0992,-0.0183,-0.0927,93,10.11,195,8.5677,1.0834,-7.8457,0.1525,0.1049,0.0265,63
10.343,199,0.1891,0.6677,-19.7966,0.0517,-0.063,-0.0821,93,10.162,196,8.6138,1.0681,-7.7994,0.241,0.0725,0.0527,63
10.395,200,0.3129,0.5535,-19.8235,0.016,-0.0863,-0.0665,93,10.213,197,8.6151,1.1915,-7.7746,0.3244,0.0653,0.0759,63
10.447,201,0.3197,0.5727,-19.6593,0.0368,-0.0757,-0.0518,93,10.265,198,8.6022,1.2882,-7.6832,0.3504,0.0586,0.0958,63
10.499,202,0.3418,0.5684,-19.5568,0.035,-0.0474,-0.0191,93,10.317,199,8.6755,1.2558,-7.7181,0.3499,0.0437,0.1082,63
10.551,203,0.3011,0.5563,-19.6279,0.0496,-0.011,-0.0013,93,10.369,200,8.6253,1.4751,-7.669,0.2654,0.0456,0.0921,63
10.602,204,0.2919,0.5126,-19.7178,0.0602,0.0135,0.0036,93,10.421,201,8.6374,1.2472,-7.7174,0.1081,0.0337,0.0785,63
10.654,205,0.2462,0.6059,-19.7191,0.081,0.0262,-0.0134,93,10.472,202,8.3916,1.2305,-7.8309,-0.1662,-0.0026,0.0204,63
10.706,206,0.2607,0.6532,-19.682,0.0686,0.0279,-0.0327,93,10.524,203,8.5102,1.1778,-7.8778,-0.1533,-0.0099,-0.0067,63
10.758,207,0.2123,0.4724,-19.7359,0.0257,0.0258,-0.0458,93,10.576,204,8.5235,1.3625,-7.7263,-0.163,-0.0033,-0.0271,63
10.809,208,0.217,0.4161,-19.778,0.0163,0.0262,-0.0399,93,10.628,205,8.6409,1.1939,-7.9212,-0.2166,-0.0254,-0.041,63
10.861,209,0.2056,0.4975,-19.7915,0.0531,0.0278,-0.0381,93,10.679,206,8.5953,1.2533,-7.8626,-0.2175,-0.0238,-0.0522,63
10.913,210,0.192,0.6145,-19.815,0.0432,0.0245,-0.0277,93,10.731,207,8.6464,1.0947,-7.8988,-0.1928,-0.0227,-0.0515,63
10.965,211,0.1789,0.5993,-19.7881,0.0069,0.008,-0.0147,93,10.783,208,8.6572,1.1315,-7.8353,-0.1481,-0.0124,-0.0464,63
11.017,212,0.1777,0.5346,-19.7592,-0.015,-0.0049,-0.0195,93,10.835,209,8.5642,1.2917,-7.7026,-0.1252,-0.0165,-0.0473,63
11.068,213,0.2648,0.5071,-19.7042,-0.0103,-0.0194,-0.0264,93,10.887,210,8.6247,0.9389,-7.8817,-0.24,-0.0758,-0.0734,63
11.12,214,0.2606,0.4606,-19.6865,-0.0047,-0.0191,-0.0314,93,10.938,211,8.7647,0.9635,-7.9028,-0.1941,-0.0563,-0.0717,63
11.172,215,0.2755,0.3923,-19.7084,-0.0038,-0.0112,-0.02,93,10.99,212,8.759,1.013,-7.8832,-0.1215,-0.0523,-0.0573,63
11.224,216,0.3899,0.4436,-19.7633,0.0199,-0.0059,-0.0067,93,11.042,213,8.7838,1.1004,-7.9331,-0.0486,-0.0377,-0.0378,63
11.276,217,0.4388,0.5276,-19.7902,0.0256,-0.0012,-0.0054,93,11.094,214,8.7843,1.0786,-7.8871,-0.0375,-0.0132,-0.0193,63
11.327,218,0.4528,0.5692,-19.764,0.0001,0.0113,-0.0059,93,11.145,215,8.7591,1.143,-7.8865,-0.0394,-0.0085,-0.0147,63
11.379,219,0.4024,0.5926,-19.742,-0.0087,0.0271,-0.0171,93,11.197,216,8.743,1.1639,-7.8573,-0.0477,-0.0033,-0.0089,63
11.431,220,0.3464,0.5814,-19.7231,-0.0157,0.0327,-0.0282,93,11.249,217,8.7487,1.1671,-7.8255,-0.1081,-0.0144,-0.0251,63
11.483,221,0.2647,0.5595,-19.7146,-0.0251,0.0328,-0.0383,93,11.301,218,8.7469,1.1108,-7.8787,-0.1197,-0.014,-0.0354,63
11.534,222,0.2286,0.5464,-19.7476,-0.0114,0.0231,-0.055,93,11.353,219,8.8762,1.0791,-7.8028,-0.1157,0.0372,-0.036,63
11.586,223,0.2319,0.5474,-19.7615,0.0071,0.0026,-0.071,93,11.404,220,8.8318,1.0879,-7.782,-0.0759,0.0544,-0.0281,63
11.638,224,0.2603,0.544,-19.7395,-0.0068,-0.0161,-0.0633,93,11.456,221,8.861,1.0443,-7.8206,-0.0379,0.0435,-0.0194,63
11.69,225,0.265,0.4955,-19.7204,-0.0087,-0.0218,-0.051,93,11.508,222,8.7644,1.0848,-7.7849,0.0003,0.0362,-0.009,63
11.742,226,0.2607,0.4897,-19.7321,-0.0003,-0.0202,-0.03,93,11.56,223,8.7583,1.079,-7.768,0.0326,0.0209,0.0077,63
11.793,227,0.3634,0.529,-19.7182,0.0087,-0.0207,-0.0097,93,11.612,224,8.8079,1.0674,-7.7753,0.0657,0.015,0.0208,63
11.845,228,0.3604,0.5726,-19.7163,0.016,-0.0139,0.0054,93,11.663,225,8.7733,1.0957,-7.7713,0.1002,0.0173,0.0282,63
11.897,229,0.325,0.5822,-19.7046,0.0188,-0.0094,0.0072,93,11.715,226,8.7246,1.1571,-7.7257,0.0977,0.0169,0.0312,63
11.949,230,0.2599,0.5471,-19.647,0.0245,-0.0097,0.0079,93,11.767,227,8.8448,1.0288,-7.7532,0.0822,0.0014,0.0314,63
12.001,231,0.2064,0.4217,-19.6702,0.0251,-0.0048,0.0155,93,11.819,228,8.791,1.0233,-7.7328,0.0596,-0.0011,0.0234,63
12.053,232,0.224,0.3943,-19.7709,0.0537,-0.0011,0.0233,93,11.87,229,8.8041,1.0113,-7.7514,0.0443,-0.0022,0.0195,63
12.104,233,0.3614,0.5165,-19.7758,0.0623,-0.0034,0.0325,93,11.922,230,8.7878,1.0485,-7.7346,0.0425,-0.0035,0.0175,63
12.156,234,0.3614,0.5272,-19.7148,0.0246,-0.0059,0.0445,93,11.974,231,8.8086,1.0994,-7.7604,0.0412,-0.0129,0.0182,63
12.208,235,0.3293,0.458,-19.6652,0.0174,0.0109,0.0432,93,12.026,232,8.7684,1.0984,-7.752,0.0378,-0.0311,0.0208,63
12.26,236,0.3394,0.4568,-19.6975,0.0404,0.0309,0.0301,93,12.078,233,8.665,1.2446,-7.6825,0.0056,-0.0414,0.016,63
12.311,237,0.3189,0.5155,-19.7561,0.0405,0.0396,0.0159,93,12.129,234,8.9582,0.8944,-7.8868,-0.1181,-0.0883,-0.0088,63
12.363,238,0.3236,0.54,-19.7503,0.0156,0.0511,-0.0031,93,12.181,235,8.8901,0.9748,-7.9139,-0.1384,-0.0663,-0.018,63
12.415,239,0.4259,0.511,-19.6804,0.0122,0.0667,-0.0688,93,12.233,236,8.817,1.047,-7.8644,-0.1568,-0.0371,-0.0143,63
12.467,240,0.548,0.4215,-19.6603,0.0067,0.0784,-0.1425,93,12.285,237,8.8399,0.9933,-7.8853,-0.1971,-0.005,-0.026,63
12.519,241,0.543,0.2581,-19.5538,-0.0228,0.0857,-0.1651,93,12.337,238,8.8092,0.9836,-7.9097,-0.1617,-0.0033,-0.0289,63
12.57,242,0.4726,0.1007,-19.5144,-0.0168,0.0858,-0.1578,93,12.388,239,8.7933,0.998,-7.8941,-0.1145,0.0029,-0.0225,63
12.622,243,0.5334,0.3038,-19.6908,0.1288,0.0828,-0.1584,93,12.44,240,8.7815,1.0647,-7.9063,-0.0725,-0.0048,-0.0111,63
12.674,244,0.4996,0.6719,-19.9369,0.1908,0.0823,-0.1592,93,12.492,241,8.7355,1.1215,-7.8669,-0.093,-0.008,-0.0023,63
12.725,245,0.4771,0.8109,-20.0144,0.0901,0.0415,-0.1133,93,12.543,242,8.7138,1.1819,-7.8231,-0.2423,-0.0371,-0.0003,63
12.777,246,0.4684,0.7396,-19.9503,-0.0357,-0.0101,-0.0984,93,12.595,243,8.778,1.015,-7.8264,-0.3174,-0.0746,-0.0241,63
12.829,247,0.3761,0.5345,-19.7585,-0.0728,-0.0456,-0.1223,93,12.647,244,8.8019,0.8133,-7.9962,-0.3116,-0.0658,-0.0319,63
12.881,248,0.3544,0.2956,-19.5679,-0.0648,-0.0591,-0.1328,93,12.699,245,8.8626,0.6737,-7.9697,-0.1767,-0.0343,-0.0413,63
12.933,249,0.4479,0.1174,-19.5552,-0.0203,-0.0383,-0.1269,93,12.751,246,8.9314,0.5249,-8.0124,0.119,0.0198,-0.0383,63
12.984,250,0.6473,0.109,-19.5687,0.0294,-0.0003,-0.1065,93,12.802,247,8.7742,0.8323,-7.8884,0.1552,0.0417,-0.0252,63
13.036,251,0.8217,0.2338,-19.6129,0.0775,0.0415,-0.0927,93,12.854,248,8.7622,0.9515,-7.9046,0.1296,0.0446,-0.0101,63
13.088,252,0.8637,0.2643,-19.61,0.0775,0.0813,-0.11,93,12.906,249,8.6881,1.0224,-7.8107,0.1282,0.0387,0.0277,63
13.14,253,0.9006,0.2947,-19.5336,0.1008,0.1197,-0.1984,93,12.958,250,8.6448,1.06,-7.8016,0.1433,0.0331,0.0533,63
13.192,254,0.8052,0.3107,-19.504,0.1439,0.1727,-0.2876,93,13.01,251,8.5791,1.166,-7.8285,0.0682,0.0288,0.0589,63
13.243,255,0.6549,0.3432,-19.5916,0.0656,0.2181,-0.2845,93,13.061,252,8.5386,1.2019,-7.8484,-0.0451,0.0151,0.0388,63
13.295,256,0.7774,0.4125,-19.8313,0.0543,0.198,-0.3252,93,13.113,253,8.6535,1.1811,-7.8468,-0.1462,-0.033,0.0177,63
13.347,257,0.8513,0.326,-19.8407,0.0406,0.1261,-0.374,93,13.165,254,8.715,1.0189,-7.8572,-0.2107,-0.0579,-0.0108,63
13.399,258,1.1397,0.2781,-19.8123,0.0751,0.063,-0.3921,93,13.217,255,8.7424,0.982,-7.9511,-0.2222,-0.0542,-0.0323,63
13.451,259,1.2426,0.3539,-19.7053,0.0959,0.0585,-0.3687,93,13.268,256,8.7741,0.9071,-7.969,-0.2158,-0.0361,-0.0496,63
13.502,260,1.1554,0.4282,-19.5409,-0.0001,0.0946,-0.2288,93,13.32,257,8.774,0.8398,-7.9821,-0.1978,-0.0272,-0.0713,63
13.554,261,1.0324,0.3732,-19.3434,-0.115,0.1173,-0.1158,93,13.372,258,8.8053,0.9151,-8.0546,-0.1489,-0.0063,-0.078,63
13.606,262,0.988,0.1567,-19.3866,-0.1224,0.1433,-0.0757,93,13.424,259,8.8037,0.9653,-8.0023,-0.0981,0.0324,-0.0587,63
13.658,263,1.2287,0.0862,-19.6374,-0.113,0.1413,-0.0661,93,13.476,260,8.7867,0.948,-7.8369,-0.0501,0.0483,-0.048,63
13.71,264,1.5043,0.1589,-19.8055,-0.0524,0.1178,-0.0298,93,13.527,261,8.7883,0.5328,-7.8054,0.1013,0.0709,-0.0494,63
13.761,265,1.5403,0.4215,-19.8364,-0.0137,0.1144,0.0458,93,13.579,262,8.7639,0.7056,-7.6869,0.0662,0.0835,-0.0481,63
13.813,266,1.4896,0.6577,-19.8695,-0.0806,0.1045,0.1556,93,13.631,263,8.7163,0.836,-7.673,0.0213,0.0472,-0.0525,63
13.865,267,1.4247,0.7451,-19.8487,-0.1671,0.0572,0.2204,93,13.683,264,8.7198,0.9482,-7.6994,-0.0055,0.0053,-0.0341,63
13.917,268,1.3706,0.5434,-19.7755,-0.1568,-0.0015,0.1695,93,13.734,265,8.7525,0.9043,-7.8229,0.0058,-0.0087,-0.013,63
13.969,269,1.4416,0.4164,-19.7303,-0.1016,-0.0466,0.091,93,13.786,266,8.6927,0.9112,-7.7234,0.0415,-0.0136,-0.007,63
14.02,270,1.7018,0.4846,-19.6658,-0.0482,-0.0722,0.0893,93,13.838,267,8.7485,0.794,-7.8162,0.1042,-0.0378,-0.0222,63
14.072,271,1.8449,0.7077,-19.5491,0.012,-0.0499,0.1169,93,13.89,268,8.6613,1.023,-7.7216,0.0922,-0.0321,-0.023,63
14.124,272,1.6696,0.8529,-19.3999,0.0117,0.0135,0.1785,93,13.942,269,8.6881,1.0947,-7.7888,0.0543,-0.0418,-0.0198,63
14.176,273,1.6073,0.9094,-19.4415,-0.0626,0.0597,0.2238,93,13.993,270,8.7322,1.1258,-7.8417,0.0068,-0.0487,-0.0077,63
14.227,274,1.49,0.6893,-19.6128,-0.0809,0.0619,0.1732,93,14.045,271,8.7095,1.218,-7.8941,-0.0045,-0.0348,-0.0066,63
14.279,275,1.5358,0.5461,-19.6943,-0.0614,0.0383,0.1113,93,14.097,272,8.7503,1.1412,-7.8653,-0.0184,-0.0205,-0.0159,63
14.331,276,1.551,0.5367,-19.6334,0.0154,0.0202,0.0718,93,14.149,273,8.78,0.9369,-7.9084,0.0352,0.0039,-0.0199,63
14.383,277,1.6025,0.8055,-19.578,0.0655,0.0238,0.0937,93,14.201,274,8.7085,1.1946,-7.8713,0.1005,0.0446,-0.0179,63
14.435,278,1.5903,1.0217,-19.6527,0.0613,0.0324,0.1289,93,14.252,275,8.5939,1.3655,-7.7386,0.0816,0.0534,-0.0065,63
14.486,279,1.589,1.0825,-19.6737,-0.0416,0.0152,0.1742,93,14.304,276,8.5955,1.3939,-7.7687,0.0216,0.0197,0.0065,63
14.538,280,1.5728,0.8843,-19.6277,-0.0917,-0.0107,0.1865,93,14.356,277,8.6804,1.266,-7.809,-0.0088,-0.0124,0.0125,63
14.59,281,1.5258,0.6512,-19.5512,-0.0754,-0.0383,0.1621,93,14.408,278,8.7748,1.1172,-7.8663,0.0184,-0.0016,0.0096,63
14.642,282,1.5188,0.4108,-19.5264,-0.0699,-0.0489,0.1419,93,14.459,279,8.8324,1.1604,-7.8705,0.1065,0.0184,0.0116,63
14.694,283,1.5187,0.3665,-19.4594,-0.0121,-0.0383,0.1316,93,14.511,280,8.8824,1.1642,-7.9197,0.1926,0.0657,0.0242,63
14.745,284,1.5453,0.407,-19.3969,0.0283,-0.0423,0.1604,93,14.563,281,8.7262,1.3025,-7.8092,0.2431,0.0749,0.0461,63
14.797,285,1.6917,0.3134,-19.4438,-0.0047,-0.0412,0.2363,93,14.615,282,8.6786,1.3785,-7.7382,0.2623,0.062,0.0781,63
14.849,286,1.8228,0.2421,-19.5572,-0.027,-0.029,0.3028,93,14.667,283,8.6455,1.3082,-7.6721,0.2274,0.03,0.101,63
14.901,287,1.8043,0.4523,-19.587,0.0556,-0.0008,0.2921,93,14.718,284,8.5804,1.3592,-7.6745,0.1439,0.0156,0.0904,63
14.953,288,1.6545,0.8111,-19.6551,0.1291,0.021,0.2188,93,14.77,285,8.6281,1.2307,-7.7043,0.1146,0.0178,0.0794,63
15.004,289,1.4742,0.9288,-19.685,0.0787,0.0124,0.1276,93,14.822,286,8.5963,1.2967,-7.6621,0.0834,0.0088,0.0644,63
15.056,290,1.4322,0.8307,-19.6492,-0.0148,-0.0089,0.0404,93,14.873,287,8.4414,1.569,-7.5351,-0.0308,0.001,0.0376,63
15.108,291,1.5069,0.6925,-19.5795,-0.0481,-0.0258,-0.0542,93,14.925,288,8.6671,1.1766,-7.7445,-0.3212,-0.0575,-0.0165,63
15.16,292,1.6446,0.45,-19.5574,-0.0258,-0.0327,-0.1206,93,14.977,289,8.6978,1.1542,-7.7417,-0.2704,-0.0502,-0.05,63
15.211,293,1.6781,0.281,-19.5464,0.0019,-0.0209,-0.1308,93,15.029,290,8.7206,1.0759,-7.8279,-0.0964,-0.0037,-0.0419,63
15.263,294,1.692,0.3241,-19.5216,0.0564,-0.001,-0.1199,93,15.081,291,8.6517,1.3046,-7.7969,0.024,0.0224,-0.0236,63
15.315,295,1.7147,0.5074,-19.4508,0.0897,0.023,-0.0973,93,15.132,292,8.6678,1.1919,-7.7727,0.0769,0.0495,0.0086,63
15.367,296,1.685,0.3888,-19.4673,0.0824,0.0244,-0.092,93,15.184,293,8.6221,1.2223,-7.7487,0.1318,0.0545,0.0303,63
15.419,297,1.7672,0.1001,-19.417,0.0755,0.0361,-0.0737,93,15.236,294,8.6097,1.2065,-7.7127,0.1465,0.0618,0.046,63
15.47,298,1.7995,0.07,-19.4651,0.1787,0.0545,-0.0957,93,15.288,295,8.6943,1.0567,-7.7377,0.1217,0.0446,0.05,63
15.522,299,1.7485,0.0234,-19.5034,0.3073,0.0638,-0.1446,93,15.339,296,8.7385,1.041,-7.7555,0.1451,0.0566,0.0509,63
15.574,300,1.7278,0.2049,-19.5591,0.3583,0.061,-0.1834,93,15.391,297,8.7428,1.0542,-7.7452,0.1528,0.066,0.0595,63
15.626,301,1.6536,0.099,-19.6241,0.2858,0.0422,-0.1833,93,15.443,298,8.6432,1.1562,-7.6326,0.1611,0.0546,0.0683,63
15.678,302,1.5917,-0.1791,-19.6093,0.1644,0.0225,-0.1431,93,15.495,299,8.3527,1.5476,-7.3976,0.0265,0.0166,0.052,63
15.729,303,1.6293,-0.284,-19.5867,0.0949,0.0073,-0.0837,93,15.547,300,8.4716,1.238,-7.4171,-0.142,-0.0567,0.0174,63
15.781,304,1.6507,-0.2748,-19.6148,0.0947,-0.0056,-0.0359,93,15.598,301,8.4984,1.3633,-7.5769,-0.1985,-0.096,-0.0255,63
15.833,305,1.6615,-0.2844,-19.5943,0.0554,-0.0201,0.018,93,15.65,302,8.6812,1.0232,-7.7714,-0.2876,-0.0968,-0.0523,63
