right_leg_timestamp,right_leg_index,right_leg_accel_x,right_leg_accel_y,right_leg_accel_z,right_leg_gyro_x,right_leg_gyro_y,right_leg_gyro_z,right_leg_battery_percentage,left_leg_timestamp,left_leg_index,left_leg_accel_x,left_leg_accel_y,left_leg_accel_z,left_leg_gyro_x,left_leg_gyro_y,left_leg_gyro_z,left_leg_battery_percentage
0.005,0,9.0507,-2.5028,-11.7135,-0.0024,0.1375,0.1128,88,0.055,1,8.9398,0.2574,-9.6501,-0.0319,-0.1998,0.0031,52
0.057,1,9.0762,-2.5098,-11.6877,0.0019,0.0871,0.0767,88,0.107,2,9.0032,0.2258,-9.7905,-0.0175,-0.3259,-0.0307,52
0.109,2,9.0991,-2.511,-11.6657,-0.0098,0.0601,0.0552,88,0.158,3,8.9912,0.2636,-9.9593,-0.0397,-0.4362,-0.0628,52
0.161,3,9.117,-2.5047,-11.6761,-0.0288,0.0449,0.0501,88,0.21,4,8.9162,0.3435,-10.5297,-0.0624,-0.4461,-0.0857,52
0.212,4,9.1564,-2.5043,-11.6636,-0.0394,0.0282,0.0618,88,0.262,5,8.9199,0.4555,-10.7142,-0.1521,-0.3027,-0.0549,52
0.264,5,9.1505,-2.5267,-11.6368,-0.0429,-0.0045,0.0801,88,0.314,6,8.9851,0.3364,-10.7519,-0.1468,-0.1804,-0.0529,52
0.316,6,9.149,-2.5719,-11.6894,-0.0564,-0.0371,0.0668,88,0.365,7,8.9398,0.7428,-10.7183,-0.1589,-0.0991,-0.0492,52
0.368,7,9.1667,-2.627,-11.7684,-0.137,-0.0214,0.0473,88,0.417,8,9.148,0.5564,-10.6331,-0.1411,-0.0614,-0.0513,52
0.42,8,9.1385,-2.6707,-11.8173,-0.2122,0.0161,0.0214,88,0.469,9,9.1062,0.71,-10.729,-0.12,-0.0702,-0.0353,52
0.471,9,9.0914,-2.7242,-11.7782,-0.2508,0.0221,-0.012,88,0.521,10,9.0896,0.7995,-10.812,-0.1233,-0.06,-0.0137,52
0.523,10,9.039,-2.7667,-11.6906,-0.3298,0.0097,-0.0899,88,0.573,11,9.0792,0.6562,-10.8176,-0.1512,-0.0456,-0.0006,52
0.575,11,9.1966,-2.9006,-11.3696,-0.3354,-0.156,-0.2748,88,0.624,12,9.0594,0.6267,-10.7585,-0.141,-0.0241,-0.0281,52
0.626,12,10.8687,-3.5337,-11.2536,-0.6222,-0.5852,-0.5803,88,0.676,13,9.032,0.6783,-10.7061,-0.1525,-0.0366,-0.0305,52
0.678,13,12.0349,-2.5821,-12.1166,-0.741,-0.8038,-0.8109,88,0.728,14,8.9955,0.6957,-10.7101,-0.1407,-0.0562,-0.0326,52
0.73,14,12.0682,-2.3174,-14.2053,-0.6964,-1.1285,-0.8682,88,0.78,15,8.954,0.6882,-10.6582,-0.1412,-0.099,-0.014,52
0.782,15,11.5327,-1.4788,-14.8846,-1.1833,-1.1785,-0.7824,88,0.831,16,8.9208,0.6919,-10.7413,-0.1392,-0.1275,-0.004,52
0.834,16,10.4252,-0.8835,-14.8799,-0.6205,-1.1815,-0.7658,88,0.883,17,8.9019,0.6399,-10.8837,-0.1225,-0.132,-0.0033,52
0.886,17,9.6084,-0.1158,-14.9231,-0.3121,-0.9926,-0.5206,88,0.935,18,8.9046,0.6525,-11.0454,-0.0899,-0.1118,-0.0027,52
0.937,18,8.222,0.1235,-14.6253,-0.2408,-0.6389,-0.1785,88,0.987,19,8.9277,0.6079,-11.0612,-0.0754,-0.0772,-0.0013,52
0.989,19,6.6195,1.1858,-14.0937,-0.1396,-0.3206,0.1307,88,1.039,20,8.9243,0.6655,-11.0457,-0.0482,-0.0552,-0.015,52
1.041,20,5.3128,1.3127,-14.3372,-0.0166,-0.0426,0.3451,88,1.09,21,8.89,0.7421,-11.1136,-0.0444,-0.0436,0.0101,52
1.093,21,4.7737,1.3296,-14.0971,-0.3306,0.1207,0.4401,88,1.142,22,8.9139,0.6846,-11.1483,-0.0447,-0.0202,0.0227,52
1.144,22,4.7959,1.2939,-14.0033,-0.5232,0.1723,0.3328,88,1.194,23,8.914,0.6497,-11.1684,-0.1005,0.0271,0.0267,52
1.196,23,5.2812,1.2642,-14.4003,-0.6238,0.1362,0.1228,88,1.246,24,8.9354,0.4602,-11.1681,-0.1194,0.0948,-0.0514,52
1.248,24,5.9549,1.1393,-14.8743,-0.6631,0.0719,-0.0527,88,1.298,25,8.8634,0.7069,-11.0405,-0.1302,0.1178,-0.0868,52
1.3,25,6.628,1.2456,-15.1464,-0.5933,-0.0276,-0.1753,88,1.35,26,8.8579,0.4905,-10.9852,-0.1116,0.1221,-0.1119,52
1.352,26,7.1139,1.4245,-15.1837,-0.4983,-0.0852,-0.2694,88,1.401,27,8.8752,0.7796,-10.9479,-0.0725,0.1598,-0.123,52
1.404,27,7.3537,1.5674,-15.212,-0.3898,-0.1165,-0.3395,88,1.453,28,9.0815,0.8881,-10.5949,-0.0148,0.2184,-0.1286,52
1.455,28,7.6077,1.6673,-15.3273,-0.3562,-0.1274,-0.3196,88,1.505,29,9.062,0.8409,-10.5428,0.0061,0.2469,-0.1234,52
1.507,29,8.0563,1.6489,-15.3918,-0.4599,-0.1414,-0.1767,88,1.557,30,8.9958,0.6436,-10.4654,0.0447,0.2531,-0.1355,52
1.559,30,8.7386,1.6996,-15.4174,-0.5956,-0.1508,-0.0255,88,1.609,31,8.9042,1.112,-10.2067,0.2233,0.1809,-0.1722,52
1.611,31,8.842,1.7281,-15.2606,-0.4622,-0.0241,-0.0331,88,1.66,32,8.9448,1.2686,-10.2937,0.2155,0.0782,-0.1436,52
1.662,32,8.2999,1.7552,-14.9685,-0.3221,0.1071,-0.0779,88,1.712,33,8.975,1.3229,-10.3503,0.2382,0.0308,-0.0992,52
1.714,33,7.7853,1.8716,-14.8249,-0.1839,0.1438,-0.0908,88,1.764,34,8.9474,1.2962,-10.3979,0.2255,-0.0013,-0.0677,52
1.766,34,7.5984,2.0702,-14.8398,0.0326,0.1371,-0.1073,88,1.816,35,8.9501,1.357,-10.4504,0.129,-0.0292,-0.0533,52
1.818,35,7.6209,2.3366,-15.1241,0.0687,0.0935,-0.0703,88,1.867,36,9.0216,1.1584,-10.4405,0.1363,-0.0427,-0.0687,52
1.87,36,7.6692,2.6099,-15.3896,-0.0128,0.0821,-0.0158,88,1.919,37,9.0137,1.2378,-10.4912,0.2302,-0.0363,-0.0838,52
1.921,37,7.6068,2.6394,-15.0571,-0.2845,0.0454,0.0048,88,1.971,38,8.8524,1.5084,-10.5675,0.2854,-0.0307,-0.0669,52
1.973,38,7.7442,2.9038,-14.7434,-0.2197,-0.1072,-0.1013,88,2.023,39,8.874,1.3642,-10.6791,0.2454,-0.0115,-0.024,52
2.025,39,8.266,3.0999,-14.7402,-0.1525,-0.1465,-0.1836,88,2.075,40,8.9183,1.3027,-10.7318,0.263,0.0218,-0.0081,52
2.077,40,8.492,3.1515,-14.6836,-0.1231,-0.0676,-0.2211,88,2.126,41,8.9322,1.3263,-10.6542,0.287,0.0728,-0.0064,52
2.129,41,8.4373,2.9973,-14.6623,-0.0633,0.0162,-0.2661,88,2.178,42,8.8873,1.3648,-10.5804,0.2847,0.0953,-0.0134,52
2.18,42,8.1562,2.8309,-14.7426,0.1067,0.0992,-0.3119,88,2.23,43,8.923,1.2874,-10.5872,0.2766,0.097,-0.0164,52
2.232,43,7.8472,2.6954,-14.863,0.1664,0.1895,-0.2683,88,2.282,44,9.017,1.0627,-10.627,0.3614,0.1107,-0.03,52
2.284,44,7.5145,2.7372,-15.0397,0.3471,0.2411,-0.1774,88,2.334,45,8.9293,1.2154,-10.5639,0.437,0.1252,-0.0363,52
2.336,45,7.4821,3.0382,-15.2249,0.3947,0.2519,-0.0957,88,2.385,46,8.7586,1.5971,-10.4309,0.4309,0.1242,-0.03,52
2.387,46,7.5488,3.1358,-15.1639,0.3976,0.2411,-0.0723,88,2.437,47,8.7215,1.7645,-10.3037,0.3626,0.1174,0.0074,52
2.439,47,7.5336,3.168,-15.2012,0.3615,0.1912,-0.0777,88,2.489,48,8.6767,1.9961,-10.3166,0.2787,0.1085,0.0538,52
2.491,48,7.6402,3.148,-15.1548,0.3088,0.1213,-0.078,88,2.541,49,8.7556,1.8004,-10.1016,0.196,0.117,0.1018,52
2.543,49,7.7906,3.0711,-15.0245,0.2759,0.047,-0.0697,88,2.593,50,8.5827,2.2559,-9.9263,0.0871,0.0865,0.1161,52
2.595,50,7.8355,2.9366,-14.9346,0.2644,-0.0189,-0.0444,88,2.644,51,8.809,1.464,-9.8905,-0.0623,0.0306,0.1571,52
2.646,51,7.8101,2.8353,-14.8468,0.2709,-0.0522,0.0139,88,2.696,52,8.9105,0.6849,-10.1945,-0.2828,-0.0616,0.1386,52
2.698,52,7.8273,2.9251,-14.7714,0.2401,-0.0446,0.0885,88,2.748,53,8.964,0.8109,-10.4135,-0.2525,-0.1029,0.0741,52
2.75,53,7.8526,3.0139,-14.7671,0.236,-0.024,0.1281,88,2.8,54,8.6964,1.7636,-10.1903,-0.4517,-0.1353,0.0775,52
2.802,54,7.8737,2.9553,-14.9096,0.2299,-0.0181,0.0972,88,2.852,55,8.9004,1.0581,-10.3312,-0.477,-0.2055,0.0644,52
2.854,55,7.8338,2.8313,-15.081,0.1602,-0.0075,0.0531,88,2.904,56,9.0353,0.8367,-10.5387,-0.4255,-0.2322,0.0144,52
2.906,56,7.8326,2.6093,-15.2098,0.0522,-0.015,0.018,88,2.955,57,9.0632,0.7289,-10.6653,-0.2875,-0.1937,-0.0413,52
2.957,57,7.8166,2.4098,-15.1915,-0.0148,-0.0288,0.0067,88,3.007,58,9.0742,0.8095,-10.7818,-0.144,-0.133,-0.0847,52
3.009,58,7.7984,2.2106,-15.1791,-0.0656,-0.0571,0.0468,88,3.059,59,8.9903,1.0455,-10.7887,0.0351,-0.078,-0.1133,52
3.061,59,7.811,2.085,-15.1664,-0.1424,-0.1031,0.1457,88,3.111,60,8.8388,1.386,-10.6092,0.0937,-0.059,-0.089,52
3.113,60,7.7601,2.0179,-15.1941,-0.1943,-0.1437,0.2557,88,3.162,61,8.7031,1.5516,-10.6126,-0.1319,-0.0984,0.0094,52
3.165,61,7.7565,2.0414,-15.1761,-0.2026,-0.1425,0.3114,88,3.214,62,8.777,1.3814,-10.8983,-0.1682,-0.1624,0.0466,52
3.216,62,7.9569,2.1157,-15.2443,-0.2266,-0.1584,0.3391,88,3.266,63,8.8611,1.3351,-10.948,-0.1771,-0.1879,0.0526,52
3.268,63,8.247,2.1539,-15.3303,-0.1846,-0.1365,0.2816,88,3.318,64,8.8968,1.0295,-11.0502,-0.1058,-0.1328,0.0161,52
3.32,64,8.254,2.134,-15.3501,-0.129,-0.089,0.1926,88,3.37,65,8.8647,1.2807,-11.0697,0.0718,-0.0686,-0.0583,52
3.372,65,8.0226,2.0996,-15.2701,-0.1132,-0.0576,0.121,88,3.421,66,8.8453,1.2899,-11.0175,0.107,-0.0426,-0.0618,52
3.423,66,7.7173,2.0756,-15.2258,-0.0722,-0.0464,0.0618,88,3.473,67,8.7828,1.4252,-10.971,0.0886,-0.0664,-0.0384,52
3.475,67,7.5203,2.0381,-15.2053,-0.047,-0.031,0.0165,88,3.525,68,8.6909,1.5193,-11.1528,0.0042,-0.0847,0.0232,52
3.527,68,7.523,1.9828,-15.247,0.0297,-0.0243,-0.0203,88,3.577,69,8.6803,1.3236,-11.2107,-0.0327,-0.1104,0.0549,52
3.579,69,7.6231,2.002,-15.415,0.0358,-0.0192,-0.0128,88,3.628,70,8.6367,1.277,-11.2143,-0.0658,-0.1179,0.0712,52
3.631,70,7.8505,2.0296,-15.5575,0.0334,-0.0312,-0.0023,88,3.68,71,8.6889,1.1417,-11.327,-0.0903,-0.1168,0.0712,52
3.682,71,8.015,2.1024,-15.5587,0.0942,-0.0591,-0.019,88,3.732,72,8.8031,0.9084,-11.3632,-0.0233,-0.0824,0.0335,52
3.734,72,7.9662,2.0874,-15.4112,0.0844,-0.0752,-0.0223,88,3.784,73,8.8278,1.0865,-11.3993,0.0422,-0.0305,-0.0131,52
3.786,73,7.7922,1.9875,-15.3419,0.2281,-0.1004,-0.0427,88,3.836,74,8.7988,1.1074,-11.4347,0.0344,-0.0239,0.0021,52
3.838,74,7.801,2.0757,-15.3799,0.1727,-0.0539,-0.0026,88,3.887,75,8.7867,1.1592,-11.449,0.0208,-0.0537,0.0241,52
3.889,75,7.7597,2.133,-15.5761,0.0929,0.0365,0.021,88,3.939,76,8.8266,1.159,-11.3639,0.0127,-0.099,0.0434,52
3.941,76,7.705,2.1674,-15.6614,-0.0642,0.1001,0.0241,88,3.991,77,8.8067,1.1424,-11.3818,-0.0144,-0.1048,0.06,52
3.993,77,7.5856,2.0599,-15.6059,0.05,0.0527,-0.0337,88,4.042,78,8.7769,1.0422,-11.4378,-0.0697,-0.0979,0.07,52
4.045,78,7.6492,2.0344,-15.6281,0.0956,-0.0051,-0.0447,88,4.094,79,8.8236,0.9981,-11.4935,-0.0777,-0.0826,0.0526,52
4.097,79,7.7981,1.9577,-15.5931,0.0048,-0.0175,-0.0076,88,4.146,80,8.8411,0.9694,-11.5127,-0.0795,-0.053,0.0413,52
4.149,80,7.7901,1.8856,-15.5401,-0.0113,-0.0201,0.0162,88,4.198,81,8.8334,0.9529,-11.5517,-0.0891,-0.0243,0.0407,52
4.2,81,7.7275,1.8835,-15.4723,-0.0019,-0.0196,0.0329,88,4.25,82,8.8165,0.9398,-11.5102,-0.0965,0.0052,0.0358,52
4.252,82,7.7176,1.9278,-15.4233,0.0219,-0.0115,0.0289,88,4.302,83,8.7815,0.9347,-11.4833,-0.0899,0.0091,0.0307,52
4.304,83,7.7026,1.9529,-15.4261,0.0358,-0.002,0.0169,88,4.354,84,8.8031,0.9226,-11.4668,-0.0947,0.012,0.0323,52
4.356,84,7.8951,2.0292,-15.5226,0.0056,0.0037,0.0304,88,4.405,85,8.8073,0.9002,-11.451,-0.0936,0.0183,0.0269,52
4.407,85,7.9843,2.0299,-15.5885,-0.0573,0.023,0.0492,88,4.457,86,8.8239,0.8623,-11.4663,-0.0929,0.0252,0.024,52
4.459,86,7.905,2.0199,-15.5876,-0.078,0.0502,0.0337,88,4.509,87,8.8441,0.7628,-11.4474,-0.0799,0.0466,0.0074,52
4.511,87,7.739,1.961,-15.5422,-0.0861,0.0651,0.0151,88,4.561,88,8.8771,0.6338,-11.3916,-0.014,0.0727,-0.0312,52
4.563,88,7.5286,1.8815,-15.4084,-0.0743,0.062,-0.0027,88,4.612,89,9.0653,1.3151,-11.1042,0.0858,0.1225,-0.0829,52
4.615,89,7.5296,1.8943,-15.4557,-0.0505,0.0558,-0.0025,88,4.664,90,8.95,1.4973,-11.1403,0.086,0.0859,-0.058,52
4.666,90,7.6796,1.9292,-15.5577,-0.0763,0.0355,0.0172,88,4.716,91,8.9316,1.4179,-11.1792,0.0622,0.0229,-0.0238,52
4.718,91,7.8604,1.9918,-15.5708,-0.119,0.0195,0.0432,88,4.768,92,8.9006,1.2218,-11.2195,0.0307,-0.0011,0.0019,52
4.77,92,7.9139,2.042,-15.4512,-0.1056,0.0048,0.0407,88,4.819,93,8.8951,1.1255,-11.1502,-0.014,-0.0039,0.0147,52
4.822,93,7.9058,2.0581,-15.3008,-0.1056,-0.0042,0.0399,88,4.871,94,8.8847,1.1425,-11.1377,-0.0293,-0.0158,0.0162,52
4.874,94,7.8763,2.0474,-15.191,-0.1139,-0.0235,0.044,88,4.923,95,8.8811,1.0776,-11.2326,-0.063,-0.0454,0.032,52
4.925,95,7.868,2.0182,-15.1203,-0.1005,-0.0552,0.0337,88,4.975,96,8.8697,1.0077,-11.2381,-0.0742,-0.0484,0.0372,52
4.977,96,7.962,2.0155,-15.1467,-0.0732,-0.0605,0.0166,88,5.027,97,8.8816,0.9957,-11.2824,-0.082,-0.0339,0.0299,52
5.029,97,8.0135,1.9814,-15.1952,-0.0363,-0.0284,0.0025,88,5.078,98,8.8607,0.9838,-11.2794,-0.0626,-0.0225,0.0155,52
5.081,98,8.0489,1.9629,-15.2203,-0.0182,0.0068,-0.0083,88,5.13,99,8.9142,0.9332,-11.2782,-0.0324,-0.0178,-0.0032,52
5.132,99,7.9161,1.9362,-15.1785,-0.0063,0.0138,-0.0053,88,5.182,100,8.8774,0.8441,-11.2897,0.016,-0.0078,-0.0298,52
5.184,100,7.8727,1.9598,-15.2523,0.0054,0.0128,0.0236,88,5.234,101,8.8242,0.6984,-11.3156,0.0987,-0.0047,-0.0657,52
5.236,101,7.8159,2.0261,-15.2851,-0.0072,0.0223,0.0424,88,5.285,102,8.7094,1.218,-11.3159,0.1401,-0.0232,-0.0861,52
5.288,102,7.7929,1.9659,-15.2196,-0.0508,0.0314,0.0732,88,5.337,103,8.7615,1.2284,-11.3606,0.1057,-0.0457,-0.0548,52
5.34,103,7.8968,1.8898,-15.0644,-0.1352,0.0843,0.1304,88,5.389,104,8.7887,1.2276,-11.4431,0.0917,-0.0153,-0.0555,52
5.391,104,8.0354,1.7578,-15.0191,-0.0941,0.1602,0.1472,88,5.441,105,8.8141,1.108,-11.4572,0.0598,0.0506,-0.043,52
5.443,105,8.1226,1.781,-15.0594,-0.0398,0.1925,0.1445,88,5.493,106,8.8225,1.0699,-11.3685,0.0514,0.0949,-0.0369,52
5.495,106,8.173,1.728,-15.0796,-0.0367,0.192,0.1563,88,5.544,107,8.8045,1.1223,-11.2499,0.047,0.0933,-0.036,52
5.547,107,8.2013,1.7495,-14.9945,0.0234,0.1458,0.1295,88,5.596,108,8.786,0.9826,-11.2092,0.0576,0.0622,-0.0395,52
5.599,108,8.1419,1.7558,-14.8401,0.0291,0.1173,0.1082,88,5.648,109,8.8004,1.0159,-11.2222,0.0336,0.0279,-0.0261,52
5.651,109,7.9608,1.7143,-14.9702,0.1604,0.0742,0.0505,88,5.7,110,8.8627,1.0573,-11.2639,0.0341,0.0208,-0.0306,52
5.702,110,7.8555,1.7962,-15.074,0.162,0.0431,0.0489,88,5.752,111,8.9283,1.1488,-11.2271,0.0735,0.0742,-0.0377,52
5.754,111,7.977,1.7636,-15.1114,0.1202,-0.0072,0.0426,88,5.803,112,8.851,1.2637,-11.2105,0.0681,0.1053,0.0071,52
5.806,112,8.1239,1.8089,-15.0185,0.22,-0.0724,-0.0165,88,5.855,113,8.8358,1.2596,-11.0911,0.0324,0.1021,0.0498,52
5.858,113,8.2608,1.8635,-14.9499,0.1654,-0.1002,-0.0493,88,5.907,114,8.7855,1.2618,-10.9852,-0.0263,0.0511,0.0818,52
5.91,114,8.3372,1.7966,-14.8423,0.1486,-0.1009,-0.0831,88,5.959,115,8.8617,1.0211,-10.8936,-0.0907,0.0096,0.0916,52
5.961,115,8.4111,1.9437,-15.0088,0.0646,-0.0801,-0.09,88,6.01,116,8.996,1.1424,-11.0244,-0.1677,-0.0733,0.1247,52
6.013,116,8.3876,1.8705,-15.0749,0.0069,-0.0702,-0.1116,88,6.062,117,8.9206,0.9588,-11.1357,-0.1691,-0.0779,0.1435,52
6.065,117,8.1772,1.873,-14.9186,0.02,-0.0629,-0.1031,88,6.114,118,8.8767,0.8115,-11.2544,-0.139,-0.0502,0.1215,52
6.117,118,7.9713,1.8853,-14.829,0.0014,-0.0295,-0.0723,88,6.166,119,8.8813,0.7761,-11.0872,-0.0989,-0.0078,0.0851,52
6.168,119,7.9708,1.9556,-14.9495,0.0293,-0.0228,-0.0684,88,6.218,120,8.8248,0.6769,-11.1313,-0.0218,0.0172,0.043,52
6.22,120,8.0452,1.9183,-15.0645,-0.0326,-0.0236,-0.0597,88,6.269,121,8.8672,0.7897,-11.0983,-0.0314,0.0003,0.0407,52
6.272,121,8.1416,1.8192,-15.0824,-0.1119,-0.0097,-0.0416,88,6.321,122,8.8685,0.7909,-11.1045,-0.0517,-0.0137,0.0494,52
6.324,122,8.152,1.6906,-15.0279,-0.097,0.0404,-0.0654,88,6.373,123,8.8913,0.7671,-11.0938,-0.0773,-0.0231,0.0813,52
6.376,123,8.1418,1.6024,-14.977,-0.0041,0.0986,-0.0862,88,6.425,124,8.8861,0.7156,-11.1351,-0.0555,-0.0014,0.0673,52
6.427,124,8.0629,1.5464,-15.0542,0.0419,0.1275,-0.0597,88,6.476,125,8.8961,0.6421,-11.1296,-0.0011,0.0544,0.0325,52
6.479,125,8.0372,1.6273,-15.0894,0.0611,0.0742,0.0078,88,6.528,126,8.8871,0.7677,-11.0413,0.0606,0.0959,-0.0128,52
6.531,126,8.0654,1.7173,-15.0335,0.0531,0.0013,0.0597,88,6.58,127,8.8911,0.8209,-10.9782,0.069,0.1173,-0.0263,52
6.583,127,8.1689,1.7294,-14.961,0.024,-0.0267,0.081,88,6.632,128,8.881,0.8255,-10.8856,0.0267,0.1021,-0.0265,52
6.635,128,8.3416,1.6462,-14.8717,0.0485,0.0102,0.0536,88,6.684,129,8.8856,0.7453,-10.8316,-0.0051,0.0795,-0.0291,52
6.686,129,8.3565,1.5233,-14.8092,0.1203,0.1062,0.0118,88,6.735,130,9.0521,0.3424,-10.7663,0.0687,0.0722,-0.0657,52
6.738,130,8.254,1.5448,-14.9073,0.1831,0.1907,-0.0465,88,6.787,131,8.6937,0.7637,-10.8864,0.172,0.0956,-0.1232,52
6.79,131,8.1725,1.5485,-14.9389,0.221,0.1869,-0.0648,88,6.839,132,8.7465,1.0097,-10.8068,0.1826,0.0394,-0.1073,52
6.842,132,8.0964,1.5743,-14.9359,0.1927,0.1088,-0.0177,88,6.89,133,8.812,1.002,-10.8014,0.1909,0.0138,-0.0614,52
6.893,133,8.1218,1.6329,-14.8298,0.1222,0.031,0.0358,88,6.942,134,8.8477,1.0362,-10.8462,0.1694,0.0328,-0.011,52
6.945,134,8.2854,1.7117,-14.7096,0.0683,-0.0168,0.0485,88,6.994,135,8.8019,0.9002,-10.7566,0.1031,0.0183,0.0338,52
6.997,135,8.5278,1.7259,-14.5451,0.0673,-0.0236,0.0128,88,7.046,136,8.786,0.9634,-10.5956,0.0694,-0.0661,0.0369,52
7.049,136,8.7879,1.7972,-14.4058,0.1211,0.0198,-0.0567,88,7.098,137,8.8965,0.9051,-10.5823,-0.016,-0.1439,0.0595,52
7.1,137,9.0114,1.8014,-14.2396,0.0407,0.0867,-0.0692,88,7.149,138,8.9727,0.8724,-10.7871,-0.1322,-0.2092,0.0815,52
7.153,138,9.0934,1.8651,-14.1254,0.0516,0.1661,-0.0639,88,7.202,139,9.0366,0.6295,-10.9529,-0.1549,-0.173,0.0654,52
7.204,139,8.8865,1.9641,-14.0455,0.0222,0.2541,-0.0474,88,7.253,140,9.0418,0.593,-10.9471,-0.0916,-0.1046,0.0288,52
7.256,140,8.3789,1.8516,-14.1669,-0.0516,0.3087,-0.0361,88,7.305,141,8.9814,0.8761,-10.8672,-0.0109,-0.0504,-0.0013,52
7.308,141,7.9244,1.6024,-14.4171,-0.067,0.2901,-0.0451,88,7.357,142,8.9821,0.9208,-10.8723,-0.0096,-0.0626,0.0196,52
7.359,142,7.7357,1.315,-14.6047,-0.0769,0.1897,-0.0137,88,7.408,143,8.9122,0.7987,-10.9336,-0.0338,-0.0652,0.0379,52
7.412,143,7.8573,1.104,-14.6983,-0.0998,0.0694,0.0686,88,7.46,144,8.905,0.8159,-11.0164,-0.0757,-0.0578,0.0434,52
7.463,144,8.2353,1.1334,-14.6512,-0.0997,-0.0368,0.1657,88,7.512,145,8.8626,0.6672,-11.0555,-0.1106,-0.0521,0.0483,52
7.515,145,8.5565,1.235,-14.4938,-0.1162,-0.1006,0.2316,88,7.564,146,8.8698,0.6899,-11.1245,-0.1423,-0.0386,0.061,52
7.567,146,8.7266,1.3633,-14.3206,-0.054,-0.1191,0.2126,88,7.616,147,8.9025,0.6282,-11.1218,-0.1509,-0.0205,0.0783,52
7.618,147,8.629,1.4204,-14.1912,-0.0183,-0.088,0.1486,88,7.667,148,8.883,0.6263,-11.1148,-0.1519,-0.0069,0.0773,52
7.67,148,8.5321,1.3645,-14.1245,-0.0091,-0.0615,0.1128,88,7.719,149,8.916,0.5506,-11.0624,-0.1409,0.0012,0.0658,52
7.722,149,8.6064,1.2561,-14.1963,-0.015,-0.0435,0.118,88,7.771,150,8.8776,0.5882,-11.0505,-0.1258,0.0022,0.0553,52
7.774,150,8.5804,1.2163,-14.3063,-0.0559,-0.0188,0.1526,88,7.823,151,8.9109,0.6052,-11.0327,-0.1148,0.0074,0.0486,52
7.826,151,8.6839,1.3346,-14.2616,-0.0888,0.0225,0.1564,88,7.874,152,8.9285,0.5742,-10.9873,-0.0915,0.0031,0.0378,52
7.877,152,8.6385,1.4001,-14.2519,-0.0673,0.056,0.1206,88,7.926,153,8.9251,0.4679,-10.964,-0.0648,0.0003,0.001,52
7.929,153,8.6019,1.2201,-14.2984,-0.1006,0.0879,0.0989,88,7.978,154,8.8779,0.4769,-11.0627,0.0225,-0.0019,-0.064,52
7.981,154,8.5739,1.0526,-14.3125,-0.1047,0.0842,0.0949,88,8.03,155,9.4629,0.7409,-10.2895,0.2299,0.069,-0.1494,52
8.033,155,8.5958,0.9637,-14.334,-0.1045,0.0577,0.1123,88,8.082,156,9.3228,0.9524,-10.4568,0.1673,0.0652,-0.1514,52
8.084,156,8.6598,0.9006,-14.3233,-0.1115,0.0343,0.1263,88,8.133,157,9.2014,0.8552,-10.6568,0.1421,0.023,-0.123,52
8.136,157,8.7349,0.8973,-14.2676,-0.0949,0.007,0.1291,88,8.185,158,9.1285,0.9166,-10.747,0.0997,-0.0256,-0.0758,52
8.188,158,8.6167,0.8599,-14.155,-0.1158,-0.0078,0.132,88,8.237,159,9.1012,0.8401,-10.7647,0.0695,-0.0562,-0.0445,52
8.24,159,8.6531,1.0541,-13.9589,-0.1143,-0.0258,0.1256,88,8.289,160,9.0635,0.8547,-10.8326,0.0453,-0.0584,-0.0305,52
8.292,160,8.7349,1.2054,-13.8655,-0.1265,-0.0097,0.0912,88,8.34,161,9.0343,0.9463,-10.8271,0.0059,-0.0715,-0.0107,52
8.343,161,9.0477,1.0943,-13.9481,-0.1465,0.0047,0.0283,88,8.392,162,9.0243,0.9188,-10.9163,-0.0659,-0.0805,0.0302,52
8.395,162,9.0887,0.8677,-14.0266,-0.165,-0.0009,0.0014,88,8.444,163,9.0198,0.809,-11.024,-0.0789,-0.0316,0.0341,52
8.447,163,8.9432,0.7105,-13.9926,-0.1631,0.0,0.0362,88,8.496,164,9.0047,0.6848,-11.0324,-0.0437,0.0273,0.0082,52
8.499,164,8.7891,0.6862,-13.9843,-0.1368,0.0128,0.0743,88,8.548,165,8.9538,0.8037,-10.9656,0.0011,0.0579,-0.0251,52
8.551,165,8.7356,0.8328,-14.0071,-0.0836,0.0317,0.0668,88,8.599,166,8.8759,0.9025,-10.8428,0.0379,0.0485,-0.0371,52
8.602,166,8.7574,0.8768,-14.0597,-0.0596,0.0308,0.0424,88,8.651,167,8.821,0.9168,-10.8414,0.0315,0.0068,-0.0244,52
8.654,167,8.791,0.7767,-14.1884,0.0109,0.0319,0.0239,88,8.703,168,8.8494,0.9265,-10.8995,0.0184,-0.0136,-0.0199,52
8.706,168,8.8419,0.8074,-14.2721,0.0416,0.0189,0.0425,88,8.755,169,8.8593,0.9462,-10.936,0.0163,-0.0078,-0.0144,52
8.758,169,8.7909,0.878,-14.2319,0.0083,-0.0219,0.0779,88,8.807,170,8.8548,0.9609,-10.9314,0.0164,0.0012,0.0049,52
8.81,170,8.685,0.9757,-14.1176,-0.0058,-0.0505,0.0712,88,8.858,171,8.8618,0.8795,-10.9266,-0.0023,0.0045,0.0191,52
8.861,171,8.6481,0.9812,-14.006,-0.0201,-0.0595,0.0412,88,8.91,172,8.8967,0.9116,-10.9525,-0.0197,-0.0168,0.03,52
8.913,172,8.7899,0.8609,-14.0173,-0.0151,-0.0517,0.0122,88,8.962,173,8.9234,0.7405,-11.0315,-0.0173,0.0063,0.0162,52
8.965,173,8.8336,0.7795,-14.0023,-0.0221,-0.0331,0.0038,88,9.014,174,8.9065,0.872,-10.9702,0.0281,0.043,-0.0255,52
9.017,174,8.8061,0.8015,-13.9814,-0.0469,-0.0239,0.0368,88,9.065,175,8.912,0.8492,-10.9132,0.0333,0.0589,-0.0283,52
9.068,175,8.6922,0.8644,-14.049,-0.0552,0.0139,0.0373,88,9.117,176,8.8863,0.8688,-10.934,0.023,0.0631,-0.0278,52
9.12,176,8.629,0.8655,-14.2373,0.0168,0.0296,-0.0223,88,9.169,177,8.8825,0.9503,-10.8771,0.0061,0.064,-0.0222,52
9.172,177,8.5402,0.852,-14.5476,0.2026,-0.0237,-0.123,88,9.221,178,8.8966,0.9668,-10.7943,0.0122,0.0487,-0.0305,52
9.224,178,8.5589,0.811,-14.7506,0.2948,-0.1249,-0.186,88,9.273,179,8.8737,0.8595,-10.7863,0.0178,0.0273,-0.0323,52
9.276,179,8.5194,0.7691,-14.7566,0.2716,-0.2276,-0.1537,88,9.324,180,8.881,0.9778,-10.8036,-0.0063,-0.0266,-0.0332,52
9.327,180,8.5287,0.9175,-14.5926,0.2334,-0.2969,-0.1074,88,9.376,181,8.9131,0.9712,-10.8591,-0.0278,-0.05,-0.0174,52
9.379,181,8.5405,1.0065,-14.3781,0.1638,-0.2858,-0.0985,88,9.428,182,8.9203,0.998,-10.9254,-0.0157,-0.0324,-0.0271,52
9.431,182,8.5314,1.0079,-14.3343,0.1352,-0.2566,-0.0917,88,9.48,183,8.8967,1.0367,-10.9324,-0.0206,-0.0178,-0.0267,52
9.483,183,8.5344,0.9708,-14.4402,0.091,-0.2148,-0.0641,88,9.532,184,8.8796,1.0528,-10.9026,-0.0277,-0.0117,-0.0268,52
9.534,184,8.6622,0.9832,-14.5534,0.0699,-0.1937,-0.0182,88,9.583,185,8.8738,1.1027,-10.848,-0.0231,-0.0133,-0.024,52
9.586,185,8.666,0.9573,-14.5687,0.0226,-0.1463,0.0468,88,9.635,186,8.9389,1.0198,-10.8378,-0.0154,0.0034,-0.0164,52
9.638,186,8.4611,0.941,-14.6006,0.0276,-0.0785,0.058,88,9.687,187,8.892,0.9964,-10.8495,-0.0075,0.0242,-0.0218,52
9.69,187,8.2163,0.8557,-14.6984,-0.0307,-0.0126,0.0798,88,9.738,188,8.8872,1.0507,-10.7893,0.0075,0.0168,-0.0242,52
9.742,188,8.1119,0.7366,-14.9051,-0.0138,0.0239,0.0831,88,9.79,189,8.8892,1.0472,-10.8149,0.0289,0.0047,-0.0223,52
9.793,189,8.1344,0.6947,-15.1149,-0.0293,0.0371,0.0845,88,9.842,190,8.9069,1.0472,-10.8526,0.0491,-0.0001,-0.0255,52
9.845,190,8.2511,0.6455,-15.2416,-0.0544,-0.0121,0.0934,88,9.894,191,8.8843,1.1159,-10.8475,0.0506,-0.0194,-0.0138,52
9.897,191,8.3174,0.5815,-15.1388,-0.0861,-0.0554,0.1071,88,9.946,192,8.8858,1.1222,-10.8783,0.0751,-0.0395,-0.008,52
9.949,192,8.337,0.5651,-14.9454,-0.0664,-0.0633,0.113,88,9.998,193,8.8859,1.1449,-10.9349,0.0751,-0.0283,0.0008,52
10.001,193,8.2295,0.6486,-14.8549,-0.018,-0.0375,0.0933,88,10.05,194,8.8609,1.1547,-10.9453,0.0589,-0.0119,0.0105,52
10.053,194,8.1715,0.6446,-14.8463,0.0148,-0.0104,0.0588,88,10.102,195,8.8564,1.1457,-10.9755,0.016,-0.0007,0.0215,52
10.104,195,8.2328,0.6168,-14.9055,0.0375,0.0077,0.0305,88,10.153,196,8.8685,1.1046,-10.9418,0.0087,0.0074,0.0149,52
10.156,196,8.3157,0.557,-14.9972,0.0481,0.0023,0.0329,88,10.205,197,8.8388,1.1474,-10.9182,-0.0051,-0.0125,0.0266,52
10.208,197,8.4356,0.4945,-14.9224,0.0306,-0.0145,0.0408,88,10.257,198,8.8487,1.131,-10.8979,-0.0245,-0.0419,0.042,52
10.26,198,8.3262,0.4503,-14.9808,0.0753,-0.0122,0.019,88,10.309,199,8.868,0.9964,-10.9742,-0.0522,-0.0463,0.047,52
10.311,199,8.2847,0.4267,-14.9393,0.1112,0.0007,0.0299,88,10.361,200,8.8679,1.0358,-11.0086,-0.0779,-0.0324,0.0403,52
10.363,200,8.2737,0.4269,-14.9414,0.0903,0.0411,0.0416,88,10.412,201,8.883,1.0192,-10.9572,-0.0886,-0.0291,0.0304,52
10.415,201,8.2159,0.4393,-14.9914,0.1385,0.0534,0.0395,88,10.464,202,8.929,0.9578,-10.9869,-0.0999,-0.0323,0.0259,52
10.467,202,8.1799,0.4596,-15.0551,0.1349,0.0534,0.0357,88,10.516,203,8.9471,0.9199,-11.0381,-0.0968,-0.0184,0.014,52
10.519,203,8.1571,0.4508,-15.0858,0.1165,0.0354,0.0237,88,10.568,204,8.9567,0.9258,-11.0755,-0.091,0.004,0.0038,52
10.57,204,8.1814,0.4102,-15.0255,0.084,0.0085,0.0236,88,10.62,205,8.9168,0.978,-11.0287,-0.0799,0.0323,-0.0037,52
10.622,205,8.2686,0.3039,-14.8248,0.0364,-0.0019,0.0387,88,10.671,206,8.8973,0.8959,-10.9939,-0.058,0.0483,-0.0091,52
10.674,206,8.3116,0.1862,-14.6931,0.0104,0.0093,0.0402,88,10.723,207,8.8732,0.9796,-10.8696,0.0414,0.044,-0.0333,52
10.725,207,8.279,0.2979,-14.8348,-0.0076,0.0244,0.0249,88,10.775,208,8.7926,1.1537,-10.8535,0.0601,0.0582,-0.0327,52
10.777,208,8.1979,0.3561,-15.0815,-0.0335,0.01,0.0257,88,10.827,209,8.8282,1.1695,-10.9082,0.0624,0.0037,-0.0048,52
10.829,209,8.2665,0.4411,-15.1299,-0.0846,-0.0049,0.0494,88,10.879,210,8.8381,1.3525,-10.9732,-0.0498,-0.0495,0.0446,52
10.881,210,8.3879,0.3737,-15.0409,-0.1173,0.0088,0.0629,88,10.93,211,8.8548,1.0399,-10.9491,-0.0642,-0.038,0.0582,52
10.933,211,8.4412,0.3268,-14.8956,-0.1269,0.0268,0.0638,88,10.982,212,8.8847,1.0933,-10.9061,-0.0555,-0.0269,0.0662,52
10.985,212,8.4813,0.3086,-14.8305,-0.102,0.0339,0.0492,88,11.034,213,8.8787,1.0909,-10.9024,-0.051,-0.0126,0.0578,52
11.036,213,8.4961,0.2458,-14.766,-0.0864,0.0327,0.0207,88,11.086,214,8.866,1.024,-10.8704,-0.0686,-0.0139,0.0316,52
11.088,214,8.3945,0.1513,-14.7223,-0.0619,0.041,-0.0096,88,11.137,215,8.8254,1.0556,-10.8845,-0.0728,-0.0311,0.0003,52
11.14,215,8.3489,0.1094,-14.714,-0.0064,0.052,-0.0282,88,11.189,216,8.8617,1.0141,-10.9049,-0.0832,-0.0529,-0.0158,52
11.192,216,8.4687,0.2505,-14.8243,0.0695,0.0764,-0.0472,88,11.241,217,8.9077,1.0006,-10.9782,-0.0877,-0.0465,-0.0326,52
11.243,217,8.5569,0.5882,-14.8962,0.0872,0.1292,-0.1109,88,11.293,218,8.9113,1.0618,-10.8885,-0.0854,-0.0278,-0.07,52
