right_leg_timestamp,right_leg_index,right_leg_accel_x,right_leg_accel_y,right_leg_accel_z,right_leg_gyro_x,right_leg_gyro_y,right_leg_gyro_z,right_leg_battery_percentage,left_leg_timestamp,left_leg_index,left_leg_accel_x,left_leg_accel_y,left_leg_accel_z,left_leg_gyro_x,left_leg_gyro_y,left_leg_gyro_z,left_leg_battery_percentage
0.391,7,9.8211,-0.308,-11.1642,0.2564,0.0485,0.0703,77,0.097,1,9.1954,-2.3707,-16.1081,0.2491,-1.2896,0.0259,51
0.443,8,9.7816,-0.4337,-11.0214,0.2197,0.0058,0.0533,77,0.149,2,8.3613,-2.4685,-15.9214,0.0651,-1.3301,0.1347,51
0.495,9,9.6943,-0.6809,-11.0779,0.166,-0.0361,0.0209,77,0.201,3,7.4596,-2.5412,-16.0693,0.0013,-1.2735,0.2089,51
0.546,10,9.6687,-0.6439,-11.1874,0.2414,-0.0513,-0.0098,77,0.253,4,6.456,-2.4254,-15.9865,-0.0089,-1.1822,0.2994,51
0.598,11,9.6866,-0.5307,-11.2381,0.1849,-0.0635,-0.0146,77,0.304,5,5.4461,-2.4188,-15.9011,-0.0612,-1.0215,0.3805,51
0.65,12,9.6745,-0.3845,-11.2325,0.1146,-0.0635,-0.0102,77,0.356,6,4.8575,-2.4086,-15.7412,-0.0263,-0.8541,0.4204,51
0.702,13,9.5253,-0.3916,-11.2429,0.0406,-0.0343,0.0107,77,0.408,7,4.4427,-2.4049,-15.7417,-0.0493,-0.6499,0.4084,51
0.754,14,9.4793,-0.7303,-11.3079,-0.0918,-0.0504,0.0305,77,0.46,8,4.2997,-2.477,-15.8252,-0.0125,-0.4453,0.3522,51
0.806,15,9.5161,-0.7814,-11.3487,-0.0769,-0.066,0.0244,77,0.512,9,4.2024,-2.5791,-15.9321,-0.0504,-0.2548,0.2815,51
0.857,16,9.6001,-0.7092,-11.3549,-0.1257,-0.0674,0.0395,77,0.563,10,4.0045,-2.6676,-15.9342,-0.0357,-0.1063,0.2207,51
0.909,17,9.5313,-0.859,-11.3371,-0.2031,-0.0754,0.0429,77,0.615,11,3.9283,-2.6028,-16.7547,-0.0175,0.0293,0.2137,51
0.961,18,9.4793,-1.0516,-11.3724,-0.1537,-0.1601,0.0027,77,0.667,12,4.2017,-3.0413,-17.1583,0.0274,0.0839,0.1637,51
1.013,19,9.5134,-0.7631,-11.6298,-0.0562,-0.1869,-0.0366,77,0.719,13,4.4078,-3.1863,-17.4827,0.0465,0.0475,0.1029,51
1.065,20,9.5134,-0.7308,-11.6279,-0.1157,-0.1724,-0.0297,77,0.77,14,4.5568,-3.3035,-17.6497,0.0603,-0.0051,0.0637,51
1.116,21,9.4391,-0.8937,-11.7731,-0.1672,-0.1824,-0.0288,77,0.822,15,4.6236,-3.2996,-17.6027,0.0679,-0.042,0.034,51
1.168,22,9.459,-0.8243,-11.9035,-0.1124,-0.1793,-0.0581,77,0.874,16,4.6137,-3.2263,-17.4545,0.0672,-0.0573,-0.0022,51
1.22,23,9.4407,-0.8317,-12.0174,-0.0192,-0.128,-0.0778,77,0.926,17,4.5809,-3.1208,-17.3265,0.0969,-0.0465,-0.0263,51
1.272,24,9.4145,-0.8004,-12.0378,0.0088,-0.0808,-0.0798,77,0.978,18,4.6172,-3.0436,-17.3825,0.0119,-0.0162,0.0054,51
1.324,25,9.4412,-0.6281,-12.1145,0.0452,-0.0267,-0.0796,77,1.029,19,4.6218,-3.0718,-17.5264,-0.004,-0.0048,0.0334,51
1.375,26,9.4189,-0.5585,-11.9653,-0.0143,-0.0035,-0.0488,77,1.081,20,4.5332,-3.0299,-17.4864,-0.0514,-0.0071,0.0869,51
1.427,27,9.325,-0.9979,-12.0712,0.0583,-0.0288,-0.0629,77,1.133,21,4.4012,-2.9747,-17.5063,-0.0675,-0.0161,0.1264,51
1.479,28,9.398,-0.9835,-12.1728,0.4817,0.0122,-0.1463,77,1.185,22,4.3397,-2.9184,-17.5608,-0.0919,-0.0476,0.1442,51
1.531,29,9.43,-0.2752,-12.1228,0.611,0.0594,-0.1324,77,1.236,23,4.598,-3.0512,-17.7242,-0.069,-0.1027,0.1288,51
1.582,30,9.4501,-0.305,-11.8335,0.4093,0.0953,-0.0561,77,1.288,24,4.6942,-3.1552,-17.7479,-0.0892,-0.1353,0.159,51
1.634,31,9.4086,-0.1873,-11.728,0.2282,0.0919,0.0156,77,1.34,25,4.48,-3.0804,-17.6116,-0.1018,-0.1358,0.1708,51
1.686,32,9.5125,-0.3647,-11.8109,0.2623,0.0782,0.0157,77,1.392,26,4.2755,-3.0799,-17.6344,-0.1504,-0.1192,0.1706,51
1.738,33,9.4745,-0.504,-11.7927,0.2952,0.0701,0.0005,77,1.444,27,4.1923,-3.1747,-17.6557,-0.1013,-0.1394,0.1219,51
1.79,34,9.5453,-0.3366,-11.7452,0.2623,0.0747,0.0238,77,1.495,28,4.175,-3.2596,-17.7694,-0.066,-0.164,0.0653,51
1.841,35,9.5375,-0.6343,-11.6561,0.1179,0.0876,0.0881,77,1.547,29,4.1733,-3.3604,-17.8617,-0.0744,-0.1633,0.0553,51
1.893,36,9.5905,-0.7672,-11.5268,0.0642,0.0951,0.1113,77,1.599,30,4.2703,-3.515,-17.9084,-0.0315,-0.1672,0.0344,51
1.945,37,9.4202,-0.2159,-11.4755,-0.1139,0.104,0.1391,77,1.651,31,4.3054,-3.5678,-17.9427,-0.0318,-0.1621,0.056,51
1.997,38,9.5237,-0.7794,-11.409,-0.2018,0.0184,0.1332,77,1.703,32,4.1755,-3.4896,-17.9093,-0.0495,-0.1339,0.1025,51
2.049,39,9.5172,-1.0006,-11.5083,-0.1408,0.0245,0.0896,77,1.754,33,3.9832,-3.4388,-17.8142,-0.0481,-0.0988,0.1304,51
2.101,40,9.6014,-0.7836,-11.4539,-0.1316,0.0312,0.0698,77,1.806,34,3.7558,-3.3612,-17.7351,-0.0404,-0.0585,0.1264,51
2.152,41,9.516,-0.8415,-11.4027,-0.169,0.0045,0.0611,77,1.858,35,3.5241,-3.265,-17.7727,-0.054,-0.0058,0.1242,51
2.204,42,9.494,-0.9803,-11.5457,-0.0635,-0.025,0.0192,77,1.91,36,3.483,-3.3092,-17.9401,-0.0188,0.0011,0.0801,51
2.256,43,9.6344,-0.7529,-11.5913,0.0493,-0.0127,-0.0086,77,1.962,37,3.6013,-3.3419,-18.1875,-0.0038,-0.0364,0.034,51
2.308,44,9.5209,-0.4769,-11.588,-0.1075,0.0155,0.0389,77,2.013,38,3.6867,-3.4169,-18.2792,0.0016,-0.0724,0.0463,51
2.359,45,9.4594,-1.2771,-11.5541,-0.3039,-0.033,0.0723,77,2.065,39,3.5692,-3.5593,-18.1276,-0.0203,-0.0582,0.0929,51
2.411,46,9.4704,-1.3735,-11.6654,-0.2303,-0.0884,0.032,77,2.117,40,3.4446,-3.6499,-18.0683,0.0118,-0.0706,0.1264,51
2.463,47,9.4848,-0.8574,-11.916,-0.141,-0.0969,0.0103,77,2.169,41,3.3978,-3.4005,-18.0766,0.0781,-0.1225,0.1186,51
2.515,48,9.4437,-0.9005,-11.9806,-0.0978,-0.0617,0.0031,77,2.22,42,3.466,-3.1623,-18.1213,0.0725,-0.1431,0.1361,51
2.567,49,9.3897,-0.8952,-11.951,0.0349,-0.0204,-0.0134,77,2.272,43,3.4915,-3.1339,-18.0724,0.0663,-0.1218,0.1006,51
2.618,50,9.667,-0.0951,-11.7282,0.0999,-0.0516,-0.0136,77,2.324,44,3.5388,-3.2957,-18.0783,0.0546,-0.0926,0.0085,51
2.67,51,9.5817,-0.0194,-11.7903,0.0325,-0.0337,0.027,77,2.376,45,3.6216,-3.5737,-18.1948,-0.0039,-0.0559,-0.0548,51
2.722,52,9.5012,-0.4547,-11.7688,-0.08,-0.0423,0.042,77,2.428,46,3.5824,-3.8249,-18.181,0.0269,-0.0466,-0.0812,51
2.774,53,9.5278,-0.6049,-11.8819,-0.1499,-0.0637,0.0349,77,2.479,47,3.3156,-3.8067,-18.1317,0.0112,-0.0326,-0.046,51
2.826,54,9.5207,-0.6478,-11.9818,-0.2309,-0.0657,0.0237,77,2.531,48,3.0939,-3.7049,-18.0501,0.0217,-0.0216,0.0283,51
2.877,55,9.4691,-0.8034,-12.0622,-0.2583,-0.0731,0.0075,77,2.583,49,3.0421,-3.6029,-18.0651,0.0034,-0.0235,0.0768,51
2.929,56,9.4399,-0.8287,-12.1242,-0.255,-0.0366,-0.0033,77,2.634,50,3.0572,-3.5488,-18.1062,-0.002,-0.0305,0.0908,51
2.981,57,9.4219,-0.8018,-12.0715,-0.2627,-0.0072,-0.0067,77,2.686,51,3.0795,-3.5299,-18.1159,0.0052,-0.0315,0.0823,51
3.033,58,9.3686,-0.9983,-12.0626,-0.2376,-0.0081,-0.0083,77,2.738,52,3.133,-3.4497,-18.0969,0.0186,-0.0371,0.0553,51
3.085,59,9.1769,-1.8807,-12.0386,0.0167,0.0317,-0.036,77,2.79,53,3.1506,-3.375,-18.1301,0.0251,-0.0357,0.0046,51
3.136,60,9.357,-1.3485,-12.0108,0.0096,0.0842,-0.0257,77,2.842,54,3.2324,-3.3324,-18.2532,-0.0031,-0.0323,-0.0343,51
3.188,61,9.3503,-1.4045,-11.8376,-0.039,0.0536,-0.0173,77,2.893,55,3.3381,-3.4167,-18.1604,-0.0383,-0.0258,-0.0047,51
3.24,62,9.2082,-2.3043,-11.7801,0.1237,0.0386,-0.0345,77,2.945,56,3.2554,-3.3305,-17.9708,-0.0199,-0.0091,-0.017,51
3.292,63,9.6818,-0.0719,-11.853,0.4445,0.0049,-0.1126,77,2.997,57,3.2552,-3.3533,-18.0599,-0.014,0.0055,-0.1051,51
3.344,64,9.5684,-0.38,-11.8306,0.3525,-0.0208,-0.0476,77,3.049,58,3.3612,-3.3825,-18.3088,-0.0017,0.0079,-0.1919,51
3.395,65,9.5245,-0.7382,-11.8211,0.1591,-0.046,-0.0051,77,3.101,59,3.2694,-3.5824,-18.3357,0.0077,-0.0074,-0.2205,51
3.447,66,9.4995,-0.7464,-11.9137,0.1361,-0.0801,0.002,77,3.152,60,3.2336,-3.6926,-18.2826,0.0055,-0.0266,-0.2067,51
3.499,67,9.4827,-0.762,-11.9469,0.0382,-0.0971,0.0064,77,3.204,61,3.0718,-3.644,-18.1899,0.0063,-0.0316,-0.1442,51
3.551,68,9.4277,-0.991,-12.0181,0.0295,-0.101,-0.0057,77,3.256,62,2.9821,-3.5719,-18.1869,0.0234,-0.0249,-0.0704,51
3.603,69,9.3133,-1.1778,-12.1094,0.2074,-0.0759,-0.0592,77,3.308,63,3.0279,-3.3667,-18.2701,0.038,-0.037,-0.0124,51
3.655,70,9.4285,-0.73,-12.1324,0.3614,-0.0637,-0.0922,77,3.359,64,3.1506,-3.2747,-18.3745,0.0196,-0.0508,0.0828,51
3.706,71,9.4406,-0.7321,-12.0476,0.4018,-0.0432,-0.0952,77,3.411,65,3.2387,-3.2243,-18.4028,-0.0171,-0.0459,0.1667,51
3.758,72,9.4764,-0.6227,-12.0825,0.3342,-0.0032,-0.0816,77,3.463,66,3.2793,-3.187,-18.4151,-0.0588,-0.0274,0.2158,51
3.81,73,9.5283,-0.4562,-11.9834,0.3113,0.0594,-0.0483,77,3.515,67,3.4244,-3.2692,-18.2863,-0.1155,0.0592,0.2857,51
3.862,74,9.4145,-0.6327,-11.8389,0.2554,0.0888,-0.0252,77,3.567,68,3.416,-3.4257,-18.163,-0.1271,0.1442,0.3379,51
3.913,75,9.4899,-0.6202,-11.9517,0.258,0.075,-0.0186,77,3.618,69,3.227,-3.4288,-18.2413,-0.165,0.1979,0.3691,51
3.965,76,9.53,-0.573,-11.9348,0.1406,0.113,0.0278,77,3.67,70,2.9838,-3.4497,-18.1756,-0.1171,0.1646,0.3433,51
4.017,77,9.521,-0.5166,-11.7729,-0.0134,0.1238,0.071,77,3.722,71,2.8445,-3.4412,-18.0813,-0.1231,0.1126,0.2634,51
4.069,78,9.5293,-1.2288,-11.7668,-0.2793,0.1107,0.1226,77,3.774,72,2.8051,-3.4766,-18.1285,-0.1171,0.0758,0.1628,51
4.121,79,9.5179,-1.3856,-11.6526,-0.3058,0.1047,0.118,77,3.825,73,2.9094,-3.6252,-18.2537,-0.0896,0.0355,0.0659,51
4.173,80,9.5235,-1.2635,-11.5686,-0.2218,0.0689,0.0892,77,3.877,74,3.1506,-3.6839,-18.3246,-0.0506,-0.0142,-0.0011,51
4.224,81,9.5725,-0.6579,-11.5608,-0.2927,0.0513,0.084,77,3.929,75,3.3039,-3.5921,-18.3319,-0.0558,-0.0499,-0.0432,51
4.276,82,9.4887,-1.2737,-11.6098,-0.3307,0.0055,0.0804,77,3.981,76,3.2618,-3.5927,-18.2388,-0.0534,-0.0333,-0.0116,51
4.328,83,9.4721,-1.4012,-11.6594,-0.2036,-0.001,0.0193,77,4.033,77,3.125,-3.5047,-18.0828,-0.0522,-0.0024,0.0242,51
4.38,84,9.4477,-1.444,-11.7418,-0.0218,0.0239,-0.0295,77,4.084,78,2.9762,-3.37,-18.0766,-0.0345,0.0367,0.0604,51
4.431,85,9.4937,-0.9222,-11.6017,0.0173,0.0275,-0.0403,77,4.136,79,2.9319,-3.2294,-18.3235,-0.0218,0.0474,0.0808,51
4.483,86,9.4777,-0.9005,-11.5151,0.0624,0.003,-0.0336,77,4.188,80,2.9444,-3.1989,-18.6668,-0.0194,0.0082,0.0821,51
4.535,87,9.4846,-0.8653,-11.5673,0.1092,0.0075,-0.0251,77,4.24,81,3.0106,-3.1707,-18.755,-0.0187,-0.0677,0.0598,51
4.587,88,9.4738,-0.9127,-11.5498,0.1255,0.0108,-0.0078,77,4.291,82,3.0192,-3.2034,-18.4948,-0.0119,-0.1267,0.0279,51
4.639,89,9.5089,-0.8933,-11.5584,0.1528,0.0159,0.0033,77,4.343,83,2.9659,-3.2881,-18.238,-0.0114,-0.1433,-0.0067,51
4.69,90,9.4991,-0.7809,-11.4714,0.0593,0.0134,0.042,77,4.395,84,2.9794,-3.3936,-18.1594,-0.0204,-0.1247,-0.0261,51
4.742,91,9.5109,-0.5362,-11.5304,-0.1809,0.0067,0.0921,77,4.447,85,3.0234,-3.5225,-18.2986,-0.0088,-0.073,0.0022,51
4.794,92,9.4733,-0.9238,-11.5101,-0.2483,0.0019,0.1022,77,4.499,86,3.0607,-3.6238,-18.3902,-0.0072,-0.0254,0.0701,51
4.846,93,9.4809,-1.0674,-11.5924,-0.2278,-0.0252,0.0885,77,4.55,87,2.992,-3.6161,-18.4199,0.0134,-0.006,0.1069,51
4.898,94,9.4987,-0.9819,-11.6094,-0.2336,-0.0128,0.0763,77,4.602,88,2.8442,-3.5457,-18.3829,0.0048,0.0016,0.1147,51
4.949,95,9.4746,-0.894,-11.5779,-0.2584,-0.0149,0.0675,77,4.654,89,2.8497,-3.6041,-18.4331,0.0178,0.0118,0.067,51
5.001,96,9.4917,-0.8905,-11.5631,-0.2366,-0.0483,0.033,77,4.706,90,2.8481,-3.6746,-18.4489,0.041,0.0148,-0.0142,51
5.053,97,9.5173,-0.8247,-11.6589,-0.2347,-0.0987,0.0088,77,4.758,91,2.778,-3.7247,-18.4729,0.0573,0.0118,-0.0865,51
5.105,98,9.4513,-0.912,-11.8607,-0.2664,-0.1016,-0.0091,77,4.809,92,2.6662,-3.6576,-18.4138,0.0787,0.0028,-0.0972,51
5.157,99,9.4338,-1.0655,-11.9275,-0.2423,-0.0717,-0.0372,77,4.861,93,2.6519,-3.5983,-18.276,0.1074,-0.0246,-0.0644,51
5.209,100,9.2026,-2.1675,-11.8098,0.0442,-0.0027,-0.0605,77,4.913,94,2.6801,-3.3097,-18.1065,0.1263,-0.0424,-0.044,51
5.26,101,9.8816,0.3418,-11.8221,0.0859,0.0105,-0.0367,77,4.964,95,2.8274,-3.2287,-18.342,0.1175,-0.0432,-0.0933,51
5.312,102,9.7002,-0.002,-11.6608,-0.1038,-0.0175,0.01,77,5.016,96,2.9507,-3.3428,-18.4967,0.0702,-0.0343,-0.0816,51
5.364,103,9.6111,-0.2612,-11.7645,-0.1252,-0.0432,0.0047,77,5.068,97,2.8581,-3.4915,-18.409,0.0572,-0.0372,-0.0845,51
5.416,104,9.5614,-0.3165,-11.8566,-0.1275,-0.0347,-0.0004,77,5.12,98,2.6986,-3.5296,-18.3287,0.0444,-0.0417,-0.0663,51
5.468,105,9.5333,-0.4544,-11.8747,-0.1282,-0.0535,0.0117,77,5.172,99,2.5678,-3.486,-18.2628,0.0433,-0.0513,-0.0447,51
5.519,106,9.4916,-0.6752,-11.9859,-0.0779,-0.0456,0.0021,77,5.223,100,2.5946,-3.4186,-18.3153,0.0308,-0.0562,-0.0337,51
5.571,107,9.4855,-0.6671,-12.0092,-0.0312,-0.0418,0.003,77,5.275,101,2.6519,-3.4193,-18.436,0.0059,-0.0637,-0.0437,51
5.623,108,9.4876,-0.661,-12.0627,-0.033,-0.0378,0.0051,77,5.327,102,2.7147,-3.4546,-18.5181,-0.0157,-0.0735,-0.0493,51
5.675,109,9.4073,-0.7663,-12.0274,-0.0449,-0.0102,0.0119,77,5.379,103,2.7558,-3.5328,-18.4317,-0.0316,-0.0817,-0.0412,51
5.726,110,9.3965,-0.9007,-11.9865,0.0044,-0.0115,0.0005,77,5.43,104,2.7317,-3.5434,-18.301,-0.0193,-0.0764,-0.0422,51
5.778,111,9.547,-0.5586,-11.8973,0.2175,-0.0055,-0.0329,77,5.482,105,2.7271,-3.5437,-18.2817,-0.0124,-0.0551,-0.0708,51
5.83,112,9.5667,-0.429,-11.8372,0.3186,0.012,-0.0373,77,5.534,106,2.834,-3.6185,-18.4491,0.0153,-0.03,-0.1182,51
5.882,113,9.4822,-0.7615,-11.8271,0.3746,0.0023,-0.0454,77,5.586,107,2.794,-3.6791,-18.5568,0.0295,-0.0219,-0.1267,51
5.934,114,9.5815,-0.4673,-11.8637,0.3379,-0.0016,-0.046,77,5.638,108,2.7497,-3.6691,-18.5631,0.048,-0.036,-0.1234,51
5.985,115,9.4925,-0.3444,-11.8586,0.209,0.008,-0.0164,77,5.689,109,2.6999,-3.6496,-18.457,0.0446,-0.0486,-0.0788,51
6.037,116,9.507,-0.5766,-11.8468,0.0492,-0.0264,0.0119,77,5.741,110,2.6698,-3.6026,-18.3305,0.0449,-0.0481,-0.0426,51
6.089,117,9.5011,-0.7322,-11.8572,-0.008,-0.0361,0.0177,77,5.793,111,2.6715,-3.5664,-18.2853,0.0425,-0.028,-0.0182,51
6.141,118,9.4852,-0.7638,-11.9015,-0.0311,-0.0391,0.02,77,5.845,112,2.6838,-3.5377,-18.362,0.0334,-0.0068,-0.007,51
6.193,119,9.4421,-0.8386,-11.8623,-0.0751,-0.0401,0.0233,77,5.896,113,2.6854,-3.5422,-18.4688,0.0205,0.0004,-0.0018,51
6.244,120,9.4559,-0.7222,-11.9028,-0.1223,-0.0432,0.0244,77,5.948,114,2.6755,-3.6294,-18.4751,0.0095,0.0007,0.0064,51
6.296,121,9.4706,-0.6549,-11.9815,-0.219,-0.0646,0.0238,77,6.0,115,2.664,-3.7471,-18.4292,-0.0034,0.0102,0.0591,51
6.348,122,9.4332,-0.902,-12.0709,-0.2755,-0.0638,0.0206,77,6.052,116,2.6727,-3.7417,-18.383,0.0036,0.0133,0.1282,51
6.4,123,9.2387,-1.5969,-12.0738,-0.181,-0.0034,0.0244,77,6.104,117,2.5923,-3.5538,-18.2643,0.003,0.0217,0.17,51
6.452,124,9.6051,-0.5771,-12.031,-0.1606,0.0063,0.0083,77,6.156,118,2.5807,-3.4056,-18.3093,-0.018,0.0434,0.1311,51
6.503,125,9.5029,-0.5926,-11.9395,-0.1625,-0.0151,0.0208,77,6.207,119,2.5931,-3.4034,-18.4406,-0.0568,0.0567,0.097,51
6.555,126,9.4726,-0.7815,-12.0931,-0.1404,-0.0165,0.0126,77,6.259,120,2.5818,-3.4698,-18.5229,-0.0797,0.0403,0.0558,51
6.607,127,9.4546,-0.8393,-12.1847,-0.0545,0.0376,-0.0072,77,6.311,121,2.5219,-3.5572,-18.5041,-0.1001,0.0088,0.0361,51
6.659,128,9.4347,-0.9337,-12.0087,-0.0621,0.0717,-0.0102,77,6.363,122,2.5326,-3.6603,-18.3353,-0.0942,-0.017,0.043,51
6.711,129,9.2666,-1.3657,-11.8545,0.0194,0.068,-0.011,77,6.414,123,2.5179,-3.6299,-18.1913,-0.0683,-0.0234,0.0317,51
6.762,130,9.4745,-0.8352,-11.7656,0.0926,0.0094,-0.0272,77,6.466,124,2.6539,-3.5735,-18.3733,-0.0285,-0.0141,-0.0388,51
6.814,131,9.4168,-0.9108,-11.8403,0.1337,-0.0427,-0.0224,77,6.518,125,2.7567,-3.553,-18.5921,-0.0214,-0.0085,-0.0735,51
6.866,132,9.4486,-0.9893,-11.9575,0.177,-0.04,-0.0397,77,6.57,126,2.734,-3.547,-18.6621,-0.016,-0.0173,-0.081,51
6.918,133,9.4472,-0.8359,-11.9494,0.1398,-0.018,-0.0397,77,6.622,127,2.6544,-3.5525,-18.5406,-0.0198,-0.025,-0.0565,51
6.97,134,9.3812,-0.9903,-11.9398,0.1576,-0.02,-0.046,77,6.673,128,2.5381,-3.5293,-18.3515,-0.0025,-0.0215,-0.037,51
7.021,135,9.3736,-1.0816,-11.94,0.298,-0.0049,-0.0677,77,6.725,129,2.5227,-3.5186,-18.3327,0.0135,-0.0059,-0.053,51
7.073,136,9.4429,-0.7013,-11.8359,0.3649,-0.0156,-0.0623,77,6.777,130,2.6,-3.5463,-18.516,0.0511,-0.0023,-0.0986,51
7.125,137,9.4696,-0.7059,-11.9294,0.2871,-0.0321,-0.043,77,6.829,131,2.6082,-3.5699,-18.6357,0.0559,-0.0196,-0.1097,51
7.177,138,9.4363,-0.5101,-11.7792,0.0634,-0.041,-0.0074,77,6.88,132,2.6013,-3.5815,-18.5286,0.0656,-0.0497,-0.0998,51
7.228,139,9.4083,-0.8529,-11.8136,0.0324,-0.0934,-0.0021,77,6.932,133,2.6599,-3.5192,-18.3927,0.0755,-0.0579,-0.1103,51
7.28,140,9.4143,-0.9537,-12.029,0.0856,-0.094,-0.0215,77,6.984,134,2.6748,-3.4207,-18.4054,0.0852,-0.042,-0.1399,51
7.332,141,9.4328,-0.8279,-12.0591,0.1591,-0.074,-0.0402,77,7.036,135,2.6656,-3.3872,-18.4933,0.0857,-0.0293,-0.1565,51
7.384,142,9.448,-0.8401,-12.05,0.1486,-0.0558,-0.0355,77,7.088,136,2.6339,-3.3866,-18.5321,0.066,-0.0383,-0.1472,51
7.436,143,9.4762,-0.7167,-12.0634,0.094,-0.0244,-0.0219,77,7.139,137,2.6085,-3.4356,-18.516,0.0359,-0.0523,-0.1187,51
7.487,144,9.4258,-0.961,-11.8933,-0.0486,0.0066,0.0282,77,7.191,138,2.6392,-3.5287,-18.402,0.0233,-0.0601,-0.0761,51
7.539,145,9.447,-0.9545,-11.9804,-0.0286,-0.0278,0.0246,77,7.243,139,2.6579,-3.576,-18.3334,0.034,-0.0453,-0.0617,51
7.591,146,9.4976,-0.8894,-12.0488,-0.045,-0.0258,0.0264,77,7.294,140,2.6906,-3.6073,-18.3952,0.0385,-0.0144,-0.0476,51
7.643,147,9.4466,-0.9484,-12.0371,-0.0674,-0.0327,0.0296,77,7.346,141,2.6843,-3.6252,-18.4554,0.0446,0.0044,-0.0395,51
7.695,148,9.4543,-0.9077,-12.103,-0.0856,-0.0465,0.0217,77,7.398,142,2.599,-3.6342,-18.4807,0.0523,-0.0025,-0.0488,51
7.746,149,9.4171,-0.8523,-12.158,-0.0725,-0.0438,0.0131,77,7.45,143,2.5121,-3.7001,-18.4517,0.0877,-0.0376,-0.0887,51
7.798,150,9.4008,-0.913,-12.1766,-0.0585,-0.0411,0.0081,77,7.502,144,2.3956,-3.6014,-18.4203,0.1138,-0.0814,-0.1404,51
7.85,151,9.3743,-0.9606,-12.1901,-0.0609,-0.0263,0.0122,77,7.554,145,2.3719,-3.5474,-18.4326,0.1146,-0.1162,-0.1528,51
7.902,152,9.3699,-1.0798,-12.1997,-0.0148,-0.0258,-0.0049,77,7.606,146,2.4697,-3.4907,-18.441,0.1081,-0.1394,-0.1501,51
7.954,153,9.3843,-1.0752,-12.3068,0.141,-0.0138,-0.0427,77,7.657,147,2.5598,-3.4332,-18.4572,0.0871,-0.137,-0.1382,51
8.006,154,9.413,-0.7218,-12.2208,0.139,-0.0087,-0.0348,77,7.709,148,2.605,-3.4888,-18.4644,0.0697,-0.1186,-0.1286,51
8.057,155,9.401,-0.6965,-12.2064,0.0899,-0.0188,-0.01,77,7.761,149,2.6103,-3.612,-18.4535,0.0467,-0.0935,-0.1076,51
8.109,156,9.4023,-0.8269,-12.1709,0.0097,-0.0081,0.0245,77,7.812,150,2.5843,-3.6971,-18.4047,0.0338,-0.061,-0.0766,51
8.161,157,9.3921,-0.9652,-12.215,0.008,-0.024,0.0254,77,7.864,151,2.517,-3.7171,-18.376,0.0488,-0.0285,-0.0479,51
8.213,158,9.4053,-0.9182,-12.3058,-0.0029,-0.0221,0.0226,77,7.916,152,2.4369,-3.6409,-18.4921,0.027,-0.0073,-0.0037,51
8.264,159,9.3809,-0.9214,-12.2555,-0.033,0.0038,0.0261,77,7.968,153,2.4314,-3.6443,-18.5613,0.0175,-0.0199,0.0276,51
8.316,160,9.3789,-0.8726,-12.2159,-0.047,-0.0076,0.0221,77,8.02,154,2.4374,-3.7074,-18.4781,0.0091,-0.0357,0.0168,51
8.368,161,9.3722,-0.822,-12.2278,-0.0715,-0.0065,0.0244,77,8.071,155,2.4103,-3.811,-18.455,0.0095,-0.039,-0.0168,51
8.42,162,9.3755,-0.739,-12.261,-0.083,-0.0048,0.0266,77,8.123,156,2.3716,-3.8397,-18.5033,0.001,-0.0311,-0.0207,51
8.472,163,9.3613,-0.8968,-12.284,-0.0844,0.0077,0.0153,77,8.175,157,2.3732,-3.8172,-18.4766,0.0091,-0.0204,0.0238,51
8.523,164,9.3827,-0.9302,-12.2497,-0.0607,0.023,-0.0106,77,8.227,158,2.3537,-3.7424,-18.428,-0.0051,-0.0085,0.069,51
8.575,165,9.2999,-1.1038,-12.2035,-0.0176,0.0457,-0.0132,77,8.278,159,2.3114,-3.6009,-18.3669,-0.0241,0.0042,0.0923,51
8.627,166,9.4424,-0.6449,-12.1048,-0.055,0.0355,0.0006,77,8.33,160,2.3223,-3.4942,-18.3926,-0.0271,0.0135,0.0297,51
8.679,167,9.4277,-0.6848,-12.1414,-0.0418,0.0205,0.0059,77,8.382,161,2.3551,-3.5212,-18.5261,-0.0581,0.0227,-0.0272,51
8.731,168,9.4423,-0.7449,-12.1386,-0.0241,0.0297,0.0043,77,8.434,162,2.3796,-3.6271,-18.5954,-0.0613,0.0146,-0.0485,51
8.782,169,9.4221,-0.777,-12.0906,-0.0119,0.0292,-0.0016,77,8.486,163,2.3534,-3.6405,-18.4851,-0.0509,0.0024,-0.0338,51
8.834,170,9.4241,-0.7541,-12.0984,-0.0093,0.0294,0.0031,77,8.537,164,2.3439,-3.6033,-18.3724,-0.0512,0.0118,-0.003,51
8.886,171,9.4221,-0.8357,-12.0809,-0.0148,0.0295,0.0093,77,8.589,165,2.3773,-3.5514,-18.3998,-0.0539,0.0279,0.0103,51
8.938,172,9.4241,-0.8248,-12.0784,-0.0185,0.0275,0.0144,77,8.641,166,2.3779,-3.5431,-18.5573,-0.057,0.0264,-0.0027,51
8.99,173,9.4743,-0.9211,-11.9766,-0.0368,0.0322,0.0241,77,8.693,167,2.3757,-3.5677,-18.6352,-0.069,0.0109,-0.0115,51
9.041,174,9.4556,-0.9266,-12.0194,-0.0392,0.0268,0.0179,77,8.745,168,2.3318,-3.5967,-18.5791,-0.0773,0.0025,-0.0128,51
9.093,175,9.4799,-0.8861,-11.9696,-0.0544,0.0341,0.0148,77,8.796,169,2.3297,-3.6575,-18.5355,-0.0643,-0.0048,-0.0063,51
9.145,176,9.467,-0.8765,-11.9958,-0.0543,0.0515,0.006,77,8.848,170,2.342,-3.6519,-18.5632,-0.05,-0.0054,0.0138,51
9.197,177,9.4563,-0.8893,-11.9856,-0.067,0.0748,-0.0,77,8.9,171,2.3447,-3.5994,-18.609,-0.0311,-0.0112,0.0405,51
9.249,178,9.4368,-0.9451,-11.8879,-0.0717,0.0856,-0.0026,77,8.952,172,2.3756,-3.5148,-18.5695,-0.0211,-0.0196,0.0641,51
9.3,179,9.4346,-0.8271,-11.794,-0.0529,0.0814,-0.0066,77,9.004,173,2.4198,-3.3978,-18.4675,-0.0079,-0.0198,0.0564,51
9.352,180,9.4554,-0.7805,-11.7691,-0.0315,0.0616,-0.0063,77,9.055,174,2.5728,-3.2981,-18.3987,0.0249,0.0068,0.0027,51
9.404,181,9.4557,-0.8047,-11.7861,-0.0149,0.0487,-0.0023,77,9.107,175,2.5942,-3.2193,-18.5609,-0.0245,0.055,-0.0484,51
9.456,182,9.4836,-0.7914,-11.7551,0.0186,0.0417,-0.01,77,9.159,176,2.6181,-3.2592,-18.6826,-0.0179,0.0649,-0.0921,51
9.508,183,9.4858,-0.6603,-11.6914,0.0326,0.0343,-0.0146,77,9.211,177,2.5802,-3.309,-18.6674,-0.0444,0.0617,-0.1041,51
9.559,184,9.4708,-0.7538,-11.6966,0.0157,0.0272,-0.0059,77,9.263,178,2.5221,-3.3704,-18.5622,-0.0562,0.0582,-0.0744,51
9.611,185,9.4634,-0.7914,-11.7084,0.0067,0.0269,-0.0053,77,9.314,179,2.4957,-3.4119,-18.4363,-0.0454,0.0595,-0.0443,51
9.663,186,9.4019,-0.7307,-11.7101,-0.0138,0.0567,0.0124,77,9.366,180,2.5472,-3.4298,-18.4241,-0.0247,0.0702,-0.0143,51
9.715,187,9.4439,-0.7188,-11.7198,-0.0324,0.0172,0.0122,77,9.418,181,2.6127,-3.3912,-18.5293,-0.0186,0.0748,0.0072,51
9.767,188,9.5001,-0.6651,-11.7688,-0.08,-0.0037,0.0065,77,9.47,182,2.6428,-3.3669,-18.6237,-0.009,0.0626,0.0156,51
9.818,189,9.4805,-0.8042,-11.7951,-0.118,-0.0056,0.0014,77,9.522,183,2.6656,-3.39,-18.6001,-0.0158,0.0369,0.0226,51
9.87,190,9.4595,-0.8303,-11.8274,-0.1218,0.0049,-0.0066,77,9.573,184,2.5648,-3.3456,-18.4663,-0.0118,0.0201,0.0306,51
9.922,191,9.4724,-0.741,-11.7736,-0.1141,0.017,-0.0087,77,9.625,185,2.4975,-3.2754,-18.3813,-0.0156,0.0209,0.0481,51
9.974,192,9.4619,-0.7664,-11.7012,-0.0909,0.0102,-0.0093,77,9.677,186,2.5139,-3.245,-18.4265,-0.0142,0.021,0.0557,51
10.026,193,9.4826,-0.7519,-11.7629,-0.0602,0.0025,-0.0159,77,9.729,187,2.554,-3.2455,-18.4813,-0.0217,0.014,0.0475,51
10.077,194,9.508,-0.6917,-11.748,-0.0489,0.0105,-0.0184,77,9.781,188,2.4539,-3.2198,-18.2543,-0.0394,0.0086,0.0429,51
10.129,195,9.5105,-0.7412,-11.7213,-0.0453,0.0158,-0.021,77,9.832,189,1.9934,-2.9921,-17.1097,-0.2082,0.0593,0.0991,51
10.181,196,9.5342,-0.7294,-11.7427,-0.0329,0.032,-0.0307,77,9.884,190,1.3422,-2.6193,-15.518,-0.3155,0.326,0.0941,51
10.233,197,9.5376,-0.6913,-11.7415,-0.0514,0.06,-0.0416,77,9.936,191,1.0324,-2.0847,-14.1993,-0.3229,0.8681,-0.0014,51
10.284,198,9.5177,-0.6606,-11.6824,-0.0815,0.0885,-0.0485,77,9.988,192,1.7607,-1.9065,-13.6706,-0.2211,1.3185,-0.2176,51
10.336,199,9.5269,-0.6228,-11.5335,-0.1451,0.0925,-0.0423,77,10.04,193,3.1081,-2.9215,-17.9586,-0.0649,1.6473,-0.5673,51
10.388,200,9.4967,-0.6814,-11.433,-0.1452,0.0452,-0.0574,77,10.091,194,5.413,-1.311,-11.406,-0.5947,1.5493,-0.0804,51
10.44,201,10.0241,-0.9777,-11.5633,-0.064,-0.0193,-0.1427,77,10.143,195,4.1652,-1.1505,-11.3665,-0.3928,0.6392,-0.0225,51
