right_leg_timestamp,right_leg_index,right_leg_accel_x,right_leg_accel_y,right_leg_accel_z,right_leg_gyro_x,right_leg_gyro_y,right_leg_gyro_z,right_leg_battery_percentage,left_leg_timestamp,left_leg_index,left_leg_accel_x,left_leg_accel_y,left_leg_accel_z,left_leg_gyro_x,left_leg_gyro_y,left_leg_gyro_z,left_leg_battery_percentage
0.672,12,6.7911,1.8913,-15.4973,-0.0532,-1.9216,-0.8344,71,0.133,2,8.7204,2.6769,-8.9152,-0.0368,-0.0696,0.0224,39
0.724,13,5.6807,1.9148,-15.2953,-0.196,-1.7022,-0.6489,71,0.185,3,9.0579,2.3944,-9.0429,-0.183,-0.0734,0.0214,39
0.775,14,4.8043,2.12,-15.305,-0.1857,-1.4416,-0.4555,71,0.237,4,8.8746,2.3307,-9.0871,-0.0822,-0.0629,0.0142,39
0.827,15,4.238,2.415,-15.6787,-0.0669,-1.1771,-0.2834,71,0.289,5,8.7475,2.7337,-9.0695,0.0614,-0.0588,0.0219,39
0.879,16,3.8711,2.5901,-16.1496,-0.0307,-0.9078,-0.1447,71,0.341,6,8.7242,2.625,-9.0955,0.1053,-0.0407,0.0291,39
0.931,17,3.5655,2.8552,-16.5497,0.0109,-0.6549,-0.0499,71,0.392,7,8.5574,2.7544,-9.0532,0.011,-0.0604,0.0286,39
0.983,18,3.2458,2.9296,-17.0386,-0.0312,-0.4412,0.0134,71,0.444,8,8.5301,2.6634,-9.0071,-0.2,-0.0562,0.011,39
1.034,19,3.1806,3.1292,-17.4682,0.0061,-0.2703,0.0734,71,0.496,9,8.5707,2.5756,-8.9919,-0.1353,-0.0647,-0.0041,39
1.086,20,3.0903,3.2497,-17.9722,0.0127,-0.1659,0.1059,71,0.548,10,8.5394,2.6179,-9.0938,-0.1217,-0.0756,-0.007,39
1.138,21,3.1689,3.3971,-18.3311,0.059,-0.1255,0.1015,71,0.6,11,8.6308,2.6511,-9.0616,-0.1071,-0.0827,0.003,39
1.19,22,3.1201,3.4886,-18.4993,0.0632,-0.1135,0.0629,71,0.652,12,8.6213,2.5903,-9.1322,-0.1264,-0.0838,0.0054,39
1.241,23,2.9923,3.4714,-18.4862,0.0542,-0.1187,0.036,71,0.703,13,8.7124,2.3519,-9.1532,-0.0454,-0.0578,-0.0054,39
1.293,24,2.9694,3.3813,-18.4559,0.046,-0.1079,0.0241,71,0.755,14,8.6021,2.6989,-9.1328,0.1151,-0.0375,-0.026,39
1.345,25,2.9179,3.4293,-18.456,0.0403,-0.0716,0.02,71,0.807,15,8.685,2.5814,-9.2262,0.1043,-0.0259,-0.016,39
1.397,26,2.9241,3.33,-18.5252,0.0487,-0.0378,0.0291,71,0.859,16,8.6462,2.5074,-9.2536,0.1331,-0.0141,-0.0045,39
1.449,27,2.9888,3.3431,-18.562,0.0564,-0.0119,0.0058,71,0.91,17,8.5519,2.5855,-9.2829,0.0532,-0.0286,0.0138,39
1.501,28,2.9857,3.2537,-18.6197,0.0577,0.0023,-0.0056,71,0.962,18,8.5268,2.5167,-9.3376,-0.0737,-0.0197,0.0213,39
1.552,29,2.9432,3.2317,-18.6261,0.0607,0.0119,-0.0019,71,1.014,19,8.4996,2.4743,-9.3608,-0.1599,-0.02,0.0213,39
1.604,30,2.8967,3.0992,-18.6642,0.038,0.0235,0.0192,71,1.066,20,8.5946,2.3995,-9.3435,-0.1242,-0.0154,0.0035,39
1.656,31,2.9861,3.15,-18.7363,0.0462,0.037,0.0318,71,1.117,21,8.6125,2.5268,-9.3399,-0.1394,-0.001,-0.0164,39
1.708,32,3.0435,3.1306,-18.8022,0.0452,0.0305,0.029,71,1.169,22,8.6599,2.5831,-9.2086,-0.1573,-0.0118,-0.0169,39
1.76,33,3.0742,3.0765,-18.7895,0.0622,0.0235,0.0214,71,1.221,23,8.6405,2.6658,-9.2516,-0.1108,-0.0269,-0.0226,39
1.811,34,3.0235,3.0222,-18.7982,0.0737,0.0289,-0.0045,71,1.273,24,8.6371,2.5598,-9.2759,-0.1242,-0.0254,-0.0135,39
1.863,35,3.0574,3.0131,-18.8069,0.1048,0.0335,-0.0356,71,1.325,25,8.6208,2.5163,-9.2867,-0.1872,-0.015,-0.0134,39
1.915,36,3.0549,2.9866,-18.7522,0.0929,0.034,-0.05,71,1.376,26,8.6802,2.3419,-9.2637,-0.1615,-0.005,-0.0141,39
1.967,37,3.0626,3.0005,-18.7236,0.0683,0.0324,-0.0342,71,1.428,27,8.6979,2.3013,-9.2834,-0.0963,0.0034,-0.0318,39
2.018,38,3.1089,3.0555,-18.759,0.0296,0.0299,-0.0049,71,1.48,28,8.7363,2.2245,-9.2805,-0.0483,0.0183,-0.0493,39
2.07,39,3.1831,3.103,-18.7759,0.0074,0.0193,0.01,71,1.532,29,8.7192,1.8639,-9.2996,0.1722,0.0776,-0.0525,39
2.122,40,3.268,3.1416,-18.7655,-0.0206,0.0189,-0.0021,71,1.583,30,8.5811,2.3825,-9.2702,0.2075,0.0335,-0.0359,39
2.174,41,3.2385,3.1926,-18.7011,-0.0254,0.0262,0.0016,71,1.635,31,8.6452,2.3849,-9.2655,0.2361,0.0257,-0.02,39
2.226,42,3.2609,3.1615,-18.6757,-0.0522,0.0354,0.0044,71,1.687,32,8.608,2.3994,-9.3251,0.2671,0.0104,-0.0036,39
2.277,43,3.236,3.1756,-18.6194,-0.0368,0.0496,-0.0193,71,1.739,33,8.5259,2.6145,-9.2429,0.221,-0.0052,0.0074,39
2.329,44,3.1476,3.1105,-18.6024,-0.0254,0.0632,-0.0413,71,1.79,34,8.5093,2.5985,-9.2843,0.1519,0.0006,0.0093,39
2.381,45,3.1493,3.0054,-18.6552,-0.0038,0.0714,-0.0596,71,1.842,35,8.5221,2.5753,-9.2726,0.1074,0.0037,0.0092,39
2.432,46,3.1709,3.0678,-18.8013,0.0074,0.0621,-0.0491,71,1.894,36,8.6162,2.4411,-9.3345,0.0496,0.0071,-0.003,39
2.484,47,3.2119,3.1161,-18.8281,-0.0073,0.0394,-0.0459,71,1.946,37,8.582,2.5389,-9.3388,0.0353,0.0156,-0.0005,39
2.536,48,3.1406,3.1427,-18.7554,-0.0299,0.0172,-0.0478,71,1.998,38,8.6144,2.5286,-9.3138,0.0131,0.0007,0.0108,39
2.588,49,3.0891,3.1276,-18.6511,-0.0398,0.0007,-0.0393,71,2.049,39,8.6846,2.4626,-9.3388,0.0373,0.0065,0.0038,39
2.64,50,3.1176,3.1646,-18.6199,-0.0374,0.0042,-0.0351,71,2.101,40,8.6697,2.4784,-9.3776,0.0748,0.0138,-0.0061,39
2.691,51,3.1374,3.1619,-18.598,-0.0568,0.0115,-0.0267,71,2.153,41,8.6737,2.4444,-9.4041,0.1171,0.0097,0.0014,39
2.743,52,3.1855,3.1982,-18.5946,-0.0435,0.0182,-0.0306,71,2.205,42,8.6059,2.4778,-9.4685,0.1332,0.0021,0.009,39
2.795,53,3.1648,3.1475,-18.5691,-0.0318,0.0171,-0.0318,71,2.257,43,8.5911,2.516,-9.4899,0.1198,0.0034,0.014,39
2.847,54,3.1036,3.0495,-18.5027,-0.0083,0.0185,-0.0147,71,2.308,44,8.5721,2.5305,-9.472,0.1004,0.0111,0.0117,39
2.899,55,3.1138,3.0027,-18.5005,0.0063,0.0209,0.0133,71,2.36,45,8.6023,2.5568,-9.4863,0.0738,0.0198,0.0154,39
2.951,56,3.1611,2.9951,-18.5488,0.0373,0.026,0.04,71,2.412,46,8.6525,2.4806,-9.4608,0.0428,0.027,0.0208,39
3.003,57,3.2088,3.0377,-18.5758,0.0313,0.0261,0.0644,71,2.464,47,8.5693,2.6178,-9.4166,-0.0004,0.0177,0.0215,39
3.054,58,3.2731,3.0706,-18.6003,0.0402,0.0191,0.0854,71,2.515,48,8.531,2.6573,-9.378,-0.0452,0.0079,0.021,39
3.106,59,3.2792,3.0897,-18.6231,0.0378,0.0116,0.0984,71,2.567,49,8.6386,2.4373,-9.3756,-0.0599,0.0052,0.0176,39
3.158,60,3.3336,3.1024,-18.6415,0.0243,0.0061,0.1063,71,2.619,50,8.6612,2.4281,-9.3675,-0.0614,0.0017,0.0122,39
3.21,61,3.3956,3.1491,-18.6268,0.0265,0.0004,0.1031,71,2.671,51,8.613,2.5253,-9.3516,-0.0566,-0.0086,0.0156,39
3.262,62,3.4152,3.1475,-18.5838,0.0135,-0.0022,0.0926,71,2.723,52,8.5493,2.5507,-9.3578,-0.142,-0.0164,0.0168,39
3.313,63,3.3897,3.0853,-18.5596,-0.0028,0.0011,0.0909,71,2.774,53,8.6317,2.2003,-9.46,-0.2794,-0.0013,0.0015,39
3.365,64,3.3746,3.0392,-18.583,-0.0183,0.0136,0.0899,71,2.826,54,8.6295,2.126,-9.4151,-0.2472,-0.0017,-0.0044,39
3.417,65,3.4322,3.0434,-18.6145,-0.0301,0.0219,0.0806,71,2.878,55,8.6083,2.2717,-9.3377,-0.154,0.0072,-0.0139,39
3.468,66,3.5372,3.0409,-18.6752,-0.0219,0.0146,0.0618,71,2.93,56,8.6614,2.2729,-9.3298,-0.0917,0.0122,-0.0188,39
3.52,67,3.5894,3.006,-18.7299,-0.0167,-0.012,0.0612,71,2.981,57,8.5762,2.6745,-9.2517,0.0724,0.026,-0.0114,39
3.572,68,3.565,3.013,-18.6904,-0.0263,-0.0392,0.0659,71,3.033,58,8.636,2.4808,-9.3328,0.1439,0.0377,-0.0055,39
3.624,69,3.4708,3.0079,-18.565,-0.0296,-0.0404,0.062,71,3.085,59,8.6006,2.446,-9.3245,0.1701,0.0445,0.0031,39
3.676,70,3.4567,3.0655,-18.463,-0.0161,-0.0235,0.0411,71,3.137,60,8.591,2.4949,-9.2871,0.1598,0.034,0.0128,39
3.727,71,3.4328,3.066,-18.4271,-0.0041,-0.0031,0.0182,71,3.188,61,8.5697,2.5303,-9.2766,0.1223,0.032,0.0141,39
3.779,72,3.4109,3.0505,-18.452,-0.001,0.0161,-0.0053,71,3.24,62,8.6345,2.4343,-9.2868,0.0659,0.0254,0.0187,39
3.831,73,3.3892,2.9837,-18.5189,0.0037,0.029,-0.0134,71,3.292,63,8.6225,2.4639,-9.2782,-0.0215,-0.0058,0.0216,39
3.883,74,3.3772,2.9316,-18.5971,0.0184,0.0365,-0.0027,71,3.344,64,8.644,2.421,-9.3187,-0.084,-0.0052,0.0157,39
3.935,75,3.3833,2.8921,-18.65,0.0002,0.0306,0.0213,71,3.395,65,8.6565,2.3949,-9.2853,-0.085,-0.0037,0.0105,39
3.986,76,3.4225,2.9137,-18.651,0.0039,0.0155,0.0364,71,3.447,66,8.6142,2.4341,-9.2555,-0.1147,-0.0017,0.0074,39
4.038,77,3.4264,2.9195,-18.6313,-0.0,-0.0018,0.0371,71,3.499,67,8.6986,2.3632,-9.2553,-0.2091,-0.0076,0.0132,39
4.09,78,3.4593,2.8878,-18.6127,0.0065,-0.0085,0.0305,71,3.551,68,8.765,2.1811,-9.2781,-0.2185,-0.0127,0.0127,39
4.142,79,3.4656,2.9075,-18.5724,-0.0018,-0.0084,0.0282,71,3.603,69,8.7534,2.0448,-9.3006,-0.1866,-0.0153,0.0013,39
4.194,80,3.5566,2.9549,-18.5524,0.0129,-0.0089,0.0264,71,3.655,70,8.7584,1.9859,-9.2483,-0.0278,0.0225,-0.0351,39
4.245,81,3.6186,2.9993,-18.5833,0.0089,-0.0066,0.0137,71,3.706,71,8.8294,2.2921,-9.262,0.1269,0.0222,-0.0321,39
4.297,82,3.6153,3.017,-18.5754,0.028,-0.002,-0.0021,71,3.758,72,8.7816,2.4515,-9.219,0.1952,0.0198,-0.0208,39
4.349,83,3.586,3.0451,-18.532,0.0348,-0.0014,-0.0151,71,3.81,73,8.7006,2.6052,-9.1853,0.2046,0.0093,-0.0071,39
4.401,84,3.5268,3.0341,-18.5047,0.0295,0.0026,-0.0226,71,3.862,74,8.6597,2.5785,-9.1937,0.1446,0.001,0.0104,39
4.453,85,3.5062,3.013,-18.4622,0.0339,0.01,-0.0315,71,3.914,75,8.6173,2.6802,-9.1852,0.081,-0.0143,0.0174,39
4.504,86,3.4639,2.9092,-18.4639,0.0221,0.0192,-0.0387,71,3.965,76,8.592,2.6704,-9.2429,-0.0524,-0.0216,0.0165,39
4.556,87,3.4171,2.7625,-18.5239,0.0284,0.0235,-0.0287,71,4.017,77,8.5769,2.5355,-9.2217,-0.147,-0.0336,0.0075,39
4.608,88,3.4302,2.6963,-18.6077,0.0156,0.022,-0.0107,71,4.069,78,8.5671,2.4728,-9.3341,-0.2294,-0.0494,0.0095,39
4.66,89,3.4467,2.6759,-18.708,0.0119,0.0176,0.0224,71,4.121,79,8.6644,2.3312,-9.3338,-0.1747,-0.0475,0.0056,39
4.712,90,3.5165,2.7786,-18.7725,0.0041,-0.0021,0.0575,71,4.172,80,8.6219,2.4427,-9.248,-0.06,-0.0083,-0.0282,39
4.763,91,3.5649,2.8562,-18.7662,-0.0132,-0.0225,0.0748,71,4.224,81,8.6952,2.2842,-9.29,0.0182,0.0156,-0.0449,39
4.815,92,3.5828,2.9701,-18.6837,-0.0007,-0.0331,0.0658,71,4.276,82,8.5933,2.4814,-9.2514,0.2238,0.011,-0.0376,39
4.867,93,3.5835,3.0437,-18.565,-0.0033,-0.0329,0.036,71,4.328,83,8.6252,2.5046,-9.3622,0.1955,0.0082,-0.0216,39
4.919,94,3.5314,3.1094,-18.4393,0.0017,-0.0179,0.0113,71,4.38,84,8.707,2.4322,-9.3521,0.1382,0.0225,-0.0089,39
4.97,95,3.5398,3.097,-18.4163,-0.0021,0.0074,-0.021,71,4.431,85,8.629,2.6084,-9.3205,0.1436,0.0309,0.0027,39
5.022,96,3.5349,3.0256,-18.4961,-0.0026,0.0301,-0.0465,71,4.483,86,8.6353,2.5345,-9.313,0.1159,0.0377,0.0062,39
5.074,97,3.5682,3.0272,-18.5869,0.004,0.0345,-0.0692,71,4.535,87,8.5773,2.6091,-9.2808,0.0893,0.0307,0.0078,39
5.126,98,3.5554,2.9659,-18.6657,0.0076,0.0181,-0.088,71,4.587,88,8.6199,2.5302,-9.2883,0.0366,0.0025,0.0119,39
5.178,99,3.5044,2.9543,-18.6433,0.0025,-0.0005,-0.0938,71,4.638,89,8.6369,2.5068,-9.275,0.0324,0.0179,-0.0021,39
5.229,100,3.4364,2.8778,-18.5257,-0.0108,-0.0057,-0.0894,71,4.69,90,8.5803,2.5957,-9.2679,0.0208,0.001,-0.0006,39
5.281,101,3.458,2.8598,-18.4267,-0.0069,0.0054,-0.0576,71,4.742,91,8.6201,2.5284,-9.2852,0.0114,-0.0046,-0.0,39
5.333,102,3.4924,2.8758,-18.4751,0.0266,0.0189,-0.0334,71,4.794,92,8.6134,2.5261,-9.2843,-0.0027,-0.0021,-0.0003,39
5.385,103,3.5393,2.8971,-18.6041,0.0202,0.0245,-0.0174,71,4.845,93,8.6519,2.5023,-9.2936,-0.0364,-0.0102,0.0027,39
5.437,104,3.5486,2.8888,-18.6404,-0.0032,0.0228,0.0048,71,4.897,94,8.6885,2.5139,-9.3127,-0.0695,-0.0112,-0.0004,39
5.488,105,3.5701,2.8625,-18.5961,0.0011,0.0168,0.0227,71,4.949,95,8.6766,2.5076,-9.3036,-0.0537,-0.0061,-0.0027,39
5.54,106,3.5506,2.879,-18.6276,0.0273,0.0144,0.0371,71,5.001,96,8.6603,2.5158,-9.2812,-0.0382,-0.0013,-0.0045,39
5.592,107,3.522,2.9355,-18.6241,0.0263,0.0063,0.0381,71,5.053,97,8.6604,2.4893,-9.2721,-0.0254,-0.0028,-0.0015,39
5.644,108,3.481,2.9708,-18.5981,0.0015,-0.0024,0.0341,71,5.104,98,8.6794,2.4402,-9.2713,-0.0034,0.0029,-0.0056,39
5.695,109,3.5126,3.003,-18.5297,0.0049,-0.005,0.0185,71,5.156,99,8.6439,2.4839,-9.2862,-0.0013,0.0008,-0.0071,39
5.747,110,3.4913,3.005,-18.4964,0.0092,0.0038,0.0037,71,5.208,100,8.6395,2.4696,-9.2642,0.0061,0.0012,-0.008,39
5.799,111,3.5294,2.9887,-18.4997,0.0005,0.0172,-0.0092,71,5.26,101,8.6533,2.4692,-9.2665,0.0372,0.0024,-0.0116,39
5.851,112,3.5807,2.9879,-18.5503,-0.0046,0.0303,-0.0219,71,5.312,102,8.6399,2.5899,-9.2526,0.0809,-0.0069,-0.009,39
5.903,113,3.6241,3.0156,-18.5617,0.0197,0.029,-0.0385,71,5.363,103,8.5854,2.6314,-9.2608,0.0825,-0.0043,-0.0002,39
5.954,114,3.6189,2.9924,-18.5358,0.015,0.024,-0.0503,71,5.415,104,8.5994,2.66,-9.27,0.0531,-0.0055,0.0076,39
6.006,115,3.577,2.9339,-18.4766,0.0153,0.0224,-0.0508,71,5.467,105,8.6674,2.5255,-9.2982,0.0135,-0.0002,0.0126,39
6.058,116,3.4808,2.8529,-18.3274,0.0236,0.0375,-0.0397,71,5.518,106,8.6592,2.5124,-9.296,0.0022,0.0052,0.008,39
6.11,117,3.5439,2.8331,-18.4292,0.0556,0.0677,-0.0226,71,5.57,107,8.6645,2.5129,-9.3076,0.0221,0.0143,0.0039,39
6.162,118,3.6449,2.8748,-18.5415,0.04,0.0776,-0.0138,71,5.622,108,8.6747,2.4781,-9.3161,0.0232,0.0148,0.007,39
6.213,119,3.6949,2.8457,-18.6086,0.0279,0.0618,-0.0104,71,5.674,109,8.5992,2.5725,-9.3364,-0.0082,-0.0059,0.0118,39
6.265,120,3.7026,2.8267,-18.6006,0.033,0.0448,0.0003,71,5.726,110,8.6319,2.5108,-9.3287,-0.0257,-0.0079,0.0101,39
6.317,121,3.7231,2.8024,-18.5931,0.0207,0.0348,0.0198,71,5.777,111,8.6036,2.5605,-9.3074,-0.0264,-0.0161,0.0051,39
6.369,122,3.7325,2.8024,-18.5546,0.0044,0.0252,0.0377,71,5.829,112,8.6163,2.5167,-9.3391,-0.0491,-0.0194,0.0073,39
6.421,123,3.7073,2.7944,-18.5328,0.011,0.0146,0.0549,71,5.881,113,8.6588,2.4019,-9.3498,-0.0749,-0.0148,0.0041,39
6.472,124,3.7108,2.818,-18.554,-0.0037,0.0112,0.0675,71,5.933,114,8.6751,2.3818,-9.3501,-0.0422,-0.0021,-0.0045,39
6.524,125,3.744,2.8372,-18.5477,-0.0064,0.0066,0.066,71,5.984,115,8.6416,2.4621,-9.3334,0.0022,0.0127,-0.0138,39
6.576,126,3.7104,2.8397,-18.4813,0.0094,0.0001,0.0478,71,6.036,116,8.6212,2.498,-9.3364,0.0028,0.0082,-0.0077,39
6.628,127,3.7385,2.864,-18.4593,0.035,0.0001,0.0286,71,6.088,117,8.6175,2.5175,-9.3177,-0.0051,0.003,-0.0077,39
6.68,128,3.7545,2.8628,-18.4571,0.0111,0.0047,0.0114,71,6.14,118,8.6114,2.5382,-9.3012,0.0065,0.0017,-0.012,39
6.731,129,3.8392,2.8768,-18.484,0.006,0.0115,0.003,71,6.192,119,8.6328,2.5409,-9.2995,0.0109,0.0017,-0.0125,39
6.783,130,3.8901,2.9052,-18.4802,0.0034,0.0144,-0.0035,71,6.243,120,8.6164,2.5629,-9.296,0.0183,-0.0015,-0.0078,39
6.835,131,3.8945,2.9346,-18.453,-0.0053,0.0154,-0.0012,71,6.295,121,8.6285,2.4855,-9.3331,0.0394,-0.001,-0.003,39
6.887,132,3.7937,2.9106,-18.3079,-0.0107,0.0218,-0.0032,71,6.347,122,8.6152,2.5191,-9.3259,0.0451,-0.0062,0.0022,39
6.938,133,3.8088,2.8432,-18.3887,0.0236,0.0381,-0.0065,71,6.399,123,8.6179,2.5347,-9.2992,0.0356,-0.0255,0.0174,39
6.99,134,3.826,2.8505,-18.4195,-0.0084,0.0394,-0.0137,71,6.451,124,8.6406,2.5278,-9.3462,0.0289,-0.0269,0.0191,39
7.042,135,3.8768,2.742,-18.521,-0.0176,0.0332,-0.0114,71,6.502,125,8.637,2.5121,-9.3777,0.0294,-0.0362,0.0158,39
7.094,136,3.9204,2.772,-18.5206,0.0073,0.0172,-0.001,71,6.554,126,8.6183,2.5319,-9.3818,0.0205,-0.0466,0.0159,39
7.146,137,3.9053,2.7596,-18.5311,-0.0041,0.0042,0.0125,71,6.606,127,8.6002,2.5502,-9.3839,0.0078,-0.0397,0.0192,39
7.197,138,3.841,2.7792,-18.474,-0.0141,-0.0046,0.0264,71,6.658,128,8.6369,2.5102,-9.3923,-0.02,-0.0287,0.0193,39
7.249,139,3.7968,2.7534,-18.4464,-0.0127,-0.0051,0.0415,71,6.709,129,8.6741,2.342,-9.4581,-0.0695,-0.0225,0.0365,39
7.301,140,3.7845,2.7836,-18.4781,-0.0163,-0.0004,0.0556,71,6.761,130,8.7594,2.2558,-9.4975,-0.0801,-0.0213,0.0306,39
7.353,141,3.7987,2.7781,-18.5164,-0.0212,-0.0017,0.0653,71,6.813,131,8.7057,2.3716,-9.4921,-0.0681,-0.0274,0.024,39
7.405,142,3.8125,2.8223,-18.6131,-0.0002,-0.0174,0.064,71,6.865,132,8.6913,2.377,-9.4811,-0.0545,-0.0206,0.0137,39
7.457,143,3.7939,2.838,-18.6415,0.0146,-0.045,0.0489,71,6.917,133,8.6893,2.377,-9.4846,-0.0278,-0.0059,-0.0039,39
7.508,144,3.7697,2.8427,-18.5387,-0.0113,-0.0667,0.0351,71,6.968,134,8.6394,2.4871,-9.5062,-0.0208,-0.0249,-0.0121,39
7.56,145,3.7305,2.7697,-18.418,-0.0052,-0.0661,0.0317,71,7.02,135,8.6883,2.4131,-9.4852,-0.0345,-0.0094,-0.0132,39
7.612,146,3.778,2.7417,-18.3911,0.0153,-0.0469,0.03,71,7.072,136,8.6792,2.4182,-9.4644,-0.0172,0.0095,-0.0224,39
7.664,147,3.8381,2.7389,-18.4148,-0.0052,-0.0212,0.0272,71,7.124,137,8.6662,2.4743,-9.4558,-0.0135,0.0126,-0.0211,39
7.716,148,3.8818,2.748,-18.4473,-0.0027,-0.005,0.0242,71,7.175,138,8.6555,2.4957,-9.4146,-0.0205,0.0286,-0.0189,39
7.767,149,3.882,2.7267,-18.4347,0.0225,-0.0062,0.0183,71,7.227,139,8.5803,2.5495,-9.3665,-0.0296,0.0308,-0.0154,39
7.819,150,3.8482,2.6602,-18.4013,0.0144,0.0013,0.0322,71,7.279,140,8.6387,2.466,-9.3582,-0.0484,0.0192,-0.0072,39
7.871,151,3.903,2.6232,-18.421,0.0044,0.0209,0.0504,71,7.331,141,8.648,2.478,-9.3486,-0.0365,0.0079,-0.0122,39
7.923,152,3.9398,2.6192,-18.4634,0.0003,0.0331,0.0563,71,7.382,142,8.634,2.5015,-9.3291,-0.0361,0.0021,-0.0109,39
7.974,153,3.9701,2.6729,-18.4889,0.0052,0.0333,0.0572,71,7.434,143,8.603,2.5419,-9.3331,-0.0363,-0.0049,-0.0104,39
8.026,154,3.9568,2.6881,-18.4917,-0.0041,0.0301,0.0536,71,7.486,144,8.6417,2.4841,-9.3155,-0.0157,0.0079,-0.0196,39
8.078,155,3.9416,2.7352,-18.5104,-0.0049,0.0308,0.041,71,7.538,145,8.6583,2.4765,-9.333,0.0198,-0.0047,-0.026,39
8.13,156,3.9678,2.7881,-18.4602,-0.0022,0.0273,0.0216,71,7.589,146,8.6449,2.485,-9.3537,0.0937,-0.0062,-0.0264,39
8.182,157,3.943,2.7767,-18.398,-0.0123,0.0305,0.0139,71,7.641,147,8.6142,2.5615,-9.384,0.1137,-0.002,-0.0179,39
8.233,158,3.9827,2.7938,-18.398,-0.0084,0.0348,0.0031,71,7.693,148,8.6436,2.5153,-9.4244,0.0839,0.0123,-0.0165,39
8.285,159,3.9912,2.7091,-18.3927,-0.0315,0.0427,-0.0104,71,7.745,149,8.6103,2.566,-9.4027,0.0847,0.0043,-0.0175,39
8.337,160,3.9945,2.6819,-18.4145,-0.0143,0.047,-0.0173,71,7.797,150,8.628,2.5568,-9.4194,0.0703,-0.0037,-0.015,39
8.389,161,3.9864,2.679,-18.4364,-0.0073,0.041,-0.0176,71,7.848,151,8.6271,2.5556,-9.4326,0.0508,-0.0066,-0.0107,39
8.441,162,4.0092,2.6669,-18.4349,-0.0254,0.0351,-0.0092,71,7.9,152,8.6465,2.5439,-9.4188,0.0728,-0.0173,-0.0104,39
8.492,163,3.9984,2.6491,-18.4714,-0.0172,0.0291,-0.0003,71,7.952,153,8.7091,2.4995,-9.4199,0.1509,-0.0428,-0.0108,39
8.544,164,4.0067,2.7185,-18.4579,-0.0022,0.0182,0.0076,71,8.004,154,8.6846,2.5813,-9.4805,0.1554,-0.0575,-0.0059,39
8.596,165,4.0273,2.7564,-18.4012,-0.0152,0.0032,0.0124,71,8.056,155,8.6403,2.6478,-9.5335,0.1526,-0.0523,-0.0039,39
8.648,166,4.0342,2.7879,-18.3153,-0.0059,-0.0029,0.004,71,8.107,156,8.6228,2.621,-9.5925,0.114,-0.0462,0.0005,39
8.7,167,3.9881,2.7531,-18.2798,0.012,0.0032,-0.0019,71,8.159,157,8.6233,2.6196,-9.625,0.0836,-0.0387,-0.0014,39
8.751,168,4.0185,2.756,-18.3199,-0.0066,0.0172,0.0043,71,8.211,158,8.6245,2.6339,-9.6383,0.0595,-0.0282,-0.0016,39
8.803,169,4.0628,2.764,-18.3929,-0.0025,0.0258,0.0043,71,8.263,159,8.6422,2.5807,-9.6764,0.0642,-0.0233,0.0013,39
8.855,170,4.0745,2.8123,-18.4461,0.0035,0.0149,0.0037,71,8.314,160,8.5937,2.6233,-9.691,0.0517,-0.0246,0.0037,39
8.907,171,4.0333,2.7679,-18.4826,-0.0067,0.0028,0.0007,71,8.366,161,8.6281,2.6094,-9.6982,0.054,-0.0228,0.0033,39
8.959,172,3.9782,2.7639,-18.431,-0.0075,-0.0094,-0.0068,71,8.418,162,8.6028,2.5892,-9.7368,0.0525,-0.0147,0.002,39
9.01,173,3.9926,2.7518,-18.3862,0.0046,-0.014,-0.0091,71,8.47,163,8.6202,2.5857,-9.7216,0.0826,-0.0186,0.0053,39
9.062,174,3.9997,2.7438,-18.37,0.0028,-0.011,-0.0144,71,8.522,164,8.5983,2.6125,-9.7623,0.0856,-0.0167,0.0054,39
9.114,175,4.0375,2.6755,-18.3498,0.0338,-0.0106,-0.0245,71,8.573,165,8.4485,2.7991,-9.7919,0.0358,-0.0145,0.007,39
9.165,176,4.0272,2.7068,-18.3189,0.0495,0.0019,-0.0324,71,8.625,166,8.4992,2.6907,-9.8108,-0.0347,0.0087,0.0107,39
9.217,177,4.0437,2.6426,-18.3238,0.0396,0.0223,-0.0211,71,8.677,167,8.5916,2.5384,-9.7636,-0.0402,0.0061,0.0079,39
9.269,178,4.0493,2.6482,-18.3379,0.0269,0.0404,-0.0069,71,8.729,168,8.5657,2.6324,-9.8021,-0.0613,0.0018,0.0065,39
9.321,179,4.031,2.6522,-18.4314,0.0411,0.0446,0.0208,71,8.78,169,8.6228,2.5479,-9.7934,-0.0792,0.0208,0.003,39
9.373,180,4.0504,2.6845,-18.4806,0.0026,0.0342,0.0333,71,8.832,170,8.6049,2.4923,-9.7468,-0.0072,0.004,-0.012,39
9.424,181,4.0374,2.6337,-18.4979,-0.002,0.0219,0.0384,71,8.884,171,8.6326,2.5803,-9.7426,0.0565,-0.0113,-0.0131,39
9.476,182,4.067,2.6424,-18.4601,-0.0022,-0.0013,0.052,71,8.936,172,8.6233,2.6001,-9.7626,0.0759,-0.0096,-0.0131,39
9.528,183,4.1492,2.691,-18.3703,-0.0098,-0.0158,0.0597,71,8.988,173,8.541,2.7279,-9.7477,0.0531,0.003,-0.0102,39
9.58,184,4.161,2.6993,-18.3027,0.0043,-0.0226,0.0556,71,9.039,174,8.5909,2.6682,-9.7382,0.0666,0.0129,-0.0033,39
9.632,185,4.195,2.72,-18.2505,0.0092,-0.0172,0.0426,71,9.091,175,8.5811,2.6707,-9.7302,0.0436,0.0105,-0.0017,39
9.683,186,4.237,2.6998,-18.2429,0.011,0.0,0.0243,71,9.143,176,8.5803,2.6629,-9.6931,0.0293,0.0081,0.0025,39
9.735,187,4.238,2.695,-18.2712,0.0072,0.0152,0.0088,71,9.195,177,8.6398,2.4638,-9.787,-0.0403,0.0153,0.0122,39
9.787,188,4.2271,2.6367,-18.3089,0.0205,0.0324,-0.0019,71,9.246,178,8.6644,2.4373,-9.7109,-0.0392,0.0034,0.0127,39
9.839,189,4.1969,2.605,-18.3249,0.0121,0.0432,-0.0121,71,9.298,179,8.642,2.549,-9.723,-0.0283,-0.012,0.0092,39
9.891,190,4.1247,2.5298,-18.3313,0.0156,0.0421,-0.0091,71,9.35,180,8.6272,2.5523,-9.7578,-0.073,-0.0058,0.0135,39
9.942,191,4.1201,2.4873,-18.3736,0.0346,0.0398,0.0054,71,9.402,181,8.6008,2.5977,-9.73,-0.0859,0.0132,0.0112,39
9.994,192,4.1587,2.4354,-18.4298,0.0279,0.0362,0.0177,71,9.454,182,8.6289,2.5236,-9.6622,-0.0986,0.0265,0.0104,39
10.046,193,4.1938,2.4529,-18.4506,0.0316,0.028,0.0291,71,9.505,183,8.6255,2.5574,-9.6143,-0.0684,0.0186,0.0008,39
10.098,194,4.223,2.5001,-18.439,0.0232,0.0137,0.0382,71,9.557,184,8.6683,2.5012,-9.6381,-0.0671,0.0139,0.0049,39
10.15,195,4.2493,2.5177,-18.386,0.0176,0.0012,0.0475,71,9.609,185,8.6711,2.4543,-9.6171,-0.0618,0.02,-0.0026,39
10.201,196,4.2803,2.5322,-18.3448,0.0177,0.0011,0.0468,71,9.661,186,8.6846,2.3899,-9.5994,-0.0231,0.0202,-0.0098,39
10.254,197,4.2781,2.5788,-18.2852,0.0054,0.0075,0.04,71,9.713,187,8.6359,2.5363,-9.6278,-0.023,0.0072,-0.0099,39
10.305,198,4.288,2.628,-18.2921,-0.0367,0.0215,0.0373,71,9.764,188,8.6478,2.4934,-9.6608,-0.0441,0.0234,-0.0064,39
10.357,199,4.3171,2.6448,-18.3265,-0.0717,0.0271,0.0195,71,9.816,189,8.6259,2.5874,-9.5453,-0.037,0.0277,-0.0069,39
10.409,200,4.2914,2.6077,-18.3239,-0.0296,0.0172,-0.0021,71,9.868,190,8.6228,2.5685,-9.5567,-0.0475,0.024,-0.004,39
10.46,201,4.2467,2.6533,-18.3006,-0.0042,0.0132,-0.0168,71,9.919,191,8.6178,2.5578,-9.5409,-0.053,0.0278,-0.0043,39
10.512,202,4.2194,2.645,-18.2781,-0.0232,0.0144,-0.0417,71,9.971,192,8.6491,2.4949,-9.503,-0.0474,0.0335,-0.0101,39
10.564,203,4.2572,2.602,-18.2887,0.0111,0.0156,-0.0665,71,10.023,193,8.6521,2.5098,-9.4505,-0.0402,0.0288,-0.0152,39
10.616,204,4.292,2.5955,-18.3063,0.0276,0.0207,-0.0815,71,10.075,194,8.6069,2.5633,-9.4183,0.0051,0.0172,-0.0195,39
10.668,205,4.3395,2.6395,-18.2873,0.0108,0.0219,-0.0719,71,10.127,195,8.5792,2.5838,-9.4017,0.0885,-0.021,-0.0226,39
10.72,206,4.3683,2.6279,-18.2776,-0.0215,0.0148,-0.0414,71,10.178,196,8.6343,2.5457,-9.4986,0.1298,-0.0246,-0.0235,39
10.772,207,4.3951,2.718,-18.3147,-0.0062,0.0049,-0.0135,71,10.23,197,8.571,2.6692,-9.5352,0.1209,-0.0052,-0.0191,39
10.823,208,4.3722,2.728,-18.3086,-0.0305,-0.0032,-0.0047,71,10.282,198,8.5752,2.6289,-9.538,0.1173,0.0052,-0.01,39
10.875,209,4.4026,2.7634,-18.2864,-0.0166,-0.0035,-0.0026,71,10.334,199,8.6099,2.6392,-9.555,0.124,-0.0071,-0.0053,39
10.927,210,4.3901,2.7168,-18.2287,-0.0185,0.0017,-0.0176,71,10.385,200,8.6118,2.654,-9.5977,0.1257,-0.0036,-0.0001,39
10.979,211,4.3425,2.7334,-18.1626,-0.0071,0.0166,-0.028,71,10.437,201,8.6056,2.638,-9.6411,0.058,-0.001,0.0038,39
11.031,212,4.3042,2.7559,-18.1404,0.0106,0.0357,-0.0463,71,10.489,202,8.5983,2.6979,-9.6025,0.0623,0.0074,0.0055,39
11.082,213,4.296,2.7469,-18.1699,0.0251,0.0567,-0.0616,71,10.541,203,8.5901,2.6997,-9.5965,0.0411,0.0127,0.0041,39
11.134,214,4.3267,2.7417,-18.2416,0.0175,0.0679,-0.0745,71,10.593,204,8.6169,2.6977,-9.5691,0.0253,0.0104,0.0074,39
11.186,215,4.3347,2.7257,-18.2735,0.0242,0.0635,-0.0805,71,10.644,205,8.6,2.6928,-9.5854,0.003,0.0113,0.0096,39
11.237,216,4.3145,2.685,-18.2737,0.0259,0.0525,-0.075,71,10.696,206,8.6063,2.6647,-9.5718,0.0041,0.0137,0.0099,39
11.289,217,4.2994,2.6719,-18.2491,0.0228,0.0422,-0.0665,71,10.748,207,8.6496,2.5975,-9.5946,-0.0166,0.0173,0.0104,39
11.341,218,4.3169,2.6363,-18.2365,0.0301,0.034,-0.0501,71,10.8,208,8.6451,2.6007,-9.5728,-0.024,0.0227,0.0138,39
11.393,219,4.3629,2.6682,-18.2138,0.0263,0.0296,-0.0309,71,10.852,209,8.6193,2.6299,-9.5738,-0.0241,0.02,0.0145,39
11.445,220,4.468,2.6092,-18.256,-0.0379,0.0306,0.0068,71,10.903,210,8.5994,2.5734,-9.5568,-0.0067,0.0176,0.0155,39
11.496,221,4.5744,2.6145,-18.0445,-0.0151,0.0319,0.0547,71,10.955,211,8.5975,2.5414,-9.5413,0.0236,0.0071,0.0155,39
11.548,222,4.6462,2.4708,-17.0375,-0.0552,0.1789,0.1432,71,11.007,212,8.649,2.4847,-9.5752,0.034,0.0168,0.0124,39
11.6,223,4.4252,2.2447,-15.9041,-0.2075,0.5202,0.2929,71,11.059,213,8.6405,2.5813,-9.5951,0.0554,0.0348,0.0216,39
11.652,224,4.7996,1.9793,-14.6343,-0.3541,1.0518,0.5634,71,11.111,214,8.5166,2.8347,-9.5568,0.0023,0.0509,0.0406,39
11.704,225,5.6947,2.0287,-14.3072,-0.5115,1.446,0.8304,71,11.162,215,8.3873,2.8012,-9.5357,-0.0828,0.0802,0.0617,39
11.755,226,6.8974,1.9427,-14.6061,-0.422,1.7337,1.0719,71,11.214,216,8.379,2.8154,-9.4058,-0.1166,0.0855,0.0639,39
11.808,227,8.5495,1.5786,-14.9133,0.2202,1.9437,1.2033,71,11.266,217,8.3691,2.6375,-9.3752,-0.2563,0.0698,0.0713,39
11.859,228,9.7002,1.3382,-15.2025,0.6124,2.0721,1.1115,71,11.318,218,8.4136,2.546,-9.273,-0.2628,0.0764,0.0499,39
11.911,229,10.564,0.2839,-15.132,1.0141,1.8587,0.9865,71,11.369,219,8.6696,2.127,-9.3014,-0.3138,0.0433,0.0594,39
11.963,230,10.3102,0.2763,-14.3239,0.835,1.4921,0.8544,71,11.421,220,8.7189,2.0926,-9.2341,-0.2801,0.034,0.0447,39
12.014,231,9.8018,1.7202,-13.1601,0.4127,1.1672,0.7332,71,11.473,221,8.6434,2.3222,-9.1814,-0.2079,0.0212,0.0557,39
