right_leg_timestamp,right_leg_index,right_leg_accel_x,right_leg_accel_y,right_leg_accel_z,right_leg_gyro_x,right_leg_gyro_y,right_leg_gyro_z,right_leg_battery_percentage,left_leg_timestamp,left_leg_index,left_leg_accel_x,left_leg_accel_y,left_leg_accel_z,left_leg_gyro_x,left_leg_gyro_y,left_leg_gyro_z,left_leg_battery_percentage
0.427,8,1.6518,0.0641,-19.2972,0.101,-0.2546,-0.4272,92,0.072,1,8.7601,0.0074,-11.458,-0.1405,-0.0501,-0.0217,63
0.478,9,1.4162,0.0068,-19.541,0.1382,-0.2371,-0.6056,92,0.124,2,8.8379,0.0878,-11.5142,-0.4621,-0.0654,0.0267,63
0.53,10,1.3724,-0.0233,-19.7234,0.087,-0.2654,-0.7592,92,0.176,3,8.8675,0.0414,-11.6815,-0.3364,-0.0716,-0.0583,63
0.582,11,1.343,-0.3384,-19.764,0.0019,-0.2892,-0.8625,92,0.227,4,8.8643,0.1725,-11.789,-0.262,-0.0411,-0.0683,63
0.634,12,1.2472,-0.7501,-19.6654,-0.0304,-0.2968,-0.883,92,0.279,5,8.8338,0.2359,-11.7754,-0.1954,-0.0006,-0.0439,63
0.686,13,1.0897,-1.0166,-19.5165,-0.0526,-0.2571,-0.8098,92,0.331,6,8.8719,0.2809,-11.672,-0.1811,0.0235,-0.0165,63
0.737,14,0.8698,-1.1598,-19.3809,-0.0344,-0.2198,-0.6697,92,0.383,7,8.8423,0.1868,-11.6499,-0.233,0.0201,0.0082,63
0.789,15,0.8376,-1.1827,-19.3232,0.0019,-0.1628,-0.4681,92,0.435,8,8.8406,0.1421,-11.6452,-0.2361,0.0057,0.014,63
0.841,16,0.8625,-1.1235,-19.3665,0.0319,-0.101,-0.2634,92,0.486,9,8.8424,0.1252,-11.6932,-0.2068,0.0086,0.0104,63
0.893,17,0.9589,-0.9495,-19.474,0.0315,-0.0386,-0.0704,92,0.538,10,8.8582,0.1472,-11.692,-0.1758,0.0133,0.0087,63
0.944,18,0.9565,-0.8028,-19.5553,0.0767,0.0114,0.0536,92,0.59,11,8.8444,0.1712,-11.6753,-0.1837,0.0206,0.004,63
0.996,19,0.8022,-0.4951,-19.58,0.1073,0.0578,0.1432,92,0.642,12,8.8785,0.1682,-11.6444,-0.1796,0.0208,-0.0131,63
1.048,20,0.6587,-0.4063,-19.6493,0.0808,0.0737,0.1661,92,0.693,13,8.857,0.1469,-11.7017,-0.1654,0.0263,-0.0183,63
1.1,21,0.6806,-0.4156,-19.7195,0.0308,0.0517,0.1514,92,0.745,14,8.8173,0.0702,-11.7245,-0.1301,0.0546,-0.0344,63
1.152,22,0.8891,-0.5971,-19.7237,0.0189,0.0272,0.1296,92,0.797,15,8.8619,0.2016,-11.718,-0.0359,0.0872,-0.023,63
1.204,23,1.022,-0.604,-19.6222,0.0181,0.0377,0.1249,92,0.849,16,8.9042,0.1442,-11.6118,0.0293,0.1145,-0.0107,63
1.255,24,1.027,-0.5899,-19.5942,0.0223,0.0579,0.1259,92,0.901,17,8.7474,-0.1754,-11.7581,0.1249,0.1407,-0.0144,63
1.307,25,0.8958,-0.5995,-19.6481,0.0184,0.0601,0.1272,92,0.952,18,8.7367,-0.2727,-11.6127,0.135,0.1645,0.0002,63
1.359,26,0.85,-0.5922,-19.7432,0.0286,0.0484,0.1052,92,1.004,19,8.6649,-0.1458,-11.503,0.1149,0.1824,0.0046,63
1.411,27,0.8654,-0.6241,-19.7518,0.0066,0.0251,0.0839,92,1.056,20,8.73,-0.3156,-11.4491,0.2371,0.1489,-0.0448,63
1.463,28,0.8573,-0.6865,-19.6206,-0.0259,0.0101,0.0678,92,1.108,21,8.8444,-0.0911,-11.2267,0.1594,0.0804,-0.0075,63
1.514,29,0.8791,-0.756,-19.514,-0.0105,0.0088,0.0591,92,1.159,22,8.8223,-0.0357,-11.2268,0.0884,0.0239,0.0136,63
1.566,30,0.9686,-0.7988,-19.5021,0.0067,0.025,0.0639,92,1.211,23,8.8597,-0.0246,-11.1934,0.0099,0.0188,0.0165,63
1.618,31,0.9436,-0.9294,-19.5702,0.0407,0.0367,0.0753,92,1.263,24,8.8555,-0.0953,-11.2319,0.0626,0.011,-0.0048,63
1.67,32,0.9146,-0.9529,-19.6353,0.0844,0.041,0.0826,92,1.315,25,8.8035,0.1815,-11.195,0.0353,0.0139,-0.0114,63
1.722,33,0.8457,-0.8095,-19.6951,0.1029,0.036,0.0906,92,1.367,26,8.8372,0.1232,-11.1387,0.0477,0.0026,-0.0127,63
1.773,34,0.8519,-0.6536,-19.6976,0.1288,0.0136,0.0602,92,1.418,27,8.8365,0.1312,-11.0971,0.0529,-0.0265,-0.0191,63
1.825,35,0.8662,-0.5128,-19.6911,0.1374,0.0021,0.0131,92,1.47,28,8.8527,0.1769,-11.0991,0.0461,-0.0685,-0.023,63
1.877,36,0.9271,-0.6291,-19.6731,0.0641,-0.0045,-0.0187,92,1.522,29,8.9008,0.1731,-11.1876,0.0135,-0.0893,-0.015,63
1.929,37,0.9477,-0.8103,-19.614,0.0474,-0.0108,-0.0407,92,1.574,30,8.8999,0.1208,-11.2834,0.0172,-0.0905,-0.022,63
1.98,38,0.9981,-0.8987,-19.5297,0.0171,-0.0127,-0.0421,92,1.625,31,8.8768,0.0668,-11.3375,0.0474,-0.0842,-0.0284,63
2.032,39,1.0852,-0.886,-19.4575,-0.0037,-0.005,-0.032,92,1.677,32,8.8884,0.2098,-11.32,0.0608,-0.0719,-0.0386,63
2.084,40,1.1937,-0.9518,-19.4469,-0.0257,0.0239,-0.0381,92,1.729,33,8.8745,0.2272,-11.3703,0.0684,-0.0656,-0.0386,63
2.136,41,1.2176,-1.0179,-19.4782,-0.0172,0.0624,-0.0461,92,1.781,34,8.8455,0.1939,-11.4551,0.1149,0.0017,-0.0392,63
2.187,42,1.1649,-1.1082,-19.5106,0.0244,0.0907,-0.0535,92,1.832,35,8.8594,0.2632,-11.3959,0.109,0.0511,-0.0344,63
2.239,43,1.1141,-1.0599,-19.5699,0.0526,0.1035,-0.0434,92,1.884,36,8.8408,0.315,-11.3834,0.1517,0.0805,-0.0328,63
2.291,44,1.0553,-1.0332,-19.5819,0.0455,0.0909,-0.033,92,1.936,37,8.8668,0.3457,-11.2909,0.152,0.0639,-0.016,63
2.343,45,1.0315,-1.0664,-19.5716,0.0389,0.0726,-0.0365,92,1.988,38,8.9053,0.2754,-11.2284,0.1288,0.062,0.0023,63
2.395,46,1.1442,-1.0553,-19.6355,0.0459,0.0646,-0.0524,92,2.04,39,8.903,0.2778,-11.1946,0.1298,0.0377,0.0085,63
2.446,47,1.218,-1.0432,-19.7066,0.052,0.0522,-0.0596,92,2.091,40,8.8918,0.2945,-11.1626,0.1023,0.008,0.0202,63
2.498,48,1.1496,-1.0399,-19.6938,0.024,0.0285,-0.0533,92,2.143,41,8.8958,0.2008,-11.2094,0.0644,-0.0044,0.0221,63
2.55,49,1.0972,-1.0886,-19.6484,0.0114,-0.0018,-0.0504,92,2.195,42,8.8562,0.1242,-11.2038,0.0283,-0.019,0.0093,63
2.602,50,1.0938,-1.097,-19.6169,0.0206,-0.0249,-0.0453,92,2.247,43,8.8725,0.0904,-11.2453,-0.027,-0.0511,-0.0019,63
2.654,51,1.1494,-1.0803,-19.6435,0.0184,-0.0452,-0.0367,92,2.298,44,8.8907,0.1679,-11.2831,-0.0077,-0.0532,-0.0106,63
2.706,52,1.322,-1.0418,-19.6664,0.0043,-0.0718,-0.0247,92,2.35,45,8.8795,0.1959,-11.2623,-0.0206,-0.0599,-0.0075,63
2.758,53,1.3831,-1.0544,-19.5761,-0.0172,-0.0635,-0.0203,92,2.402,46,8.8545,0.3567,-11.2503,-0.0538,-0.0531,-0.0004,63
2.809,54,1.2917,-1.0969,-19.4464,-0.0302,-0.0435,-0.0228,92,2.454,47,8.8818,0.1147,-11.3825,-0.0843,-0.0648,0.001,63
2.861,55,1.2107,-1.0995,-19.3891,0.0112,-0.02,-0.0315,92,2.506,48,8.8917,0.1859,-11.4027,-0.081,-0.0636,-0.0104,63
2.913,56,1.1797,-1.0755,-19.5054,0.0258,-0.0022,-0.0386,92,2.557,49,8.8824,0.2404,-11.4629,-0.0927,-0.0507,-0.0075,63
2.964,57,1.136,-1.0571,-19.666,0.0371,-0.0019,-0.0465,92,2.609,50,8.8585,0.1915,-11.484,-0.1094,-0.0231,0.0118,63
3.016,58,1.1321,-1.062,-19.7217,0.0071,-0.0162,-0.0431,92,2.661,51,8.8539,0.1764,-11.4679,-0.0809,-0.0101,0.0133,63
3.068,59,1.2554,-1.1375,-19.6705,-0.0252,-0.0372,-0.0035,92,2.713,52,8.8592,0.2166,-11.4352,-0.0577,-0.0099,0.0087,63
3.12,60,1.32,-1.2124,-19.5178,-0.0307,-0.0265,0.0394,92,2.765,53,8.902,0.3303,-11.4192,-0.0896,-0.0002,0.0234,63
3.172,61,1.2121,-1.1278,-19.3415,0.0448,0.0028,0.0588,92,2.816,54,8.873,0.215,-11.4308,-0.1414,0.0113,0.0355,63
3.223,62,1.0391,-0.943,-19.3137,0.0957,0.0405,0.04,92,2.868,55,8.885,0.1779,-11.4287,-0.1381,0.0142,0.0226,63
3.275,63,0.8861,-0.8771,-19.5158,0.1155,0.0503,-0.0053,92,2.92,56,8.884,0.1748,-11.4505,-0.1076,0.0288,0.0195,63
3.327,64,0.9619,-0.867,-19.7113,0.1097,0.0195,-0.0554,92,2.972,57,8.883,0.1456,-11.4315,-0.0563,0.0299,0.0086,63
3.379,65,1.2018,-1.0152,-19.7429,0.0584,-0.0201,-0.0703,92,3.023,58,8.8559,0.1547,-11.4309,-0.0239,0.0248,0.0031,63
3.431,66,1.3983,-1.2595,-19.6642,0.0147,-0.035,-0.0482,92,3.075,59,8.8498,0.1959,-11.4237,-0.0327,0.0188,0.0072,63
3.482,67,1.3799,-1.4181,-19.5767,0.0067,-0.0192,0.001,92,3.127,60,8.884,0.1515,-11.3895,-0.0342,0.0268,0.0096,63
3.534,68,1.1658,-1.4252,-19.5899,0.0148,-0.0058,0.0574,92,3.179,61,9.0006,-0.08,-11.3962,0.0091,0.0636,-0.0084,63
3.586,69,0.9694,-1.3468,-19.6534,0.0185,-0.0385,0.0872,92,3.231,62,8.9694,0.1282,-11.3169,0.1187,0.0497,-0.0552,63
3.638,70,0.9501,-1.2449,-19.5347,-0.0163,-0.0662,0.1039,92,3.282,63,8.9686,0.2886,-11.242,0.152,0.035,-0.0535,63
3.689,71,1.0341,-1.2267,-19.4818,-0.0239,-0.0619,0.1076,92,3.334,64,8.9364,0.2681,-11.2444,0.1617,0.0258,-0.0329,63
3.741,72,1.1262,-1.2165,-19.495,-0.0174,-0.0449,0.0971,92,3.386,65,8.8761,0.3249,-11.2764,0.1364,0.029,-0.0155,63
3.793,73,1.1366,-1.2269,-19.5484,-0.0147,-0.0309,0.091,92,3.438,66,8.9296,0.371,-11.1596,0.097,0.0349,0.0075,63
3.845,74,1.0837,-1.1882,-19.5372,-0.0138,-0.0223,0.0879,92,3.489,67,8.9398,0.3197,-11.1218,0.0034,0.0265,0.0277,63
3.897,75,1.0486,-1.1563,-19.5382,-0.0351,-0.0069,0.0863,92,3.541,68,8.9168,0.259,-11.1447,-0.0552,0.0109,0.0332,63
3.949,76,1.0407,-1.099,-19.5477,-0.0597,0.0135,0.0822,92,3.593,69,8.9091,0.1545,-11.1901,-0.0564,-0.0186,0.0215,63
4.0,77,0.9569,-1.1157,-19.5877,-0.0733,0.0278,0.071,92,3.645,70,8.9218,0.2493,-11.2078,-0.0587,-0.0551,0.0156,63
4.052,78,0.9174,-1.2134,-19.5906,-0.0801,0.0152,0.0565,92,3.696,71,8.896,0.1851,-11.2692,-0.0677,-0.0504,0.0174,63
4.104,79,1.0564,-1.3052,-19.5825,-0.0876,-0.0169,0.0562,92,3.748,72,8.9171,0.221,-11.3065,-0.0681,-0.05,0.0072,63
4.156,80,1.1983,-1.2465,-19.5235,-0.0269,-0.0123,0.0637,92,3.8,73,8.8801,0.2408,-11.361,-0.0917,-0.0465,0.0133,63
4.208,81,1.1324,-1.1175,-19.4717,0.0231,0.0105,0.0741,92,3.852,74,8.8868,0.2287,-11.3718,-0.0973,-0.0587,0.0171,63
4.259,82,0.9353,-1.0305,-19.4218,0.0512,0.0306,0.0892,92,3.904,75,8.9024,0.1777,-11.3957,-0.074,-0.0477,0.0143,63
4.311,83,0.8362,-1.1228,-19.5119,0.0571,0.0378,0.109,92,3.956,76,8.8853,0.1832,-11.3762,-0.0586,-0.0354,0.0112,63
4.363,84,0.9641,-1.2039,-19.698,0.047,0.022,0.1374,92,4.007,77,8.8952,0.2148,-11.3616,-0.0638,-0.0372,0.0087,63
4.415,85,1.0647,-1.1976,-19.7093,0.0526,0.0012,0.1589,92,4.059,78,8.8879,0.258,-11.3458,-0.0661,-0.0331,0.0089,63
4.467,86,1.1142,-1.0329,-19.5655,0.0639,-0.0061,0.1604,92,4.111,79,8.8973,0.2741,-11.3955,-0.0979,-0.0325,0.0099,63
4.518,87,1.0883,-0.9736,-19.444,0.0443,0.0071,0.1455,92,4.162,80,8.8877,0.2095,-11.5061,-0.1008,-0.025,0.0116,63
4.57,88,1.0938,-1.1714,-19.3875,0.0083,0.0261,0.1307,92,4.214,81,8.9094,0.0379,-11.5915,-0.051,-0.0041,-0.0084,63
4.622,89,1.087,-1.3463,-19.4438,0.0357,0.0463,0.115,92,4.266,82,8.9907,0.4357,-11.297,0.0768,0.0458,-0.0616,63
4.674,90,1.0948,-1.3105,-19.5929,0.0569,0.0559,0.121,92,4.318,83,8.9692,0.3768,-11.341,0.1126,0.0831,-0.0628,63
4.725,91,1.0879,-1.1792,-19.6776,0.0198,0.0511,0.1333,92,4.37,84,8.915,0.4572,-11.3013,0.131,0.0713,-0.0516,63
4.777,92,1.0883,-1.177,-19.6322,-0.008,0.0348,0.1246,92,4.421,85,8.8731,0.4406,-11.2967,0.1217,0.0337,-0.0364,63
4.829,93,1.0978,-1.2577,-19.5578,-0.0386,0.0252,0.1093,92,4.473,86,8.876,0.3829,-11.311,0.1086,0.021,-0.0257,63
4.881,94,1.1046,-1.3301,-19.5076,-0.0126,0.0261,0.0933,92,4.525,87,8.8836,0.3347,-11.3118,0.0895,0.0365,-0.0203,63
4.933,95,1.0763,-1.259,-19.514,0.021,0.0343,0.0694,92,4.577,88,8.8901,0.3766,-11.2839,0.099,0.0385,-0.0146,63
4.984,96,0.9839,-1.1318,-19.6133,0.0263,0.0336,0.0383,92,4.628,89,8.9181,0.4393,-11.0867,0.0768,0.0113,-0.0041,63
5.036,97,0.9054,-1.1867,-19.6754,-0.0062,0.0073,0.0141,92,4.68,90,8.9187,0.3679,-11.1351,0.0448,-0.0387,0.0029,63
5.088,98,0.9349,-1.4199,-19.7119,-0.041,-0.0244,0.0159,92,4.732,91,8.9282,0.3266,-11.2548,0.0171,-0.0692,0.0022,63
5.14,99,1.0475,-1.5093,-19.6167,-0.0669,-0.0489,0.0291,92,4.784,92,8.9378,0.3626,-11.2543,0.0217,-0.0764,-0.0029,63
5.192,100,1.0918,-1.3911,-19.4856,-0.012,-0.053,0.0395,92,4.836,93,8.8967,0.2903,-11.3448,-0.0179,-0.0753,0.0096,63
5.243,101,0.9965,-1.2394,-19.4211,0.0352,-0.041,0.0369,92,4.887,94,8.8588,0.2869,-11.3916,-0.0349,-0.0801,0.01,63
5.295,102,0.9951,-1.0402,-19.4558,0.0181,-0.0268,0.0123,92,4.939,95,8.8502,0.3013,-11.4641,-0.0411,-0.0837,0.0067,63
5.347,103,1.0536,-1.1152,-19.5308,0.0125,-0.0214,-0.0282,92,4.991,96,8.8428,0.2477,-11.5475,-0.0399,-0.0829,-0.0009,63
5.399,104,1.0633,-1.2177,-19.5535,0.026,-0.0191,-0.0577,92,5.043,97,8.8425,0.2263,-11.6593,-0.0102,-0.0779,-0.0092,63
5.451,105,1.059,-1.3562,-19.5675,-0.016,-0.0101,-0.0544,92,5.094,98,8.8147,0.381,-11.6154,-0.0339,-0.0528,0.0055,63
5.502,106,1.1085,-1.3852,-19.577,-0.0074,-0.0064,-0.0386,92,5.146,99,8.8235,0.3207,-11.6193,-0.1037,-0.0306,0.031,63
5.554,107,1.0484,-1.3225,-19.5182,0.0123,0.0086,-0.0218,92,5.198,100,8.8143,0.1845,-11.6715,-0.1251,-0.0276,0.0311,63
5.606,108,0.9485,-1.22,-19.4626,0.0135,0.0177,-0.0115,92,5.25,101,8.8193,0.0662,-11.8141,-0.0537,-0.0255,0.0103,63
5.658,109,0.9636,-1.2053,-19.5315,0.0079,0.0189,-0.0096,92,5.302,102,8.8259,0.2632,-11.7145,0.0547,-0.0176,-0.026,63
5.71,110,0.9721,-1.2693,-19.6256,-0.0207,0.0124,-0.0154,92,5.354,103,8.8262,0.2963,-11.6783,0.0609,-0.0033,-0.0225,63
5.761,111,0.9353,-1.2796,-19.6539,-0.0193,-0.0045,-0.0136,92,5.405,104,8.7973,0.3165,-11.6031,0.0575,0.0048,-0.0111,63
5.813,112,0.9514,-1.2664,-19.6752,-0.0612,-0.0207,-0.0019,92,5.457,105,8.7966,0.2948,-11.6006,0.0344,0.0094,-0.0062,63
5.865,113,0.9714,-1.2289,-19.6004,-0.0265,-0.039,0.0078,92,5.509,106,8.8225,0.3082,-11.5607,0.0207,0.0104,-0.0033,63
5.917,114,0.9872,-1.1617,-19.4905,-0.0033,-0.0421,0.0096,92,5.561,107,8.8383,0.246,-11.5957,0.008,0.0098,0.0017,63
5.969,115,1.0051,-1.1471,-19.5191,-0.0094,-0.027,-0.0097,92,5.612,108,8.821,0.2025,-11.6525,0.0156,0.0068,-0.0049,63
6.02,116,1.0235,-1.2035,-19.5474,0.0195,-0.0293,-0.0197,92,5.664,109,8.8551,0.2064,-11.6541,0.0237,-0.0043,-0.016,63
6.072,117,1.0619,-1.1791,-19.5725,0.0294,-0.0285,-0.03,92,5.716,110,8.862,0.2879,-11.6292,0.0343,-0.0024,-0.0132,63
6.124,118,1.0312,-1.0845,-19.5266,0.0316,-0.0199,-0.0414,92,5.768,111,8.8247,0.2484,-11.5946,0.0313,-0.0004,-0.0114,63
6.176,119,0.9563,-1.0783,-19.4638,0.0337,-0.0068,-0.0619,92,5.82,112,8.7888,0.2782,-11.6372,0.0266,-0.0,-0.0156,63
6.228,120,0.9048,-1.1471,-19.5002,0.0218,0.0027,-0.0808,92,5.871,113,8.8044,0.3095,-11.667,0.0198,0.0052,-0.0133,63
6.279,121,0.9219,-1.2578,-19.5714,0.0212,-0.004,-0.0801,92,5.923,114,8.7806,0.2769,-11.6659,0.0263,0.0132,-0.0094,63
6.331,122,0.9788,-1.3567,-19.5706,0.0174,-0.0099,-0.0522,92,5.975,115,8.8263,0.2568,-11.7004,0.037,0.024,-0.0071,63
6.383,123,0.9893,-1.4183,-19.518,0.0115,-0.0071,-0.0172,92,6.027,116,8.8363,0.2924,-11.652,0.0356,0.0304,-0.0027,63
6.435,124,0.964,-1.3646,-19.4655,0.0349,0.0025,0.0155,92,6.078,117,8.8729,0.2508,-11.6457,0.0313,0.0329,-0.0009,63
6.486,125,0.9595,-1.2885,-19.4918,0.0234,0.0199,0.0418,92,6.13,118,8.7011,0.199,-11.7599,0.0242,0.1806,0.0078,63
6.538,126,0.9555,-1.2481,-19.5476,0.0182,0.0272,0.0498,92,6.182,119,8.7729,0.2593,-11.6123,0.0873,0.1699,-0.0088,63
6.59,127,0.9535,-1.2635,-19.5736,0.0043,0.0278,0.0419,92,6.234,120,8.8119,0.3008,-11.4683,0.0964,0.1302,-0.0121,63
6.642,128,0.9384,-1.293,-19.5613,0.022,0.0203,0.0257,92,6.286,121,8.8255,0.3806,-11.3388,0.1034,0.0969,-0.0089,63
6.694,129,0.9336,-1.2709,-19.5648,0.0157,0.0189,0.0109,92,6.337,122,8.8409,0.3413,-11.2837,0.0591,0.0787,0.0013,63
6.745,130,0.948,-1.2837,-19.5825,0.0196,0.0093,0.0007,92,6.389,123,8.8328,0.3427,-11.2403,0.0232,0.062,0.0064,63
6.797,131,1.009,-1.3263,-19.5846,0.0072,0.0009,-0.0003,92,6.441,124,8.8627,0.3036,-11.1774,-0.0169,0.0368,0.0079,63
6.849,132,1.0661,-1.3527,-19.5753,0.0071,-0.0002,0.0067,92,6.492,125,8.8844,0.2845,-11.217,-0.0542,0.0072,0.0121,63
6.901,133,1.0951,-1.2973,-19.5522,0.0034,0.0023,0.0126,92,6.544,126,8.8774,0.2191,-11.2152,-0.0555,-0.0004,0.01,63
6.953,134,1.052,-1.2412,-19.5344,0.0146,0.0051,0.008,92,6.596,127,8.8699,0.2405,-11.2095,-0.0595,-0.0105,0.004,63
7.005,135,1.0268,-1.2595,-19.4971,-0.0197,0.0104,0.0025,92,6.648,128,8.8859,0.2499,-11.217,-0.0584,-0.0218,0.0031,63
7.056,136,1.0679,-1.3933,-19.4998,-0.0196,0.0149,0.0018,92,6.7,129,8.8957,0.2359,-11.2548,-0.0676,-0.0172,0.008,63
7.108,137,1.1046,-1.4217,-19.5168,-0.0046,0.021,0.0072,92,6.752,130,8.8867,0.2419,-11.2734,-0.0593,-0.0091,0.0037,63
7.16,138,1.0716,-1.3551,-19.5327,0.0294,0.0216,0.0118,92,6.804,131,8.8852,0.2427,-11.2916,-0.0387,-0.0043,0.0026,63
7.212,139,1.0275,-1.2239,-19.5385,0.0291,0.0171,0.0041,92,6.855,132,8.9,0.3235,-11.2257,-0.0333,0.0011,0.0089,63
7.264,140,1.0547,-1.2016,-19.5908,0.0211,0.0092,-0.0186,92,6.907,133,8.916,0.2343,-11.2335,-0.0431,0.0067,0.0148,63
7.315,141,1.0838,-1.2554,-19.6209,0.0189,0.0007,-0.0421,92,6.959,134,8.9112,0.2609,-11.2222,-0.0283,0.0087,0.0064,63
7.367,142,1.1229,-1.2761,-19.6199,0.0056,-0.0111,-0.0536,92,7.01,135,8.9018,0.2757,-11.2159,-0.0165,0.0062,0.0042,63
7.419,143,1.1984,-1.2816,-19.5943,0.0087,-0.0216,-0.0628,92,7.062,136,8.9179,0.341,-11.1365,-0.0125,0.0002,0.0064,63
7.471,144,1.2271,-1.2138,-19.5438,0.013,-0.0177,-0.071,92,7.114,137,8.9532,0.2601,-11.138,-0.053,-0.0274,0.0184,63
7.523,145,1.1403,-1.1549,-19.4809,0.0386,-0.0074,-0.0965,92,7.166,138,8.9287,0.2072,-11.1953,-0.0469,-0.0252,0.011,63
7.574,146,1.0631,-1.1767,-19.4345,0.0384,-0.0025,-0.1228,92,7.218,139,8.9166,0.1916,-11.2812,-0.0083,-0.008,-0.0063,63
7.626,147,1.0694,-1.2983,-19.4347,0.0122,0.0042,-0.1269,92,7.269,140,8.9098,0.2676,-11.2539,0.0254,0.0147,-0.0169,63
7.678,148,1.0713,-1.5199,-19.4806,0.0141,0.0093,-0.1174,92,7.321,141,8.9007,0.3004,-11.2347,0.0461,0.0176,-0.0185,63
7.73,149,1.1363,-1.713,-19.5161,0.0131,0.0108,-0.0746,92,7.373,142,8.8719,0.2481,-11.2616,0.0402,0.028,-0.0139,63
7.781,150,1.1625,-1.7559,-19.5006,0.0233,0.0247,-0.007,92,7.425,143,8.892,0.3249,-11.2487,0.0451,0.0182,-0.0176,63
7.833,151,1.0694,-1.6178,-19.4652,0.0276,0.0353,0.0505,92,7.476,144,8.8822,0.3222,-11.2482,0.059,0.0207,-0.0149,63
7.885,152,1.0089,-1.4497,-19.5103,0.0259,0.0388,0.0815,92,7.528,145,8.9188,0.1608,-11.293,0.0838,0.0283,-0.0133,63
7.937,153,1.0604,-1.4367,-19.5694,-0.0093,0.0328,0.0905,92,7.58,146,8.9003,0.3076,-11.175,0.1206,0.0172,-0.0236,63
7.989,154,1.1618,-1.5091,-19.5767,-0.0204,0.0214,0.0862,92,7.632,147,8.8966,0.3892,-11.0908,0.1315,-0.0027,-0.0191,63
8.04,155,1.235,-1.4565,-19.5387,0.0084,0.0103,0.0735,92,7.684,148,8.8642,0.3882,-11.1163,0.0905,-0.0249,0.0006,63
8.092,156,1.1991,-1.2972,-19.4556,0.03,0.011,0.0601,92,7.735,149,8.8291,0.3608,-11.1197,0.0055,-0.0452,0.0118,63
8.144,157,1.1278,-1.2397,-19.4815,0.0327,0.0186,0.0224,92,7.787,150,8.8201,0.373,-11.2135,-0.0785,-0.0814,0.0207,63
8.196,158,1.1207,-1.2751,-19.5906,0.0255,0.0145,-0.0155,92,7.839,151,8.8719,0.1722,-11.3304,-0.1541,-0.0902,0.0337,63
8.248,159,1.1341,-1.365,-19.6333,0.0188,-0.0075,-0.0407,92,7.891,152,8.8678,0.1681,-11.3945,-0.1358,-0.0853,0.0086,63
8.3,160,1.1715,-1.4643,-19.6038,-0.0046,-0.0292,-0.0496,92,7.942,153,8.8007,0.3327,-11.4504,-0.1218,-0.0647,0.0059,63
8.351,161,1.1875,-1.4737,-19.4747,0.0109,-0.0394,-0.0462,92,7.994,154,8.8286,0.2655,-11.441,-0.1199,-0.056,0.0113,63
8.403,162,1.2087,-1.4614,-19.4098,0.0172,-0.0246,-0.0437,92,8.046,155,8.8138,0.2558,-11.4573,-0.1282,-0.05,0.0049,63
8.455,163,1.2553,-1.4617,-19.43,0.0093,-0.0086,-0.0454,92,8.098,156,8.8605,0.2075,-11.5204,-0.0841,-0.0267,-0.0105,63
8.507,164,1.2792,-1.4241,-19.4592,0.0436,0.001,-0.0559,92,8.15,157,8.8875,0.2149,-11.5158,-0.0008,0.015,-0.0328,63
8.558,165,1.2786,-1.3785,-19.4845,0.0353,0.0053,-0.0733,92,8.201,158,8.8944,0.3384,-11.4287,0.0221,0.0233,-0.0352,63
8.61,166,1.236,-1.3326,-19.476,0.0519,-0.0012,-0.0968,92,8.253,159,8.8694,0.3767,-11.4161,0.0533,0.0281,-0.0276,63
8.662,167,1.191,-1.3703,-19.4571,0.0315,-0.0004,-0.1096,92,8.305,160,8.875,0.3743,-11.382,0.0502,0.0261,-0.0183,63
8.714,168,1.1616,-1.5202,-19.4653,0.0097,0.0012,-0.1138,92,8.357,161,8.8746,0.4341,-11.332,0.0406,0.0005,-0.009,63
8.766,169,1.1985,-1.6871,-19.4958,0.0199,-0.0016,-0.0989,92,8.409,162,8.8706,0.3002,-11.3843,0.0377,0.02,0.001,63
8.817,170,1.247,-1.7528,-19.5112,0.0296,-0.0011,-0.0597,92,8.46,163,8.8858,0.3194,-11.372,0.0484,0.0261,-0.0027,63
8.869,171,1.2243,-1.7126,-19.5096,0.038,0.0,-0.0189,92,8.512,164,8.8838,0.346,-11.3515,0.0642,0.0227,-0.0022,63
8.921,172,1.1851,-1.6085,-19.5237,0.0575,-0.0043,0.0062,92,8.564,165,8.8819,0.3053,-11.3329,0.0742,0.0256,-0.0007,63
8.973,173,1.1609,-1.5432,-19.5303,0.0131,-0.0099,0.0247,92,8.616,166,8.8817,0.3188,-11.3203,0.0903,0.0247,-0.0065,63
9.025,174,1.147,-1.5377,-19.5052,0.02,-0.0264,0.0219,92,8.667,167,8.8695,0.3832,-11.323,0.1077,0.015,-0.0077,63
9.076,175,1.1402,-1.5341,-19.4496,0.0248,-0.033,0.006,92,8.719,168,8.8653,0.4054,-11.2889,0.091,-0.0009,-0.0011,63
9.128,176,1.1239,-1.5674,-19.4068,0.0082,-0.0215,-0.0043,92,8.771,169,8.8769,0.4939,-11.1791,0.0418,-0.0091,0.0087,63
9.18,177,1.1681,-1.6254,-19.3909,0.0091,-0.0101,-0.0112,92,8.823,170,8.8716,0.428,-11.2929,-0.0388,-0.0404,0.0272,63
9.232,178,1.2879,-1.6445,-19.4021,0.0086,-0.0074,-0.0124,92,8.875,171,8.8406,0.2976,-11.3814,-0.0562,-0.0392,0.0284,63
9.284,179,1.3416,-1.5575,-19.3906,0.0422,0.0021,-0.0084,92,8.926,172,8.8521,0.2499,-11.425,-0.0413,-0.0496,0.0174,63
9.335,180,1.2443,-1.5341,-19.3982,0.0427,0.0212,-0.0231,92,8.978,173,8.7684,0.2796,-11.4921,-0.0224,-0.0197,0.0112,63
9.387,181,1.1506,-1.4394,-19.4979,0.0449,0.0316,-0.0467,92,9.03,174,8.7991,0.2929,-11.4544,-0.0129,-0.0137,0.0079,63
9.439,182,1.1111,-1.4994,-19.651,-0.003,0.0164,-0.0625,92,9.081,175,8.795,0.2919,-11.4646,-0.0303,-0.0262,0.0105,63
9.491,183,1.1349,-1.5647,-19.66,0.0065,-0.0344,-0.1065,92,9.133,176,8.7828,0.4068,-11.4685,-0.0729,-0.0423,0.0204,63
9.543,184,1.2527,-1.6361,-19.5531,-0.0043,-0.0806,-0.1487,92,9.185,177,8.8141,0.3131,-11.5131,-0.098,-0.05,0.0262,63
9.594,185,1.3481,-1.6005,-19.3728,0.0203,-0.0865,-0.1659,92,9.237,178,8.8458,0.2894,-11.5452,-0.1176,-0.0419,0.0341,63
9.646,186,1.3789,-1.6186,-19.2316,0.0158,-0.0559,-0.1744,92,9.289,179,8.838,0.2352,-11.5768,-0.0922,-0.0209,0.0325,63
9.698,187,1.3027,-1.617,-19.2309,0.0483,-0.0121,-0.1765,92,9.34,180,8.8376,0.1314,-11.6116,-0.0354,0.0108,0.0209,63
9.75,188,1.211,-1.5321,-19.3615,0.0292,0.03,-0.1676,92,9.392,181,8.8887,0.2626,-11.3377,0.0652,0.0124,-0.0131,63
9.802,189,1.125,-1.5247,-19.602,-0.0128,0.0317,-0.1529,92,9.444,182,8.8452,0.2378,-11.4401,0.043,0.0099,0.0036,63
9.854,190,1.1147,-1.3771,-19.6412,-0.0233,-0.0026,-0.1442,92,9.496,183,8.8516,0.3219,-11.4353,-0.0161,-0.0059,0.0227,63
9.905,191,1.1966,-1.182,-19.5542,-0.0459,-0.0372,-0.191,92,9.548,184,8.8198,0.2702,-11.5261,-0.0985,-0.0145,0.0457,63
9.957,192,1.2466,-1.0711,-19.4593,-0.0643,-0.0593,-0.2844,92,9.599,185,8.879,0.2898,-11.5805,-0.1641,-0.0128,0.073,63
10.009,193,1.4082,-1.0019,-19.4484,-0.0777,-0.0706,-0.3889,92,9.651,186,8.8764,0.0068,-11.6413,-0.1683,0.0022,0.0749,63
10.061,194,1.5448,-0.9922,-19.4687,-0.0767,-0.0703,-0.4748,92,9.703,187,8.8874,0.0469,-11.6042,-0.1352,0.004,0.0513,63
10.112,195,1.5783,-0.9991,-19.4707,-0.0782,-0.0586,-0.5438,92,9.755,188,8.9094,0.0496,-11.5838,-0.0783,0.0137,0.033,63
10.164,196,1.5482,-1.0172,-19.4629,-0.1007,-0.0271,-0.5756,92,9.807,189,8.8991,0.0801,-11.5585,-0.0302,0.0192,0.0235,63
10.216,197,1.4862,-1.0683,-19.525,-0.1046,0.0017,-0.5644,92,9.859,190,8.9117,0.0951,-11.5197,-0.0123,0.0181,0.0155,63
10.268,198,1.4403,-1.0632,-19.6011,-0.1088,0.015,-0.5376,92,9.91,191,8.8961,0.1495,-11.445,-0.0082,0.0176,0.0174,63
10.32,199,1.4087,-1.0473,-19.6095,-0.108,0.0157,-0.491,92,9.962,192,8.8842,0.1375,-11.4238,-0.0122,0.0123,0.0186,63
10.372,200,1.4107,-0.9708,-19.6223,-0.1162,0.0137,-0.4305,92,10.014,193,8.8909,0.1693,-11.407,-0.0335,0.0029,0.0195,63
10.423,201,1.4017,-1.0197,-19.6568,-0.1284,0.0157,-0.3698,92,10.066,194,8.9129,0.1398,-11.4957,-0.0709,-0.0016,0.0218,63
10.475,202,1.3332,-1.3648,-19.5944,-0.0669,0.0048,-0.3198,92,10.117,195,8.9436,0.0803,-11.5073,-0.0752,0.0121,0.0225,63
10.527,203,1.4018,-1.136,-19.5852,-0.2087,0.0113,-0.2662,92,10.17,196,8.8891,0.0662,-11.4686,-0.0846,0.0216,0.0173,63
10.579,204,1.4336,-1.1616,-19.5032,-0.0299,-0.0096,-0.1852,92,10.221,197,8.8609,0.0387,-11.4318,-0.0522,0.0251,0.0094,63
10.63,205,1.4804,-0.9421,-19.4771,-0.0023,0.0031,-0.0904,92,10.273,198,8.9225,0.0485,-11.4434,-0.0081,0.0149,-0.0091,63
10.682,206,1.5054,-0.7355,-19.5937,-0.024,0.0157,-0.008,92,10.325,199,8.9065,0.094,-11.4008,0.0029,0.0083,-0.0094,63
10.734,207,1.4829,-0.5297,-19.6584,0.0004,0.0023,0.0325,92,10.376,200,8.9169,0.1387,-11.4112,0.0185,-0.0111,-0.0148,63
10.786,208,1.5439,-0.5586,-19.6943,-0.0112,-0.0191,0.0368,92,10.428,201,8.8822,0.1648,-11.4106,0.0235,-0.0234,-0.0183,63
10.838,209,1.7542,-0.6909,-19.6075,0.0013,-0.0334,0.0618,92,10.48,202,8.8681,0.1552,-11.4321,0.0283,-0.0331,-0.0205,63
10.889,210,1.8599,-0.5965,-19.4944,-0.0052,0.0124,0.1305,92,10.532,203,8.8793,0.0969,-11.3762,0.0117,-0.0512,-0.0235,63
10.941,211,1.527,-0.4982,-19.3655,0.043,0.069,0.1795,92,10.584,204,8.9164,0.1107,-11.4284,0.0065,-0.0517,-0.0209,63
10.993,212,1.135,-0.3338,-19.4321,0.0859,0.0945,0.1816,92,10.636,205,8.888,0.1173,-11.5293,-0.0033,-0.0381,-0.0137,63
11.045,213,1.0825,-0.25,-19.6309,0.0663,0.0716,0.1663,92,10.687,206,8.8539,0.1324,-11.5401,0.0031,-0.0144,-0.0126,63
11.096,214,1.3396,-0.488,-19.8123,0.0627,0.0077,0.1378,92,10.739,207,8.8586,0.1866,-11.5134,0.0079,-0.0057,-0.0198,63
11.148,215,1.5191,-0.7247,-19.7056,0.0672,-0.0389,0.1136,92,10.791,208,8.8807,0.2239,-11.4468,0.0038,-0.0015,-0.0203,63
11.2,216,1.5779,-0.8445,-19.4846,0.0751,-0.0352,0.1327,92,10.843,209,8.8759,0.1926,-11.4794,-0.0036,-0.002,-0.0213,63
11.252,217,1.6677,-0.8839,-19.3591,0.0649,-0.0062,0.17,92,10.894,210,8.8627,0.1368,-11.5009,-0.005,-0.0005,-0.0262,63
11.304,218,1.741,-0.8653,-19.3842,0.0743,0.0353,0.2188,92,10.946,211,8.847,-0.0567,-11.6731,0.0256,0.0022,-0.0566,63
11.356,219,1.7122,-0.7842,-19.4373,0.0663,0.0655,0.2477,92,10.998,212,8.7941,0.391,-11.5671,0.2564,0.151,-0.1411,63
11.407,220,1.6619,-0.6756,-19.4481,0.0687,0.0841,0.2578,92,11.05,213,8.8406,0.582,-11.4345,0.2898,0.1217,-0.1361,63
11.459,221,1.5724,-0.6811,-19.5045,0.0552,0.0978,0.2432,92,11.102,214,8.8631,0.6743,-11.2823,0.2773,0.0818,-0.0946,63
11.511,222,1.5814,-0.7508,-19.6026,0.0313,0.0932,0.2048,92,11.154,215,8.8229,0.6375,-11.2433,0.2124,0.0353,-0.0592,63
11.563,223,1.6176,-0.8706,-19.6439,0.0243,0.0709,0.1713,92,11.205,216,8.8376,0.5888,-11.2819,0.1055,0.0049,-0.0219,63
11.615,224,1.6276,-0.9107,-19.6331,0.0121,0.0416,0.1447,92,11.257,217,8.904,0.3815,-11.3999,0.0727,0.0012,-0.0046,63
11.666,225,1.686,-0.9394,-19.5419,0.0055,0.0166,0.1224,92,11.309,218,8.905,0.4161,-11.4174,0.0334,0.0129,0.0078,63
11.718,226,1.7731,-0.9472,-19.4826,-0.0102,0.0092,0.1093,92,11.361,219,8.8893,0.3014,-11.3889,0.0043,0.0234,0.0259,63
11.77,227,1.8305,-0.9863,-19.4356,-0.0113,0.0165,0.0914,92,11.412,220,8.882,0.2824,-11.3195,0.0211,0.0235,0.0109,63
11.822,228,1.9159,-0.9697,-19.4071,-0.0216,0.0275,0.0831,92,11.464,221,8.8267,0.3782,-11.3244,0.0086,0.0109,0.0104,63
11.874,229,1.8798,-0.968,-19.3998,-0.0103,0.0465,0.0819,92,11.516,222,8.8484,0.3513,-11.2553,-0.0117,-0.0068,0.0059,63
11.925,230,1.8109,-0.9868,-19.4384,0.0049,0.0612,0.0644,92,11.568,223,8.8736,0.3285,-11.2404,-0.0458,-0.0175,0.0063,63
11.977,231,1.9066,-1.0628,-19.5153,-0.0203,0.0683,0.0629,92,11.62,224,8.9014,0.2444,-11.3357,-0.0691,-0.0366,0.013,63
12.029,232,2.0083,-1.1433,-19.5488,-0.0226,0.0757,0.0848,92,11.671,225,8.9168,0.1714,-11.3824,-0.0481,-0.0337,0.0011,63
12.081,233,1.8955,-1.1044,-19.4834,0.0103,0.0886,0.1074,92,11.723,226,8.8932,0.2705,-11.314,-0.0447,-0.0288,0.0099,63
12.132,234,1.6897,-0.9367,-19.4645,0.0735,0.0851,0.1202,92,11.775,227,8.8866,0.2051,-11.4067,-0.0755,-0.045,0.0226,63
12.184,235,1.5859,-0.756,-19.5704,0.0778,0.0609,0.0933,92,11.827,228,8.9136,0.1719,-11.4452,-0.0735,-0.0302,0.021,63
12.236,236,1.6452,-0.7138,-19.6663,0.0434,0.0112,0.0332,92,11.878,229,8.8957,0.1768,-11.4572,-0.0416,-0.0259,0.0112,63
12.288,237,1.8036,-0.7759,-19.5774,0.044,-0.0454,-0.0389,92,11.93,230,8.8781,0.1432,-11.4679,-0.0184,-0.0124,0.0005,63
12.34,238,1.9583,-0.9866,-19.4149,-0.0039,-0.0725,-0.0907,92,11.982,231,8.8964,0.2116,-11.414,0.0587,-0.0065,-0.0331,63
12.391,239,2.174,-1.3425,-19.2338,-0.0107,-0.0609,-0.1176,92,12.034,232,8.9058,0.1696,-11.4815,0.0334,0.0101,-0.0139,63
12.443,240,2.2165,-1.5069,-19.116,0.0182,-0.0096,-0.0858,92,12.086,233,8.8893,0.0031,-11.4885,0.0499,0.0538,-0.0267,63
12.495,241,2.1204,-1.6074,-19.1525,0.0526,0.0536,-0.0226,92,12.137,234,8.7933,0.1629,-11.5071,0.1142,0.1047,-0.0587,63
12.547,242,1.9434,-1.5362,-19.3312,0.132,0.0916,0.0416,92,12.189,235,8.8058,0.2714,-11.449,0.2252,0.0771,-0.0808,63
12.599,243,1.7734,-1.205,-19.5247,0.144,0.0814,0.0972,92,12.241,236,8.8238,0.4569,-11.338,0.2184,0.0442,-0.0544,63
12.651,244,1.7648,-0.9504,-19.6268,0.1162,0.036,0.105,92,12.293,237,8.8448,0.5711,-11.2641,0.2027,0.0197,-0.0213,63
12.702,245,1.958,-0.9594,-19.5594,0.0629,-0.0158,0.0479,92,12.344,238,8.8453,0.5132,-11.2843,0.1549,0.0026,0.0126,63
12.754,246,2.1414,-1.136,-19.3803,0.0325,-0.0338,-0.0234,92,12.396,239,8.8683,0.5903,-11.1974,0.1154,0.0027,0.0367,63
12.806,247,2.2249,-1.3858,-19.2142,0.017,-0.0094,-0.0638,92,12.448,240,8.8389,0.6821,-11.1894,-0.0472,-0.002,0.0821,63
12.858,248,2.152,-1.4929,-19.1729,0.0509,0.034,-0.0706,92,12.5,241,8.7857,0.3457,-11.2884,0.0352,0.0181,0.0461,63
12.909,249,2.0437,-1.4701,-19.2828,0.089,0.0532,-0.0673,92,12.552,242,8.8256,0.3097,-11.3771,0.0221,0.0174,0.0196,63
12.961,250,1.9681,-1.4285,-19.3969,0.0834,0.0381,-0.0646,92,12.604,243,8.8161,0.269,-11.3653,0.1005,0.0339,-0.0097,63
13.013,251,1.9911,-1.5244,-19.4448,0.0528,0.0114,-0.0795,92,12.655,244,8.8019,0.2586,-11.3149,0.1667,0.0291,-0.0348,63
13.065,252,2.0686,-1.6258,-19.3714,0.0701,-0.01,-0.0941,92,12.707,245,8.8019,0.4769,-11.2447,0.2108,0.0173,-0.0335,63
13.117,253,2.115,-1.5842,-19.2893,0.0792,-0.012,-0.091,92,12.759,246,8.7981,0.5689,-11.144,0.178,0.012,-0.0089,63
13.168,254,2.1305,-1.5389,-19.2709,0.0956,-0.0063,-0.0923,92,12.811,247,8.7893,0.4956,-11.0757,0.1273,-0.0083,-0.0037,63
13.22,255,2.0681,-1.4337,-19.2924,0.1027,0.0067,-0.0995,92,12.862,248,8.8363,0.2914,-11.2729,0.0749,-0.0272,0.0073,63
13.272,256,1.9416,-1.3416,-19.3787,0.0993,0.0094,-0.1065,92,12.914,249,8.8436,0.1161,-11.357,0.081,-0.0206,-0.0117,63
13.324,257,1.9347,-1.3403,-19.4543,0.0462,-0.0051,-0.1093,92,12.966,250,8.8656,0.2198,-11.3846,0.0929,-0.0147,-0.0207,63
13.375,258,2.0897,-1.51,-19.4859,0.0111,-0.0307,-0.0983,92,13.018,251,8.8652,0.3257,-11.3234,0.095,-0.012,-0.0141,63
13.427,259,2.2056,-1.6925,-19.4309,0.0112,-0.0437,-0.0769,92,13.07,252,8.8403,0.3264,-11.3334,0.0527,-0.0219,-0.0004,63
13.479,260,2.1869,-1.7748,-19.323,0.0339,-0.0386,-0.0564,92,13.121,253,8.8158,-0.0078,-11.6374,-0.0485,-0.0585,0.0191,63
13.531,261,2.0635,-1.7008,-19.2089,0.108,-0.0358,-0.0301,92,13.173,254,8.8754,0.0479,-11.6011,0.0802,-0.0466,-0.0274,63
13.582,262,1.9848,-1.4636,-19.2429,0.1367,-0.0282,-0.0017,92,13.225,255,8.9014,0.1671,-11.5771,0.1066,-0.026,-0.0344,63
13.634,263,2.0388,-1.3054,-19.3348,0.1345,-0.0345,-0.0094,92,13.277,256,8.9569,0.1555,-11.5118,0.1707,0.0003,-0.0501,63
13.686,264,2.076,-1.2347,-19.3376,0.0899,-0.0612,-0.0334,92,13.328,257,8.9426,0.171,-11.4853,0.2098,0.011,-0.0632,63
13.738,265,2.0857,-1.4307,-19.3209,0.0451,-0.0864,-0.063,92,13.38,258,8.9623,0.2732,-11.4582,0.2181,0.0156,-0.0564,63
13.79,266,2.2091,-1.845,-19.1537,-0.0511,-0.0898,-0.1177,92,13.432,259,8.9715,0.2819,-11.3497,0.1601,0.0197,-0.0231,63
13.842,267,2.2426,-2.2719,-18.9938,-0.0211,-0.0616,-0.1177,92,13.484,260,8.8893,0.2332,-11.3716,0.1315,0.0204,-0.0138,63
13.893,268,2.1439,-2.4273,-18.9113,0.0221,-0.0093,-0.0607,92,13.536,261,8.8994,0.2235,-11.4255,0.1177,0.0278,-0.0139,63
13.945,269,2.014,-2.3341,-19.0079,0.0628,0.034,0.0096,92,13.587,262,8.901,0.1176,-11.5177,0.1415,0.0476,-0.0103,63
13.997,270,1.953,-1.9321,-19.2945,0.1003,0.0447,0.1091,92,13.639,263,8.8632,0.1755,-11.4634,0.211,0.0495,-0.0041,63
14.049,271,2.021,-1.6527,-19.5262,-0.0027,0.0303,0.1657,92,13.691,264,8.8319,0.3362,-11.2838,0.2697,0.0458,0.0118,63
14.101,272,2.1242,-1.6581,-19.5038,-0.132,0.011,0.1895,92,13.742,265,8.8558,0.6011,-10.9905,0.2314,0.0175,0.0335,63
14.153,273,2.0394,-1.8789,-19.2715,-0.1919,0.0182,0.206,92,13.794,266,8.8507,0.529,-11.0353,0.0651,-0.0116,0.0798,63
14.204,274,1.9342,-2.1335,-19.0168,-0.1964,0.0403,0.2063,92,13.846,267,8.7734,0.7884,-10.9231,-0.2066,-0.0277,0.1316,63
14.256,275,1.8901,-2.2661,-18.9716,-0.0849,0.0725,0.2099,92,13.898,268,8.9562,-0.6887,-11.6321,-0.3117,-0.0866,0.1483,63
14.308,276,1.9077,-2.1356,-19.1467,0.005,0.1012,0.2483,92,13.95,269,8.9885,-0.2655,-11.5792,-0.2103,-0.1083,0.057,63
14.36,277,1.9659,-1.8343,-19.4501,0.0671,0.09,0.2701,92,14.002,270,8.9379,-0.1922,-11.6533,-0.1631,-0.0923,0.0417,63
14.411,278,1.9638,-1.4487,-19.6318,0.1005,0.0475,0.2607,92,14.054,271,8.8732,0.013,-11.5548,-0.1197,-0.0719,0.0247,63
14.463,279,1.8695,-1.1817,-19.6066,0.0648,-0.0048,0.1802,92,14.105,272,8.8811,0.3483,-11.3219,-0.1512,-0.0957,0.0239,63
14.515,280,1.8871,-1.1097,-19.4973,0.0039,-0.0496,0.0556,92,14.157,273,8.8949,0.2799,-11.3874,-0.4715,-0.1257,0.0871,63
14.567,281,2.0184,-1.2478,-19.3955,-0.0466,-0.0704,-0.0695,92,14.209,274,8.8263,0.0324,-11.5888,-0.5086,-0.1424,0.0619,63
14.618,282,2.0112,-1.2253,-19.2276,-0.1202,-0.0705,-0.1838,92,14.26,275,8.8374,-0.0714,-11.771,-0.5097,-0.1619,0.0236,63
14.67,283,1.923,-0.5498,-18.8089,-0.3225,-0.0391,-0.3129,92,14.312,276,8.849,-0.1254,-11.9406,-0.4209,-0.099,-0.0043,63
14.722,284,1.6666,-0.6165,-18.4728,-0.3412,0.0733,-0.5549,92,14.364,277,8.8152,-0.0552,-12.0517,-0.2022,-0.0035,-0.0655,63
14.774,285,2.0852,-1.0436,-19.0179,-0.571,0.1681,-0.7534,92,14.416,278,8.8389,0.1185,-11.954,-0.0966,0.0429,-0.0749,63
14.826,286,2.19,-1.5139,-19.6136,-0.2605,0.188,-0.834,92,14.468,279,8.8182,0.2005,-11.8473,-0.0263,0.0568,-0.0602,63
14.877,287,2.4186,-1.6134,-20.0658,-0.21,0.1552,-0.7871,92,14.519,280,8.8277,0.3955,-11.6542,-0.0032,0.0446,-0.0408,63
14.929,288,2.5964,-1.4636,-20.4407,-0.2045,0.0268,-0.602,92,14.571,281,8.8349,0.4962,-11.6579,-0.0625,-0.0301,0.0034,63
14.981,289,2.4236,-1.2257,-20.4322,-0.0939,-0.1109,-0.4052,92,14.623,282,8.8872,0.2999,-11.6916,-0.1559,-0.1058,0.048,63
15.033,290,1.8403,-0.622,-20.2295,-0.0858,-0.221,-0.2642,92,14.675,283,8.8372,0.2612,-11.76,-0.1715,-0.1239,0.0486,63
15.085,291,1.7041,-0.2561,-20.1729,-0.1474,-0.3018,-0.1561,92,14.726,284,8.8274,0.2796,-11.9292,-0.1731,-0.106,0.0472,63
15.136,292,1.7231,0.0814,-19.6822,-0.3122,-0.3219,-0.0795,92,14.778,285,8.7538,0.1474,-12.0794,-0.1584,-0.0731,0.0561,63
15.188,293,1.4839,0.2663,-18.6165,-0.3793,-0.2543,0.0149,92,14.83,286,8.6864,0.135,-12.105,-0.139,-0.0338,0.0364,63
15.24,294,1.3297,0.8147,-16.3738,-0.5996,0.0918,0.2256,92,14.882,287,8.9291,0.2344,-12.2093,-0.1695,-0.0321,0.019,63
15.292,295,1.3472,1.165,-14.146,-0.649,0.7285,0.4332,92,14.934,288,8.9591,0.3095,-12.2215,-0.1178,0.0032,0.0177,63
15.344,296,2.947,1.402,-14.6052,-0.9714,1.2101,0.579,92,14.985,289,8.856,0.1491,-12.1242,-0.0864,0.0443,0.0323,63
15.395,297,4.3706,1.7848,-15.481,-1.3827,1.5615,0.6781,92,15.037,290,8.7259,0.1149,-11.9633,-0.0757,0.0411,0.0327,63
15.447,298,7.5891,-0.1794,-16.2649,-0.5142,1.818,0.9663,92,15.089,291,8.802,0.179,-11.7907,-0.0419,0.0063,0.0105,63
15.499,299,10.2903,3.3277,-19.099,-0.5256,1.9637,0.9859,92,15.141,292,8.8949,0.2183,-11.7941,-0.0605,-0.01,0.0232,63
15.551,300,10.143,2.5595,-14.7776,-0.922,1.663,1.0418,92,15.192,293,8.8216,0.1484,-11.8786,-0.045,-0.0263,0.019,63
15.603,301,10.8451,2.9906,-13.3078,-0.7186,1.3107,0.9483,92,15.244,294,8.8069,0.3062,-11.9922,-0.0555,-0.0346,0.0267,63
15.654,302,10.3514,1.5363,-13.3554,-0.4471,1.0124,0.9541,92,15.296,295,8.7396,0.328,-12.0137,-0.0385,-0.0445,0.0442,63
