right_leg_timestamp,right_leg_index,right_leg_accel_x,right_leg_accel_y,right_leg_accel_z,right_leg_gyro_x,right_leg_gyro_y,right_leg_gyro_z,right_leg_battery_percentage,left_leg_timestamp,left_leg_index,left_leg_accel_x,left_leg_accel_y,left_leg_accel_z,left_leg_gyro_x,left_leg_gyro_y,left_leg_gyro_z,left_leg_battery_percentage
0.035,0,9.4877,-1.1909,-12.0357,-0.0001,-0.0838,-0.1745,88,0.092,1,8.9397,1.134,-11.0713,0.2107,0.0878,-0.179,52
0.087,1,9.4373,-0.9832,-12.1562,-0.0428,-0.0808,-0.249,88,0.144,2,8.7712,1.3708,-11.0141,0.0492,0.0711,-0.1687,52
0.138,2,9.5488,-0.6965,-12.2759,-0.0257,-0.0841,-0.2476,88,0.196,3,8.8373,1.3359,-10.9306,-0.0274,0.0595,-0.1273,52
0.19,3,9.5313,-0.5367,-12.2462,0.0003,-0.183,-0.2191,88,0.248,4,8.7666,1.5562,-10.7813,-0.1332,-0.0025,-0.0535,52
0.242,4,9.5349,-0.5019,-12.1912,-0.0674,-0.1926,-0.2328,88,0.299,5,8.8172,1.3077,-10.7062,-0.1125,-0.0853,0.0366,52
0.294,5,9.378,-0.1442,-12.5094,-0.069,-0.1166,-0.222,88,0.352,6,8.7718,1.1137,-10.9807,-0.1251,-0.1155,0.0428,52
0.346,6,9.4354,-0.1752,-12.4814,-0.0632,-0.0334,-0.1129,88,0.403,7,8.8211,1.3225,-11.0599,-0.0704,-0.0936,0.0113,52
0.397,7,9.4408,-0.2225,-12.4594,-0.0355,0.0068,-0.0295,88,0.455,8,8.7606,1.293,-11.0767,-0.0151,-0.0732,-0.0144,52
0.449,8,9.3979,-0.3391,-12.4398,-0.0754,0.0615,0.0374,88,0.507,9,8.7123,1.075,-11.0892,0.0859,-0.0427,-0.0939,52
0.501,9,9.4555,-0.3227,-12.4204,-0.1653,0.0844,0.1358,88,0.559,10,8.846,1.3408,-11.1567,0.1248,-0.0072,-0.1558,52
0.553,10,9.6343,-0.5565,-12.3038,-0.2164,0.0219,0.1058,88,0.611,11,8.731,1.5472,-11.1329,0.0539,-0.0228,-0.0743,52
0.605,11,9.8365,-0.8316,-11.9857,-0.2471,-0.1427,-0.1113,88,0.662,12,8.7045,1.5962,-11.1109,-0.1025,-0.0626,0.0344,52
0.656,12,11.3815,-1.6347,-11.5157,-0.3908,-0.599,-0.3915,88,0.714,13,8.752,1.4327,-11.1205,-0.2525,-0.0955,0.1211,52
0.708,13,12.4942,-0.2318,-12.9176,-0.4379,-1.1106,-0.6708,88,0.766,14,8.7966,1.283,-11.1517,-0.2821,-0.1148,0.1603,52
0.76,14,12.0152,0.3534,-15.5862,-0.6647,-1.3858,-0.8988,88,0.818,15,8.8156,1.0603,-11.1864,-0.2366,-0.1263,0.1625,52
0.812,15,11.7637,0.2318,-16.3442,-0.9837,-1.1382,-0.8896,88,0.869,16,8.8667,0.7725,-11.2625,-0.1116,-0.1094,0.1009,52
0.864,16,9.5657,1.4206,-15.7788,-0.8222,-0.7291,-1.0882,88,0.921,17,8.8015,1.1564,-11.4139,0.18,-0.0899,-0.0034,52
0.915,17,7.4882,1.2747,-13.3081,-0.7603,-0.0365,-1.3857,88,0.973,18,8.7623,1.1684,-11.5048,0.1705,-0.0474,-0.0587,52
0.967,18,5.4631,1.1955,-12.4268,-0.8839,0.2182,-1.0678,88,1.025,19,8.7705,1.2312,-11.5027,0.111,0.0009,-0.1002,52
1.019,19,5.1101,1.6365,-12.1734,-0.7561,0.2257,-0.6777,88,1.076,20,8.7206,1.2949,-11.4083,0.043,0.0206,-0.1183,52
1.071,20,5.322,2.4172,-12.4366,-0.6353,0.2174,-0.349,88,1.128,21,8.7303,1.3242,-11.3931,0.0188,0.0081,-0.0979,52
1.123,21,5.8281,3.2724,-12.9984,-0.54,0.1637,-0.1433,88,1.18,22,8.7446,1.3788,-11.3499,0.0552,-0.0071,-0.085,52
1.174,22,6.1152,3.7961,-13.5232,-0.4927,0.0641,0.0102,88,1.232,23,8.7277,1.4237,-11.4028,0.0759,-0.0092,-0.0723,52
1.226,23,6.205,4.0957,-13.6702,-0.4604,-0.0476,0.0752,88,1.284,24,8.6905,1.4482,-11.4051,0.0875,-0.0052,-0.0599,52
1.278,24,6.2571,4.2829,-13.805,-0.3496,-0.1442,0.0792,88,1.335,25,8.6962,1.5275,-11.3703,0.1108,-0.0224,-0.0354,52
1.33,25,6.2768,4.284,-13.6486,-0.3056,-0.1518,0.0587,88,1.387,26,8.8466,1.4189,-11.2726,0.225,-0.0753,0.0121,52
1.381,26,6.6415,4.5487,-13.7933,-0.175,-0.0673,0.0333,88,1.439,27,8.8608,1.2434,-11.5281,0.3152,-0.0825,0.0447,52
1.433,27,6.8604,4.6315,-13.8799,-0.1368,0.0557,0.0187,88,1.491,28,8.8282,1.1965,-11.7475,0.3495,-0.0362,0.0208,52
1.485,28,6.9517,4.666,-13.9591,-0.0433,0.1464,-0.027,88,1.542,29,8.7713,1.2722,-11.7341,0.3366,0.02,-0.0271,52
1.537,29,7.1475,4.6539,-13.9428,0.0178,0.1691,-0.057,88,1.594,30,8.7527,1.2535,-11.6667,0.2989,0.0491,-0.0508,52
1.589,30,7.3287,4.7856,-13.7177,0.0101,0.1646,-0.0966,88,1.646,31,8.8019,1.2853,-11.6052,0.2871,0.0476,-0.0408,52
1.64,31,7.5761,4.8057,-13.372,-0.0056,0.1371,-0.1183,88,1.698,32,8.6642,1.3227,-11.6935,0.2783,0.0395,-0.0127,52
1.692,32,6.1704,4.8621,-13.7553,0.1896,-0.2274,-0.1511,88,1.75,33,8.7571,1.2647,-11.7669,0.2653,0.0462,0.0151,52
1.744,33,6.4882,5.1382,-14.6709,0.1086,-0.0706,-0.1406,88,1.802,34,8.7507,1.2328,-11.8131,0.2118,0.0723,0.0131,52
1.796,34,6.7644,5.1264,-14.6493,-0.0155,-0.0218,-0.1276,88,1.853,35,8.2938,2.1423,-12.1016,-0.0842,0.0761,0.0383,52
1.848,35,6.9283,5.0418,-14.6633,-0.0055,-0.024,-0.1383,88,1.905,36,8.6452,1.2401,-11.2674,-0.7021,-0.0296,0.1827,52
1.899,36,6.9202,5.042,-14.5325,-0.0506,-0.0306,-0.0886,88,1.957,37,8.6952,1.4467,-11.7478,-0.5417,-0.1399,0.2766,52
1.951,37,6.7602,4.9673,-14.3305,-0.0463,-0.0981,-0.0284,88,2.009,38,8.6885,0.8963,-11.7926,-0.3628,-0.1443,0.2659,52
2.003,38,6.924,5.0599,-14.3981,-0.01,-0.1695,0.0382,88,2.06,39,8.7047,0.9361,-11.7599,-0.3141,-0.1201,0.2348,52
2.055,39,7.0249,5.1197,-14.39,-0.0383,-0.1619,0.0886,88,2.112,40,8.7292,0.8326,-11.8186,-0.263,-0.1239,0.218,52
2.106,40,6.9385,4.9259,-14.5839,-0.0119,-0.064,0.0707,88,2.164,41,8.7721,0.6518,-11.8265,-0.2028,-0.1116,0.1749,52
2.158,41,7.1129,4.9419,-14.5728,-0.0165,-0.0345,0.0787,88,2.216,42,8.7276,0.8837,-11.9259,-0.2266,-0.0683,0.1431,52
2.21,42,7.38,4.811,-14.6944,-0.0433,-0.0207,0.1093,88,2.268,43,8.8016,0.6987,-11.7565,-0.3326,-0.026,0.1282,52
2.262,43,7.0766,4.7294,-14.5956,-0.0259,0.0187,0.1348,88,2.319,44,8.7855,0.8168,-11.7348,-0.3518,-0.0668,0.14,52
2.313,44,6.9568,4.7282,-14.6126,-0.0318,0.0237,0.1479,88,2.371,45,8.7912,0.5647,-11.8082,-0.3315,-0.0996,0.1441,52
2.365,45,6.8291,4.8239,-14.5607,-0.0316,0.011,0.1384,88,2.423,46,8.8233,0.488,-11.8356,-0.2736,-0.1033,0.1046,52
2.417,46,6.6447,4.8319,-14.6265,-0.0552,-0.0212,0.1164,88,2.475,47,8.7742,0.4592,-11.8876,-0.2093,-0.0983,0.0758,52
2.469,47,6.5113,4.7996,-14.8176,-0.0664,-0.0658,0.0874,88,2.526,48,8.7815,0.3138,-11.8762,-0.1424,-0.0962,0.045,52
2.521,48,6.6014,4.8513,-14.8822,-0.0722,-0.1489,0.0432,88,2.578,49,8.7926,0.0651,-11.9048,-0.0141,-0.095,-0.0234,52
2.572,49,6.8972,4.9403,-14.9996,-0.0595,-0.2236,-0.0088,88,2.63,50,8.6726,0.7099,-12.1475,0.456,-0.1235,-0.1884,52
2.624,50,7.0778,4.9508,-14.9589,-0.0706,-0.2403,-0.0493,88,2.682,51,8.6808,0.8333,-12.1831,0.4285,-0.1134,-0.1466,52
2.676,51,7.1989,4.9694,-14.9287,-0.0435,-0.2414,-0.0831,88,2.734,52,8.635,0.8166,-12.2876,0.3005,-0.0867,-0.0465,52
2.728,52,7.3287,5.0352,-14.8485,-0.0184,-0.1987,-0.1041,88,2.785,53,8.5768,0.7367,-12.3045,0.0779,-0.0634,0.0234,52
2.78,53,7.4233,5.1466,-14.826,0.005,-0.1614,-0.1153,88,2.837,54,8.6368,0.5749,-12.256,-0.064,-0.0315,0.084,52
2.831,54,7.2895,5.0882,-14.8039,0.0175,-0.1327,-0.1268,88,2.889,55,8.6343,0.5307,-12.2642,-0.1142,-0.0052,0.1268,52
2.883,55,7.1042,5.0447,-14.7034,0.0688,-0.0769,-0.1574,88,2.941,56,8.6429,0.429,-12.2789,-0.1232,0.004,0.149,52
2.935,56,7.0151,5.1212,-14.5323,0.1278,-0.0186,-0.1718,88,2.992,57,8.6781,0.3279,-12.2769,-0.1301,0.0101,0.1467,52
2.987,57,6.9783,5.1664,-14.5377,0.1238,0.0432,-0.1439,88,3.044,58,8.7087,0.1932,-12.1656,-0.1419,0.0331,0.1006,52
3.038,58,6.9372,5.0754,-14.6297,0.0854,0.0888,-0.0835,88,3.096,59,8.6773,0.2358,-12.1047,-0.1607,0.0351,0.0684,52
3.09,59,6.9585,4.9907,-14.8428,0.0609,0.1092,0.0003,88,3.148,60,8.6857,0.2031,-12.0671,-0.1557,0.0099,0.0664,52
3.142,60,6.9664,4.9767,-15.0204,0.0988,0.1292,0.0684,88,3.2,61,8.6596,0.2096,-12.117,-0.082,-0.0276,0.1005,52
3.194,61,6.6928,5.0858,-14.9798,0.1056,0.1437,0.133,88,3.252,62,8.8035,0.1183,-12.2166,0.0527,-0.0434,0.0958,52
3.246,62,6.425,5.1431,-14.8975,0.0946,0.1379,0.1343,88,3.303,63,8.8233,0.2864,-12.2882,0.1412,-0.0437,0.0991,52
3.297,63,6.2383,5.118,-14.651,0.0167,0.139,0.0912,88,3.355,64,8.4315,-0.2037,-12.3477,0.3266,-0.1182,0.1099,52
3.349,64,6.3233,5.0881,-14.4894,0.0001,0.1761,0.0035,88,3.407,65,8.5734,-0.2466,-12.0239,0.4023,-0.1637,0.0954,52
3.401,65,6.3049,5.1671,-14.5925,-0.0274,0.245,-0.0854,88,3.459,66,7.9158,-0.1413,-13.1548,-0.0419,-0.1176,0.0683,52
3.453,66,6.4208,5.2713,-14.8113,-0.0319,0.2875,-0.1179,88,3.511,67,7.9611,0.1674,-13.4081,-0.2632,-0.0044,0.1735,52
3.505,67,6.3626,5.5933,-14.8108,-0.0422,0.236,-0.1093,88,3.562,68,8.5466,-0.333,-13.3241,-0.7023,0.0433,0.1813,52
3.556,68,6.2398,5.7536,-14.7527,-0.0881,0.1329,-0.099,88,3.614,69,8.5459,0.2871,-13.4618,-1.1885,0.056,0.1292,52
3.608,69,6.3239,5.7386,-14.8426,-0.1623,-0.0082,-0.1132,88,3.666,70,8.723,0.1221,-13.0871,-1.5445,0.0295,0.3704,52
3.66,70,5.7927,5.5713,-14.6363,-0.2621,-0.1317,-0.0821,88,3.718,71,8.1817,0.2264,-13.1462,-1.0979,0.1221,0.2847,52
3.712,71,5.9675,5.6647,-14.435,-0.3197,-0.3112,-0.0114,88,3.769,72,7.9431,1.0437,-13.6266,-0.8065,0.1214,0.1919,52
3.764,72,6.5748,5.9455,-14.423,-0.4332,-0.4439,0.1014,88,3.821,73,8.5151,0.4651,-12.8161,-0.4416,0.1894,0.2054,52
3.815,73,7.3043,5.7926,-14.6992,-0.463,-0.4749,0.1564,88,3.873,74,8.756,0.4729,-13.1525,0.1297,0.2974,0.0847,52
3.867,74,7.5517,5.339,-14.6073,-0.4566,-0.477,0.1466,88,3.925,75,8.1297,1.1142,-14.9875,0.7694,0.3096,-0.1655,52
3.919,75,7.6588,4.9356,-14.4927,-0.4207,-0.4949,0.1239,88,3.977,76,6.4894,2.6839,-14.8989,1.2362,0.0574,-0.6612,52
3.971,76,7.9984,5.0335,-14.8622,-0.1236,-0.3951,-0.0627,88,4.028,77,9.6347,-1.8635,-8.2661,1.0797,-0.0863,-0.8084,52
4.023,77,7.5676,5.318,-14.5034,0.1222,-0.1376,-0.262,88,4.08,78,10.3532,-4.8594,-10.6144,0.1772,0.1152,-0.2547,52
4.074,78,6.2167,5.3001,-14.4586,0.4119,0.023,-0.4123,88,4.132,79,10.1181,-3.0189,-11.2151,0.1962,0.209,-0.2429,52
4.126,79,6.3596,4.9752,-14.8496,0.5414,0.1019,-0.5812,88,4.183,80,9.5671,-2.8207,-11.6594,0.1644,0.3241,-0.332,52
4.178,80,6.3593,4.5581,-14.5108,0.6609,0.293,-0.8368,88,4.235,81,9.2235,-1.7269,-11.4723,0.335,0.37,-0.4659,52
4.23,81,6.6134,4.8464,-13.9279,0.7101,0.5253,-1.0428,88,4.287,82,8.9234,-0.7718,-11.8501,0.2979,0.3343,-0.397,52
4.281,82,6.9649,5.0636,-14.6112,1.0245,0.8458,-1.0484,88,4.339,83,8.8514,-0.2312,-11.7456,0.1673,0.2745,-0.2174,52
4.333,83,6.9944,5.3325,-15.5219,0.8743,1.1278,-0.7402,88,4.391,84,8.8694,-0.2603,-11.8027,0.0835,0.1913,-0.0882,52
4.385,84,6.7233,5.5938,-15.7339,0.8635,1.1921,-0.4364,88,4.442,85,8.8078,-0.0646,-11.994,0.0613,0.1394,-0.0584,52
4.437,85,6.4443,5.9654,-15.8627,0.7814,1.0603,-0.2591,88,4.494,86,8.8093,0.1992,-12.0754,-0.0209,0.1219,-0.0263,52
4.489,86,6.1415,5.8693,-15.736,0.6428,0.8093,-0.2813,88,4.546,87,8.8396,0.3409,-12.0083,-0.0873,0.1095,-0.0036,52
4.54,87,6.0333,5.7456,-15.5376,0.5985,0.5925,-0.3509,88,4.598,88,8.8155,0.4831,-11.9702,-0.1016,0.0865,0.0075,52
4.592,88,5.9837,5.6614,-15.3645,0.4807,0.4208,-0.366,88,4.65,89,8.777,0.4792,-11.9616,-0.1309,0.0538,0.0149,52
4.644,89,6.0668,5.554,-15.2658,0.3909,0.2611,-0.3226,88,4.701,90,8.7449,0.382,-12.0288,-0.1925,0.0294,0.0121,52
4.696,90,6.1951,5.6168,-15.2126,0.2952,0.1495,-0.2286,88,4.753,91,8.7249,0.4345,-11.9992,-0.2332,0.0295,-0.0174,52
4.748,91,6.2008,5.6638,-15.13,0.1966,0.065,-0.1273,88,4.805,92,8.7649,0.395,-11.8984,-0.3231,0.0357,-0.0712,52
4.799,92,6.1414,5.752,-15.1006,0.0554,-0.0428,0.019,88,4.857,93,8.703,0.7179,-11.8524,-0.3898,0.0269,-0.1156,52
4.851,93,5.9292,5.7735,-15.0824,-0.1375,-0.1658,0.2016,88,4.909,94,8.6493,0.9242,-11.8469,-0.4438,-0.0134,-0.056,52
4.903,94,5.7677,5.8019,-15.1679,-0.3682,-0.3153,0.3972,88,4.96,95,8.5879,1.0728,-11.8903,-0.2117,-0.0223,0.0376,52
4.955,95,5.8542,5.8421,-15.3281,-0.5334,-0.4804,0.5313,88,5.012,96,8.6407,0.957,-11.9605,0.0114,-0.0421,0.0852,52
5.007,96,6.031,5.8494,-15.4057,-0.6544,-0.6151,0.569,88,5.064,97,8.5945,1.0442,-12.0432,0.1759,-0.064,0.071,52
5.058,97,6.3407,5.6867,-15.3148,-0.6307,-0.6813,0.4396,88,5.116,98,8.6659,0.7668,-12.0737,0.1958,-0.0619,0.0679,52
5.11,98,6.8026,5.3375,-15.0302,-0.4849,-0.6364,0.1769,88,5.168,99,8.7522,0.5726,-12.0693,0.2149,-0.0632,0.0171,52
5.162,99,7.3523,5.0023,-14.6373,-0.2165,-0.411,-0.1864,88,5.219,100,8.7557,0.6511,-12.0643,0.2899,-0.0806,-0.0258,52
5.214,100,7.5606,4.7678,-14.4102,0.0681,-0.056,-0.5027,88,5.271,101,8.7027,0.7112,-12.2426,0.3931,-0.1072,-0.0493,52
5.265,101,7.4254,4.658,-14.59,0.2901,0.3516,-0.6469,88,5.323,102,8.7258,0.6579,-12.2317,0.4978,-0.1107,-0.0658,52
5.317,102,6.9125,4.6796,-14.7936,0.4002,0.6698,-0.6011,88,5.375,103,8.654,0.7233,-12.4115,0.4786,-0.1174,-0.0186,52
5.369,103,6.4036,4.9543,-15.1043,0.4092,0.7631,-0.4066,88,5.426,104,8.5231,0.6999,-12.5818,0.3722,-0.1048,0.0318,52
5.421,104,6.107,5.3487,-15.4763,0.3363,0.7123,-0.1963,88,5.478,105,8.3651,0.6459,-12.8365,0.1607,-0.0558,0.0555,52
5.473,105,5.9217,5.6462,-15.617,0.2869,0.5436,-0.0536,88,5.53,106,8.5446,0.5888,-12.6458,0.1009,-0.0301,0.0527,52
5.524,106,5.859,5.9524,-15.6188,0.2016,0.3262,0.0457,88,5.582,107,8.3969,0.5918,-12.7934,0.0332,-0.0022,0.0734,52
5.576,107,5.924,6.0741,-15.3751,0.148,0.1116,0.0762,88,5.634,108,8.4665,0.5212,-12.6862,-0.0967,0.0301,0.0822,52
5.628,108,6.0137,6.1261,-15.1261,0.0955,-0.0409,0.0761,88,5.685,109,8.5817,0.4311,-12.5992,-0.1233,0.0307,0.0805,52
5.68,109,6.0666,6.1068,-14.909,0.043,-0.1158,0.058,88,5.737,110,8.5684,0.381,-12.5564,-0.1185,0.0363,0.0715,52
5.731,110,6.0338,6.0041,-14.7908,0.0168,-0.1302,0.0402,88,5.789,111,8.5836,0.3578,-12.5008,-0.1221,0.0387,0.0633,52
5.783,111,6.101,5.9392,-14.8183,-0.0034,-0.1097,0.028,88,5.841,112,8.6309,0.2991,-12.4348,-0.1016,0.0285,0.0545,52
5.835,112,6.1353,5.8715,-14.8589,-0.0297,-0.0755,-0.0005,88,5.892,113,8.6049,0.2937,-12.4527,-0.0818,0.0247,0.0364,52
5.887,113,6.1502,5.8159,-14.9768,-0.0323,-0.0515,-0.0166,88,5.944,114,8.6561,0.2815,-12.4059,-0.0635,0.0266,0.0167,52
5.938,114,6.1853,5.7518,-15.12,-0.046,-0.0463,-0.0249,88,5.996,115,8.6465,0.3064,-12.4134,-0.0538,0.0214,0.013,52
5.99,115,6.166,5.6848,-15.1744,-0.0573,-0.0522,-0.0284,88,6.048,116,8.6809,0.294,-12.3695,-0.0507,0.0182,0.0095,52
6.042,116,6.1254,5.6197,-15.1815,-0.0532,-0.0664,-0.0267,88,6.1,117,8.6712,0.2714,-12.3843,-0.0375,0.0075,-0.0012,52
6.094,117,6.0919,5.5774,-15.1692,-0.0495,-0.0741,-0.0151,88,6.152,118,8.6619,0.2948,-12.3709,-0.0277,0.0067,-0.0161,52
6.146,118,6.0884,5.5476,-15.132,-0.0415,-0.0748,-0.0031,88,6.203,119,8.6484,0.3305,-12.3817,-0.0296,0.007,-0.0177,52
6.197,119,6.1224,5.5787,-15.11,-0.0189,-0.0645,0.0056,88,6.255,120,8.6685,0.3142,-12.3626,-0.0195,0.0056,-0.0252,52
6.25,120,6.135,5.6181,-15.0755,-0.0088,-0.0439,0.0082,88,6.307,121,8.6806,0.3055,-12.3477,0.0075,0.0058,-0.0398,52
6.301,121,6.126,5.642,-15.0751,0.0115,-0.0262,0.0075,88,6.359,122,8.6513,0.4519,-12.3473,0.0504,0.0056,-0.0474,52
6.353,122,6.1379,5.658,-15.089,0.0038,-0.0122,0.0086,88,6.41,123,8.6423,0.521,-12.3234,0.0423,-0.0033,-0.0192,52
6.405,123,6.1199,5.6564,-15.09,0.0262,0.0017,-0.0003,88,6.462,124,8.6633,0.4404,-12.3545,0.0116,-0.0152,0.0126,52
6.456,124,6.0679,5.6824,-15.087,0.0214,0.0067,0.0055,88,6.514,125,8.6852,0.3765,-12.3583,-0.0021,-0.0188,0.0218,52
6.508,125,6.0703,5.6911,-15.0902,0.0158,-0.0001,0.0138,88,6.566,126,8.6821,0.3882,-12.3741,0.0097,-0.0157,0.0171,52
6.56,126,6.1365,5.7249,-15.057,0.009,-0.0055,0.0092,88,6.618,127,8.6458,0.3914,-12.3821,0.0279,-0.0078,0.0087,52
6.612,127,6.1601,5.6929,-15.0378,0.0072,-0.0087,-0.0046,88,6.669,128,8.617,0.4141,-12.4322,0.0191,-0.0017,0.0137,52
6.664,128,6.1691,5.6678,-15.0138,-0.002,-0.0087,-0.0054,88,6.721,129,8.6394,0.3799,-12.4075,-0.0035,0.0035,0.0165,52
6.715,129,6.1999,5.6408,-15.0171,-0.0185,-0.0051,0.0123,88,6.773,130,8.6363,0.3958,-12.4209,-0.0355,-0.0028,0.0317,52
6.767,130,6.1859,5.6503,-15.0423,-0.035,-0.0025,0.04,88,6.825,131,8.6516,0.3745,-12.4012,-0.0395,-0.0094,0.0392,52
6.819,131,6.1793,5.6813,-15.0654,-0.0466,-0.0041,0.0573,88,6.877,132,8.6539,0.3544,-12.4103,-0.0564,-0.0163,0.0458,52
6.871,132,6.1468,5.7036,-15.0752,-0.0354,-0.0029,0.0455,88,6.928,133,8.6445,0.3489,-12.4198,-0.0711,-0.0244,0.0552,52
6.922,133,6.1223,5.7201,-15.0663,-0.0382,-0.0049,0.0306,88,6.98,134,8.6718,0.2733,-12.3987,-0.0582,-0.0294,0.0501,52
6.974,134,6.105,5.7028,-15.0692,-0.0356,-0.0063,0.0115,88,7.032,135,8.6787,0.2644,-12.4091,-0.0421,-0.031,0.0404,52
7.026,135,6.0738,5.7008,-15.0795,-0.0557,-0.0125,0.0058,88,7.084,136,8.6583,0.2776,-12.4243,-0.0346,-0.0269,0.0285,52
7.078,136,6.0896,5.7314,-15.136,-0.074,-0.0319,0.0032,88,7.136,137,8.6704,0.2515,-12.4392,-0.0213,-0.0203,0.0182,52
7.13,137,6.0945,5.7586,-15.1606,-0.0653,-0.0522,-0.0164,88,7.187,138,8.6939,0.2123,-12.4332,0.0084,-0.0136,0.0022,52
7.181,138,6.0652,5.7547,-15.1135,-0.0597,-0.0741,-0.0328,88,7.239,139,8.6725,0.2528,-12.4672,0.0274,-0.0034,-0.0099,52
7.233,139,6.0786,5.7158,-15.0682,-0.0634,-0.086,-0.0312,88,7.291,140,8.6604,0.3008,-12.4871,0.0384,0.0095,-0.015,52
7.285,140,6.0725,5.697,-15.0255,-0.0675,-0.0791,-0.015,88,7.343,141,8.6293,0.3244,-12.4988,0.0249,0.0183,-0.0026,52
7.337,141,6.0613,5.7223,-15.0208,-0.0657,-0.0672,0.0036,88,7.395,142,8.6436,0.3582,-12.4594,-0.0232,0.0238,0.0137,52
7.389,142,6.0471,5.7733,-15.0322,-0.0575,-0.0567,0.0173,88,7.446,143,8.687,0.2415,-12.3939,-0.0587,0.0223,0.0273,52
7.44,143,6.0489,5.8411,-15.0517,-0.0548,-0.0466,0.0163,88,7.498,144,8.6546,0.2473,-12.4265,-0.0731,0.017,0.0301,52
7.492,144,6.0356,5.8897,-15.0768,-0.0269,-0.0393,-0.0022,88,7.55,145,8.6637,0.2008,-12.4045,-0.0848,0.0176,0.0279,52
7.544,145,5.9958,5.8918,-15.065,-0.0122,-0.0294,-0.0284,88,7.602,146,8.6667,0.1727,-12.385,-0.0676,0.0147,0.0204,52
7.596,146,5.9348,5.8792,-15.0608,0.0062,-0.026,-0.0461,88,7.654,147,8.6817,0.2034,-12.3836,-0.0397,0.0106,0.0009,52
7.648,147,5.8859,5.8406,-15.0489,-0.0094,-0.0278,-0.0315,88,7.706,148,8.6996,0.2048,-12.3709,-0.0231,0.0129,-0.0134,52
7.699,148,5.8597,5.828,-15.0726,-0.0198,-0.0375,-0.0037,88,7.757,149,8.6917,0.1592,-12.3218,0.0233,0.0125,-0.0319,52
7.751,149,5.8778,5.837,-15.1197,-0.0323,-0.0435,0.0213,88,7.809,150,8.6514,0.2889,-12.4407,0.0141,0.0127,-0.0306,52
7.803,150,5.9215,5.8638,-15.1302,-0.0316,-0.0521,0.0319,88,7.861,151,8.6798,0.2866,-12.3845,0.0015,0.0133,-0.0217,52
7.855,151,5.9608,5.8934,-15.1081,-0.0266,-0.0476,0.0239,88,7.913,152,8.6778,0.3148,-12.3842,0.0018,0.0149,-0.0147,52
7.907,152,5.9899,5.9131,-15.0631,-0.0051,-0.031,0.0032,88,7.965,153,8.6716,0.3448,-12.3775,-0.0152,0.017,0.0048,52
7.959,153,5.9809,5.9103,-15.0198,0.014,-0.0073,-0.02,88,8.016,154,8.6699,0.3306,-12.345,-0.0417,0.0195,0.0181,52
8.01,154,5.9644,5.9116,-15.0179,0.0288,0.0205,-0.0398,88,8.068,155,8.675,0.2913,-12.33,-0.0456,0.0205,0.0161,52
8.062,155,5.9135,5.8911,-15.0201,0.0549,0.0496,-0.0559,88,8.12,156,8.6735,0.2486,-12.3187,-0.0443,0.023,0.0016,52
8.114,156,5.9233,5.8946,-15.06,0.0571,0.061,-0.0543,88,8.172,157,8.6962,0.2859,-12.2953,-0.0261,0.0257,-0.0298,52
8.166,157,5.9126,5.9011,-15.1079,0.0554,0.0709,-0.0445,88,8.223,158,8.69,0.3187,-12.3071,-0.0343,0.0395,-0.0392,52
8.217,158,5.837,5.8996,-15.1383,0.0478,0.0692,-0.0288,88,8.275,159,8.6992,0.3697,-12.2506,-0.0505,0.0503,-0.0421,52
8.269,159,5.8116,5.8891,-15.174,0.0397,0.0503,-0.012,88,8.327,160,8.6767,0.3614,-12.2467,-0.0776,0.0661,-0.0346,52
8.321,160,5.8309,5.9148,-15.1955,0.034,0.0321,-0.0046,88,8.379,161,8.7255,0.2775,-12.1209,-0.0956,0.0762,-0.0447,52
8.373,161,5.8751,5.9295,-15.1914,0.042,0.0235,-0.0086,88,8.431,162,8.739,0.3535,-12.1126,-0.0677,0.0759,-0.0712,52
8.425,162,5.9101,5.9567,-15.1793,0.0502,0.0244,-0.0238,88,8.482,163,8.7508,0.3362,-12.051,-0.0071,0.0707,-0.0944,52
8.476,163,5.9333,5.9589,-15.1348,0.0634,0.0306,-0.0439,88,8.534,164,8.7268,0.5478,-12.0231,0.0659,0.0464,-0.1174,52
8.528,164,5.9492,5.9358,-15.0941,0.0548,0.0368,-0.0494,88,8.586,165,8.727,0.6215,-11.992,0.0876,0.0189,-0.1008,52
8.58,165,5.9664,5.9175,-15.0891,0.0497,0.0403,-0.0477,88,8.638,166,8.6992,0.6342,-12.02,0.0557,-0.002,-0.0533,52
8.632,166,6.003,5.9516,-15.0793,0.0349,0.0413,-0.04,88,8.689,167,8.7232,0.6251,-12.0262,0.0443,-0.0144,-0.0216,52
8.684,167,5.9998,5.9491,-15.0562,0.0255,0.0435,-0.0471,88,8.741,168,8.7223,0.6231,-12.081,0.0234,-0.0127,0.0075,52
8.735,168,5.9645,5.8973,-15.0398,0.0333,0.0431,-0.0699,88,8.793,169,8.7157,0.593,-12.0848,0.0071,-0.0114,0.0233,52
8.787,169,5.9336,5.8403,-15.0107,0.0483,0.0518,-0.0879,88,8.845,170,8.7094,0.5822,-12.0829,-0.0035,-0.0097,0.032,52
8.839,170,5.9546,5.8287,-14.978,0.0655,0.0644,-0.0889,88,8.897,171,8.7212,0.5934,-12.1076,-0.0187,-0.0022,0.0405,52
8.891,171,5.9433,5.8736,-14.9829,0.0538,0.0737,-0.065,88,8.948,172,8.7233,0.5384,-12.0614,-0.0144,-0.0026,0.0349,52
8.942,172,5.9275,5.9317,-15.0348,0.0183,0.0711,-0.0382,88,9.0,173,8.7264,0.5532,-12.0684,-0.0019,-0.0089,0.0305,52
8.994,173,5.93,5.9887,-15.0906,0.0174,0.0584,-0.0373,88,9.052,174,8.7254,0.5716,-12.084,0.0013,-0.0115,0.0434,52
9.046,174,5.8997,5.9457,-15.0783,0.0358,0.0377,-0.043,88,9.104,175,8.651,0.6925,-12.0404,-0.0253,-0.005,0.0666,52
9.098,175,5.8864,5.911,-15.0407,0.0282,0.0234,-0.0308,88,9.156,176,8.6884,0.5752,-12.0794,-0.0647,0.0143,0.0773,52
9.15,176,5.8444,5.8604,-15.045,0.0368,0.0217,-0.0093,88,9.207,177,8.7271,0.4546,-12.0759,-0.066,0.0203,0.0546,52
9.202,177,5.8162,5.8945,-15.0476,0.03,0.0154,0.0126,88,9.259,178,8.6956,0.4208,-12.0636,-0.0636,0.0285,0.0312,52
9.253,178,5.84,5.9597,-15.1016,0.0332,0.0006,0.0231,88,9.311,179,8.7246,0.4911,-12.0419,-0.0502,0.0264,0.0104,52
9.305,179,5.9151,6.0421,-15.1266,0.0281,-0.0157,0.0193,88,9.363,180,8.7401,0.4099,-12.0276,-0.0355,0.0183,-0.0158,52
9.357,180,5.9174,6.0583,-15.1416,0.0035,-0.027,0.0258,88,9.415,181,8.7508,0.3138,-12.0224,0.0191,0.012,-0.0544,52
9.409,181,5.9214,6.023,-15.0995,-0.0265,-0.0417,0.0365,88,9.466,182,8.7295,0.6427,-12.0349,0.0963,0.0067,-0.0794,52
9.461,182,5.8769,5.9519,-15.1058,-0.0413,-0.0531,0.0487,88,9.518,183,8.6964,0.5818,-12.0001,0.0712,0.0024,-0.0457,52
9.512,183,5.8493,5.8874,-15.0767,-0.0426,-0.0538,0.0438,88,9.57,184,8.7142,0.5862,-12.0117,0.0424,-0.0153,-0.0134,52
9.564,184,5.9781,5.888,-15.0675,-0.034,-0.0587,0.0411,88,9.621,185,8.7151,0.5667,-12.0536,0.0131,-0.0294,0.0044,52
9.616,185,6.0781,5.8921,-15.0327,-0.0357,-0.0413,0.0459,88,9.673,186,8.7419,0.517,-12.0703,0.0016,-0.0213,-0.0047,52
9.668,186,6.09,5.8914,-14.9877,-0.019,-0.0184,0.0344,88,9.725,187,8.7553,0.5217,-12.0487,0.0135,-0.0083,-0.0218,52
9.719,187,6.0216,5.8895,-14.9551,0.0045,0.0202,0.0018,88,9.777,188,8.7348,0.5706,-12.0615,0.0115,-0.0074,-0.0221,52
9.771,188,5.9643,5.8667,-14.9204,0.0263,0.0446,-0.0207,88,9.829,189,8.7243,0.6021,-12.069,0.0159,-0.0135,-0.0016,52
9.823,189,5.9934,5.8722,-14.9501,0.0386,0.0641,-0.024,88,9.88,190,8.7334,0.5695,-12.0413,0.0227,-0.026,0.0206,52
9.875,190,6.0039,5.8863,-15.0105,0.0543,0.0938,-0.0349,88,9.932,191,8.7146,0.487,-12.0991,0.0229,-0.0271,0.0147,52
9.927,191,5.9337,5.9453,-15.0808,0.0718,0.1105,-0.0533,88,9.984,192,8.7355,0.4047,-12.1087,0.0589,-0.0195,-0.0105,52
9.978,192,5.8366,5.9734,-15.1119,0.08,0.099,-0.0742,88,10.036,193,8.7235,0.4212,-12.1171,0.1161,-0.0048,-0.0447,52
10.03,193,5.8079,5.9681,-15.1231,0.0833,0.0719,-0.0917,88,10.088,194,8.6872,0.4993,-12.1252,0.1382,0.0091,-0.0696,52
10.082,194,5.8531,5.9144,-15.094,0.0901,0.0533,-0.1062,88,10.139,195,8.6614,0.5869,-12.1229,0.1145,0.0185,-0.0719,52
10.134,195,5.8912,5.9115,-15.0383,0.092,0.0512,-0.1058,88,10.191,196,8.6381,0.6734,-12.11,0.0751,0.0159,-0.0525,52
10.185,196,5.9945,5.9405,-14.9777,0.0974,0.0655,-0.0991,88,10.243,197,8.6556,0.6939,-12.0942,0.0166,-0.0015,-0.0033,52
10.237,197,6.0249,6.0069,-14.9181,0.1001,0.0952,-0.0972,88,10.295,198,8.6735,0.599,-12.1317,-0.0053,-0.0221,0.032,52
10.289,198,5.9911,6.0662,-14.9136,0.1033,0.1301,-0.1109,88,10.346,199,8.724,0.5567,-12.1604,-0.0,-0.0195,0.0333,52
10.341,199,5.9328,6.087,-14.9341,0.1166,0.1554,-0.1463,88,10.398,200,8.7204,0.495,-12.1827,-0.0058,-0.0051,0.0253,52
10.393,200,5.8406,6.1119,-14.9982,0.1028,0.1637,-0.1712,88,10.45,201,8.7015,0.5399,-12.1771,-0.0056,0.0075,0.0196,52
10.444,201,5.7034,6.042,-15.0398,0.0895,0.1301,-0.167,88,10.502,202,8.7052,0.5719,-12.169,-0.011,0.0085,0.0271,52
10.496,202,5.7144,6.0305,-15.0737,0.0514,0.0646,-0.1224,88,10.554,203,8.7016,0.5053,-12.1383,-0.0119,0.0109,0.0294,52
10.548,203,5.7673,6.0432,-15.0946,0.0234,0.0031,-0.0668,88,10.606,204,8.7143,0.4634,-12.1557,-0.009,0.0135,0.027,52
10.6,204,5.817,6.1125,-15.0767,0.0121,-0.0393,-0.0292,88,10.657,205,8.7111,0.4899,-12.1314,-0.0012,0.0119,0.0236,52
10.652,205,5.7918,6.1317,-15.037,0.0035,-0.0651,-0.0116,88,10.709,206,8.7185,0.4974,-12.1313,0.0046,0.0163,0.0197,52
10.704,206,5.7843,6.1535,-15.003,-0.0096,-0.0798,-0.0069,88,10.761,207,8.6978,0.4674,-12.1037,-0.0131,0.0175,0.0233,52
10.755,207,5.7946,6.1433,-14.9843,-0.0253,-0.0904,-0.0024,88,10.813,208,8.7395,0.4052,-12.0745,-0.0352,0.0128,0.026,52
10.807,208,5.8199,6.089,-15.0077,-0.0293,-0.093,0.0087,88,10.864,209,8.7314,0.3805,-12.0728,-0.0309,0.0114,0.0222,52
10.859,209,5.8164,6.0634,-15.0152,-0.0357,-0.0882,0.0266,88,10.916,210,8.7311,0.3918,-12.0686,-0.0098,0.0067,0.013,52
10.911,210,5.7857,6.0859,-15.0539,-0.0239,-0.0759,0.0321,88,10.968,211,8.7186,0.3709,-12.084,0.0078,0.0086,0.0036,52
10.963,211,5.7216,6.1453,-15.0848,-0.0138,-0.0638,0.022,88,11.02,212,8.7439,0.3947,-12.0648,0.0233,0.0111,-0.011,52
11.014,212,5.6644,6.1667,-15.115,-0.0016,-0.0565,-0.0036,88,11.072,213,8.734,0.4294,-12.0643,0.0322,0.0134,-0.0164,52
11.066,213,5.642,6.1691,-15.1389,0.0033,-0.0531,-0.0288,88,11.123,214,8.7171,0.4168,-12.054,0.0273,0.0165,-0.0116,52
11.118,214,5.6503,6.1406,-15.1437,0.0007,-0.0497,-0.0382,88,11.175,215,8.738,0.4186,-12.0258,0.0235,0.0181,-0.0128,52
11.17,215,5.6542,6.1319,-15.1442,0.0067,-0.0477,-0.0379,88,11.227,216,8.7544,0.3764,-12.0398,0.0204,0.0299,-0.0243,52
11.221,216,5.6421,6.1616,-15.1423,0.0009,-0.0445,-0.0286,88,11.279,217,8.7724,0.3567,-12.0334,0.033,0.0512,-0.0543,52
11.273,217,5.6207,6.163,-15.1385,0.0074,-0.0372,-0.0275,88,11.33,218,8.7724,0.4093,-12.0289,0.0581,0.0709,-0.0871,52
11.325,218,5.5847,6.1675,-15.143,0.0081,-0.0284,-0.029,88,11.382,219,8.7581,0.5194,-12.0042,0.07,0.0866,-0.0991,52
11.377,219,5.5387,6.1482,-15.0996,0.0057,-0.0167,-0.0209,88,11.434,220,8.7603,0.5785,-11.9528,0.0622,0.104,-0.095,52
