right_leg_timestamp,right_leg_index,right_leg_accel_x,right_leg_accel_y,right_leg_accel_z,right_leg_gyro_x,right_leg_gyro_y,right_leg_gyro_z,right_leg_battery_percentage,left_leg_timestamp,left_leg_index,left_leg_accel_x,left_leg_accel_y,left_leg_accel_z,left_leg_gyro_x,left_leg_gyro_y,left_leg_gyro_z,left_leg_battery_percentage
0.281,5,9.1372,-1.6066,-10.9391,0.0053,-0.0963,0.0054,70,0.107,2,6.6324,-3.0014,-13.8951,-0.2528,-2.1255,1.3557,40
0.333,6,9.5881,-0.725,-11.2075,0.2358,-0.1732,0.0066,70,0.159,3,5.0373,-2.6457,-13.7645,-0.1617,-2.0627,1.1313,40
0.385,7,9.3286,-1.0325,-11.3842,0.0616,-0.1118,0.0757,70,0.211,4,3.6398,-2.5944,-13.9564,-0.163,-1.7011,0.8929,40
0.436,8,9.4013,-1.1916,-11.2032,0.0113,-0.0828,0.058,70,0.263,5,2.628,-2.6446,-14.4117,-0.1383,-1.2564,0.6487,40
0.488,9,9.5759,-1.041,-11.2698,0.0251,-0.0724,0.0445,70,0.314,6,1.9621,-2.8813,-15.1421,-0.1835,-0.8062,0.4308,40
0.54,10,9.4404,-1.3061,-11.2073,-0.0588,-0.0358,0.0646,70,0.366,7,1.4543,-3.0606,-16.1645,-0.0687,-0.4275,0.227,40
0.592,11,9.4005,-1.2995,-11.2124,-0.0196,-0.0392,0.0357,70,0.418,8,1.1923,-3.2475,-17.1836,-0.0719,-0.1624,0.1062,40
0.644,12,9.206,-1.6493,-11.2533,0.074,-0.047,0.0601,70,0.47,9,1.0362,-3.4223,-17.9604,-0.0448,-0.0285,0.0472,40
0.695,13,9.367,-1.3945,-11.2736,0.0341,-0.0321,0.0641,70,0.522,10,0.8627,-3.4947,-18.4628,-0.0693,0.013,0.0085,40
0.747,14,9.4937,-1.5347,-11.3558,0.1027,-0.061,0.0501,70,0.573,11,0.8001,-3.5371,-18.7551,-0.0607,0.0037,-0.009,40
0.799,15,9.5276,-1.4681,-11.3908,0.1141,-0.0769,0.0496,70,0.625,12,0.7184,-3.561,-18.8549,-0.0702,-0.0186,-0.0181,40
0.851,16,9.5682,-1.2932,-11.4989,0.0473,-0.0637,0.0489,70,0.677,13,0.7464,-3.6579,-18.8225,-0.053,-0.0468,-0.0355,40
0.903,17,9.4372,-1.6514,-11.5652,-0.0606,-0.0164,0.0639,70,0.729,14,0.7193,-3.6749,-18.7811,-0.0517,-0.0509,-0.0503,40
0.954,18,9.5818,-1.5503,-11.475,-0.0781,0.0222,0.0582,70,0.781,15,0.7962,-3.7233,-18.8101,-0.026,-0.0366,-0.0505,40
1.006,19,9.5691,-1.6678,-11.4293,-0.0957,0.0094,0.0466,70,0.832,16,0.777,-3.7445,-18.815,-0.0083,-0.0081,-0.0341,40
1.058,20,9.5329,-1.5858,-11.4572,-0.08,-0.007,0.0279,70,0.884,17,0.8188,-3.7593,-18.8107,-0.0192,0.0131,-0.0152,40
1.11,21,9.4614,-1.6114,-11.4517,-0.0834,-0.0133,0.031,70,0.936,18,0.8107,-3.7167,-18.8477,0.0154,0.0224,-0.0009,40
1.162,22,9.4643,-1.6581,-11.4611,-0.0871,-0.0097,0.0309,70,0.988,19,0.7836,-3.6886,-18.8699,-0.0001,0.0372,0.0223,40
1.213,23,9.5086,-1.4454,-11.5311,-0.0095,-0.0238,0.0185,70,1.04,20,0.716,-3.6508,-18.9211,0.0134,0.0412,0.0469,40
1.265,24,9.3085,-1.5353,-11.5009,-0.0808,-0.0075,0.0313,70,1.091,21,0.6814,-3.6808,-18.8806,-0.0049,0.0416,0.0638,40
1.317,25,9.3828,-1.3894,-11.5368,-0.0869,0.0061,0.0136,70,1.143,22,0.7177,-3.7091,-18.8944,0.0008,0.0344,0.0693,40
1.369,26,9.3379,-1.5709,-11.5083,-0.0997,0.0109,0.0106,70,1.195,23,0.778,-3.7133,-18.9031,-0.0045,0.0339,0.0754,40
1.42,27,9.1282,-2.0269,-11.4295,-0.0529,0.0186,0.0045,70,1.247,24,0.7741,-3.6972,-18.8461,-0.0048,0.0267,0.0809,40
1.472,28,8.8632,-2.1318,-11.5008,0.2097,0.0052,0.0013,70,1.299,25,0.7,-3.6763,-18.7447,0.0184,0.0182,0.0782,40
1.524,29,9.0259,-1.9185,-11.3439,0.1237,0.0033,0.0372,70,1.351,26,0.6111,-3.6373,-18.733,0.0232,0.0426,0.0808,40
1.576,30,9.4144,-1.8265,-11.5551,0.1569,-0.0713,-0.0088,70,1.403,27,0.6824,-3.673,-18.9198,0.035,0.0761,0.101,40
1.628,31,9.4258,-1.7926,-11.6958,0.0457,-0.0436,-0.0144,70,1.454,28,0.912,-3.7839,-19.095,-0.031,0.0919,0.1216,40
1.679,32,9.3307,-1.7609,-11.6263,-0.024,0.0105,-0.0173,70,1.506,29,0.9157,-3.6585,-19.2462,-0.0621,0.0418,0.113,40
1.731,33,9.3794,-1.7527,-11.5458,-0.0232,0.0099,-0.0246,70,1.558,30,0.8417,-3.5982,-19.0313,-0.0347,-0.012,0.0856,40
1.783,34,9.3725,-1.6193,-11.5931,0.0005,-0.0067,-0.0286,70,1.609,31,0.712,-3.6045,-18.7853,-0.0145,-0.0149,0.0572,40
1.835,35,9.3456,-1.6186,-11.5956,-0.0214,0.0027,-0.0169,70,1.661,32,0.6557,-3.5862,-18.6229,-0.0204,0.023,0.023,40
1.887,36,9.3575,-1.648,-11.5392,-0.0244,0.0258,-0.0185,70,1.713,33,0.6938,-3.6151,-18.8412,-0.036,0.0751,0.0099,40
1.938,37,9.191,-1.9804,-11.4202,0.0791,0.0176,-0.0236,70,1.765,34,0.7938,-3.6154,-19.069,-0.0593,0.063,0.0214,40
1.99,38,9.467,-1.6241,-11.3988,0.1687,-0.0437,-0.0475,70,1.817,35,0.8196,-3.5116,-19.0877,-0.049,0.0137,0.0061,40
2.042,39,9.4122,-1.7966,-11.4866,0.2448,-0.0944,-0.0726,70,1.868,36,0.8087,-3.4829,-19.0136,-0.0146,-0.0183,-0.0213,40
2.094,40,9.376,-1.6014,-11.5585,0.2591,-0.0885,-0.0836,70,1.92,37,0.9077,-3.4163,-18.9124,-0.0266,-0.0152,-0.0543,40
2.145,41,9.4294,-1.4346,-11.6098,0.2448,-0.0779,-0.0757,70,1.972,38,0.9522,-3.4814,-18.9133,-0.0341,0.0081,-0.0976,40
2.197,42,9.4082,-1.5341,-11.6841,0.1958,-0.0469,-0.0609,70,2.024,39,0.974,-3.4398,-18.8938,-0.0352,0.0338,-0.1452,40
2.249,43,9.383,-1.4698,-11.6195,0.1731,-0.0281,-0.0648,70,2.075,40,0.8886,-3.4843,-18.8305,-0.0273,0.0677,-0.1603,40
2.301,44,9.3731,-1.5449,-11.5647,0.1757,-0.0654,-0.0857,70,2.127,41,0.9572,-3.6615,-18.329,0.0279,0.1082,-0.1624,40
2.353,45,9.4036,-1.3694,-11.6951,0.2001,-0.0775,-0.092,70,2.179,42,1.1282,-3.8273,-17.2363,0.1785,0.2598,-0.1815,40
2.405,46,9.4549,-1.2242,-11.7758,0.2183,-0.0627,-0.0746,70,2.231,43,1.4356,-3.8939,-15.7614,0.4354,0.6097,-0.2734,40
2.456,47,9.4394,-1.3205,-11.7616,0.1868,-0.0164,-0.0558,70,2.283,44,1.5559,-3.8324,-15.4115,0.8035,1.1287,-0.422,40
2.508,48,9.4188,-1.2388,-11.6105,0.2008,-0.0034,-0.0706,70,2.334,45,2.6615,-3.7325,-15.4099,0.6506,1.5088,-0.6438,40
2.56,49,9.3826,-1.3661,-11.5852,0.1597,-0.013,-0.0727,70,2.386,46,4.7531,-3.6858,-16.2814,0.2347,1.7861,-0.7557,40
2.612,50,9.381,-1.4637,-11.5084,0.1531,-0.0458,-0.1097,70,2.438,47,6.5439,-3.711,-17.1224,-0.3679,1.9886,-0.5783,40
2.664,51,9.3896,-1.5078,-11.492,0.0761,-0.1463,-0.1773,70,2.49,48,9.8933,-0.1756,-9.8889,-0.3048,1.5987,-0.3172,40
2.715,52,9.3893,-1.1553,-11.7213,-0.0075,-0.1847,-0.1649,70,2.542,49,12.3379,-0.7123,-9.2137,-0.4549,0.9523,-0.338,40
2.767,53,9.3714,-1.0051,-11.6177,-0.0979,-0.2224,-0.1438,70,2.593,50,10.3909,-1.5043,-11.189,-0.3604,0.7895,-0.2274,40
2.819,54,9.2524,-0.6832,-12.1556,-0.1099,-0.2005,-0.0659,70,2.645,51,10.4639,-2.2158,-12.0834,-0.337,0.5846,-0.1424,40
2.871,55,9.2132,-0.5523,-12.501,-0.0485,-0.0841,0.0091,70,2.697,52,11.5161,-3.1944,-12.2401,-0.2435,0.4444,-0.1095,40
2.923,56,9.5302,0.5883,-12.3139,-0.216,0.1647,0.1667,70,2.749,53,10.8988,-3.3984,-12.8677,0.2634,0.145,-0.0155,40
2.974,57,9.3581,-1.5403,-12.2384,-0.7456,0.2346,0.3235,70,2.801,54,10.1715,-2.7284,-16.078,0.2655,-0.0879,0.084,40
3.026,58,9.2362,-1.8297,-11.7767,-0.5315,0.1669,0.2219,70,2.852,55,9.7396,-2.6372,-16.816,0.0991,-0.6539,0.1673,40
3.078,59,9.2881,-1.5242,-11.8498,-0.3235,0.0537,0.1504,70,2.904,56,8.45,-3.224,-17.18,0.5811,-1.1441,0.2386,40
3.13,60,9.4734,-1.3256,-11.8998,-0.2994,0.0487,0.1572,70,2.956,57,6.9858,-3.2673,-16.8624,0.452,-1.5018,0.3873,40
3.181,61,9.4788,-1.3662,-11.9672,-0.2484,0.0388,0.1415,70,3.008,58,5.6501,-3.6893,-16.7783,-0.0172,-1.7065,0.4357,40
3.233,62,9.5768,-1.1493,-11.9351,-0.3284,0.0651,0.143,70,3.059,59,4.6112,-3.6578,-16.5748,0.0905,-1.8155,0.3939,40
3.285,63,9.5499,-1.3614,-11.923,-0.3516,0.0591,0.1212,70,3.111,60,3.6164,-3.4508,-16.1608,0.0662,-1.7523,0.3405,40
3.337,64,9.3474,-1.347,-11.7876,-0.3715,0.0631,0.0982,70,3.163,61,2.7394,-3.4128,-16.0293,-0.0285,-1.5647,0.2427,40
3.388,65,9.3245,-1.5311,-11.7521,-0.2718,0.0319,0.0845,70,3.215,62,2.1518,-3.3256,-15.8236,-0.0561,-1.2861,0.1454,40
3.44,66,8.6533,-2.6242,-11.7547,0.0444,0.0358,0.0831,70,3.267,63,1.5821,-3.4038,-16.0436,-0.065,-0.9249,0.0446,40
3.492,67,9.0862,-1.8392,-11.8268,-0.0676,0.084,0.1123,70,3.318,64,1.2803,-3.6249,-16.49,-0.0876,-0.5406,-0.0324,40
3.544,68,9.4092,-2.0951,-11.9453,-0.0339,0.0416,0.1032,70,3.37,65,1.1211,-3.8765,-17.3593,-0.111,-0.2223,-0.0758,40
3.595,69,9.353,-1.9946,-12.0178,-0.084,0.0681,0.0912,70,3.422,66,1.0168,-3.8683,-18.2195,-0.0515,-0.0943,-0.0899,40
3.647,70,9.4697,-1.7868,-11.8302,-0.1526,0.0927,0.0637,70,3.474,67,1.1079,-3.9522,-18.5269,-0.0099,-0.0992,-0.1123,40
3.699,71,9.4985,-1.7599,-11.6959,-0.1751,0.0604,0.0707,70,3.525,68,0.9432,-4.083,-18.6557,0.0598,-0.1114,-0.1225,40
3.751,72,9.35,-1.6965,-11.7368,-0.1577,0.045,0.0569,70,3.577,69,0.858,-4.1042,-18.5595,0.0354,-0.1183,-0.1078,40
3.803,73,9.3686,-1.6549,-11.8204,-0.1638,0.0414,0.0467,70,3.629,70,0.8631,-4.1405,-18.4567,0.0069,-0.0811,-0.0828,40
3.854,74,9.3154,-1.8804,-11.811,-0.1719,0.055,0.0437,70,3.681,71,0.7482,-4.0894,-18.4941,0.002,-0.0265,-0.0567,40
3.906,75,9.3054,-1.6857,-11.6388,-0.0127,0.0487,0.025,70,3.733,72,0.784,-4.158,-18.5419,-0.0069,0.0073,-0.0178,40
3.958,76,9.2564,-1.7913,-11.5242,-0.0616,0.0307,0.0345,70,3.784,73,0.8033,-4.1484,-18.5981,-0.0124,0.0418,0.036,40
4.01,77,8.0511,-3.9154,-11.5809,0.3935,0.0651,0.0277,70,3.836,74,0.9293,-4.1915,-18.4325,-0.0035,0.0385,0.0819,40
4.062,78,10.3636,-0.2204,-11.5124,0.7116,-0.2465,-0.0894,70,3.888,75,0.6239,-4.1363,-18.4003,0.0536,0.0747,0.0774,40
4.114,79,9.1331,-2.1903,-11.9954,0.4699,-0.3503,-0.072,70,3.939,76,0.8503,-4.2853,-18.5409,0.0616,0.1185,0.0588,40
4.166,80,9.2535,-1.3936,-12.2197,0.1374,-0.1633,-0.0378,70,3.991,77,1.0672,-4.2951,-18.7325,0.1493,0.1585,0.0132,40
4.217,81,9.3909,-1.6822,-12.0838,-0.0545,-0.03,-0.0213,70,4.043,78,1.1533,-4.3921,-18.735,0.1476,0.1673,-0.0381,40
4.269,82,9.1827,-1.9661,-11.7292,-0.1356,0.0081,-0.016,70,4.095,79,1.0566,-4.2664,-18.7428,0.1652,0.1592,-0.0915,40
4.321,83,8.8076,-2.9884,-11.3265,-0.0144,-0.0011,-0.0184,70,4.147,80,1.04,-4.1752,-18.6146,0.0925,0.1187,-0.0936,40
4.372,84,9.6224,-0.3767,-11.615,0.4471,-0.2697,-0.1328,70,4.198,81,0.8148,-4.0822,-18.5651,0.1109,0.0914,-0.0903,40
4.424,85,7.9496,-1.638,-12.1378,-0.0058,-0.0356,-0.0297,70,4.251,82,1.0489,-4.1093,-18.5406,0.0642,0.0951,-0.0847,40
4.476,86,8.8973,-0.9852,-12.2631,0.0744,-0.0121,-0.0422,70,4.302,83,1.2708,-4.1621,-18.735,0.0497,0.1223,-0.0743,40
4.528,87,8.8844,-1.4905,-12.041,0.0074,0.0482,-0.0176,70,4.354,84,1.4963,-4.3053,-18.8163,0.0018,0.0961,-0.0713,40
4.58,88,8.8715,-1.6267,-11.8821,-0.0601,0.0829,-0.0032,70,4.406,85,1.4686,-4.4309,-18.845,-0.0184,0.0462,-0.0578,40
4.631,89,8.9123,-1.9059,-11.8272,-0.0043,0.0653,-0.0102,70,4.457,86,1.4238,-4.3576,-18.6634,-0.0491,-0.0036,-0.0302,40
4.683,90,9.1905,-1.3601,-11.862,0.1423,0.0101,-0.0289,70,4.509,87,1.3209,-4.2548,-18.4226,-0.0046,-0.0186,0.0044,40
4.735,91,9.1587,-1.3555,-11.8132,0.0452,0.0178,0.0133,70,4.561,88,1.3044,-4.1961,-18.2866,-0.0329,0.0132,0.0265,40
4.787,92,9.1826,-1.4531,-11.7936,-0.0465,0.0517,0.0185,70,4.613,89,1.4371,-4.3103,-18.3441,-0.0254,0.0604,0.0436,40
4.838,93,9.2516,-1.5138,-11.7654,-0.0301,0.03,0.0109,70,4.665,90,1.5467,-4.4089,-18.5032,-0.0523,0.0774,0.0601,40
4.89,94,9.3215,-1.5313,-11.8007,-0.0677,0.0215,0.0104,70,4.716,91,1.5283,-4.4466,-18.6746,-0.0644,0.0536,0.07,40
4.942,95,9.317,-1.6552,-11.7189,-0.0497,0.0235,0.0052,70,4.768,92,1.5517,-4.4229,-18.6473,-0.0143,0.0184,0.0601,40
4.994,96,9.0842,-1.8997,-11.7186,-0.0145,0.0182,-0.0044,70,4.82,93,1.5916,-4.3506,-18.4959,-0.0411,-0.0089,0.0457,40
5.046,97,9.086,-1.8488,-11.7222,0.0324,0.017,-0.0011,70,4.872,94,1.5365,-4.2972,-18.3661,-0.0268,-0.0124,0.0343,40
5.097,98,9.1587,-1.7909,-11.6599,0.0026,0.0004,0.0038,70,4.923,95,1.505,-4.2266,-18.2935,0.0092,0.0154,0.0268,40
5.149,99,9.112,-2.0223,-11.689,0.04,-0.036,-0.0048,70,4.975,96,1.5486,-4.243,-18.3621,-0.0371,0.0591,0.0513,40
5.201,100,9.1794,-1.7881,-11.8421,-0.0064,0.0051,-0.0035,70,5.027,97,1.5625,-4.2418,-18.4947,-0.0197,0.0804,0.0607,40
5.253,101,9.2774,-1.8146,-11.8239,-0.0146,0.0251,0.0011,70,5.079,98,1.5432,-4.2703,-18.6715,-0.0165,0.0788,0.064,40
5.305,102,9.1883,-1.9432,-11.7673,0.002,0.016,-0.0026,70,5.131,99,1.5301,-4.3039,-18.6769,-0.0369,0.0482,0.0756,40
5.357,103,9.0979,-1.8945,-11.8214,0.1177,-0.0112,-0.0045,70,5.182,100,1.447,-4.2811,-18.5791,-0.0157,0.0126,0.0763,40
5.408,104,9.1936,-1.5762,-11.8227,0.0346,0.0152,0.0045,70,5.234,101,1.3959,-4.2528,-18.4487,-0.0111,0.0032,0.0599,40
5.46,105,9.2316,-1.7774,-11.7926,0.0124,0.0031,0.0027,70,5.286,102,1.4113,-4.2321,-18.4317,-0.0148,0.0205,0.0512,40
5.512,106,9.3087,-1.6461,-11.875,0.0026,-0.0101,-0.0026,70,5.338,103,1.476,-4.2505,-18.4634,-0.004,0.0375,0.0295,40
5.564,107,9.3362,-1.6624,-11.8332,-0.0452,0.0207,0.0131,70,5.389,104,1.4815,-4.2757,-18.6246,-0.0106,0.032,0.0107,40
5.615,108,9.2633,-1.8052,-11.7098,-0.0487,0.0413,0.0098,70,5.441,105,1.4741,-4.2708,-18.6362,-0.0074,0.0074,0.0052,40
5.667,109,9.2763,-1.748,-11.7705,-0.0029,0.0043,-0.0202,70,5.493,106,1.2929,-4.281,-18.6454,-0.0261,-0.019,0.007,40
5.719,110,9.3258,-1.623,-11.877,-0.0009,0.0198,-0.0022,70,5.545,107,1.3527,-4.2858,-18.5386,-0.031,-0.038,0.0062,40
5.771,111,9.2721,-1.7076,-11.7658,-0.0097,0.0403,0.0019,70,5.597,108,1.3782,-4.2016,-18.5508,-0.034,-0.0323,0.019,40
5.823,112,9.1592,-1.8117,-11.7282,0.0534,0.0185,-0.0018,70,5.648,109,1.4638,-4.2163,-18.4679,-0.0339,-0.0217,0.0314,40
5.874,113,9.2832,-1.5888,-11.7294,-0.0012,0.0362,0.0082,70,5.7,110,1.4679,-4.2302,-18.4042,-0.0143,-0.0071,0.0322,40
5.926,114,9.2956,-1.7013,-11.7801,-0.0224,0.0189,0.0096,70,5.752,111,1.4999,-4.161,-18.4138,-0.0005,0.0253,0.0258,40
5.978,115,9.2845,-1.7402,-11.7797,-0.0497,0.0168,0.011,70,5.804,112,1.562,-4.1506,-18.4534,-0.0569,0.0536,0.0221,40
6.03,116,9.2599,-1.7385,-11.7554,-0.0255,0.0403,0.0076,70,5.856,113,1.6995,-4.1496,-18.5406,-0.0541,0.0678,0.0104,40
6.081,117,9.2907,-1.7397,-11.6974,-0.0068,0.058,0.0122,70,5.907,114,1.6466,-4.141,-18.5775,-0.0808,0.0645,0.0094,40
6.133,118,9.3564,-1.6072,-11.7406,0.0553,0.0437,0.0056,70,5.959,115,1.6009,-4.1753,-18.5797,-0.0668,0.0662,0.0063,40
6.185,119,9.2773,-1.7019,-11.77,-0.0042,0.0251,0.009,70,6.011,116,1.5662,-4.1434,-18.5562,-0.0716,0.0658,0.0129,40
6.237,120,9.2816,-1.7337,-11.7804,-0.0188,0.0145,-0.0001,70,6.063,117,1.5416,-4.1044,-18.5658,-0.0664,0.0658,0.0354,40
6.289,121,9.3379,-1.6956,-11.6302,0.0062,0.009,0.0096,70,6.115,118,1.5493,-4.0977,-18.5082,-0.0612,0.0625,0.058,40
6.341,122,9.3954,-1.5046,-11.6946,-0.0088,0.0089,0.0128,70,6.166,119,1.5037,-4.0527,-18.5367,-0.0309,0.0628,0.0669,40
6.392,123,9.4001,-1.542,-11.6951,-0.0575,0.019,0.0165,70,6.218,120,1.6081,-4.1145,-18.6028,-0.0302,0.0715,0.0804,40
6.444,124,9.3834,-1.6045,-11.6832,-0.0618,0.0188,0.0133,70,6.27,121,1.6448,-4.11,-18.6002,-0.0379,0.0686,0.0925,40
6.496,125,9.3141,-1.6203,-11.6609,-0.0452,0.0249,0.0097,70,6.322,122,1.5755,-4.0565,-18.5859,-0.0337,0.0573,0.0909,40
6.548,126,9.2356,-1.6686,-11.6218,-0.0216,0.0224,0.0172,70,6.373,123,1.5555,-4.0331,-18.5457,-0.0406,0.0435,0.0741,40
6.599,127,9.2567,-1.6035,-11.6431,-0.0115,-0.0003,0.0132,70,6.425,124,1.552,-4.0453,-18.552,-0.0145,0.0407,0.0536,40
6.651,128,9.3294,-1.6106,-11.726,-0.0085,-0.0192,0.0037,70,6.477,125,1.5742,-4.093,-18.6044,-0.0226,0.0369,0.0469,40
6.703,129,9.3871,-1.4743,-11.7502,-0.0531,0.0042,-0.0045,70,6.529,126,1.5818,-4.0901,-18.7119,-0.0084,0.016,0.0533,40
6.755,130,9.3473,-1.5221,-11.7083,-0.082,0.0239,-0.0039,70,6.581,127,1.7102,-4.079,-18.6927,0.0027,-0.015,0.0578,40
6.807,131,9.341,-1.6133,-11.6508,-0.0737,0.0223,-0.0059,70,6.632,128,1.6368,-3.9923,-18.5482,-0.0151,-0.0341,0.0457,40
6.858,132,9.2882,-1.727,-11.5535,-0.0604,0.0193,-0.0037,70,6.684,129,1.5816,-3.9522,-18.4088,-0.0214,-0.0337,0.0205,40
6.91,133,9.2538,-1.853,-11.47,-0.0031,0.0102,-0.0084,70,6.736,130,1.5424,-3.9775,-18.3479,-0.0188,-0.0183,-0.0071,40
6.962,134,9.5489,-1.4967,-11.5454,0.1169,-0.0656,-0.0173,70,6.787,131,1.5001,-4.0583,-18.4092,-0.0144,-0.0061,-0.0315,40
7.014,135,9.4012,-1.5925,-11.4924,0.1876,-0.1126,-0.0309,70,6.839,132,1.5392,-4.0665,-18.5766,0.0004,-0.0026,-0.0418,40
7.066,136,9.474,-1.3029,-11.7169,0.1961,-0.1059,-0.0564,70,6.891,133,1.6061,-4.0724,-18.74,0.0169,-0.0185,-0.0414,40
7.117,137,9.468,-1.3661,-11.7669,0.1852,-0.0668,-0.0482,70,6.943,134,1.641,-4.0649,-18.824,0.019,-0.0531,-0.0456,40
7.169,138,9.3977,-1.4616,-11.69,0.1096,-0.047,-0.0391,70,6.995,135,1.6081,-4.0043,-18.7392,0.0172,-0.0856,-0.051,40
7.221,139,9.3687,-1.5861,-11.6725,0.1237,-0.0637,-0.0506,70,7.046,136,1.598,-3.9084,-18.5893,0.0001,-0.0939,-0.0409,40
7.273,140,9.3698,-1.4866,-11.7373,0.1522,-0.0658,-0.051,70,7.098,137,1.5807,-3.8213,-18.47,-0.0078,-0.0743,-0.0412,40
7.325,141,9.4154,-1.3507,-11.8046,0.2252,-0.0445,-0.0474,70,7.15,138,1.5927,-3.8404,-18.508,-0.0148,-0.0297,-0.0584,40
7.376,142,9.3827,-1.4014,-11.7692,0.1525,-0.026,-0.0269,70,7.202,139,1.6537,-3.9604,-18.6448,0.0031,-0.0019,-0.0762,40
7.428,143,9.3784,-1.3788,-11.7945,0.0983,-0.0182,-0.0069,70,7.254,140,1.6251,-4.0139,-18.7174,0.0101,0.0004,-0.0784,40
7.48,144,9.4367,-1.2487,-11.6516,-0.1323,0.0163,0.0361,70,7.305,141,1.5732,-3.9783,-18.674,0.0135,-0.0178,-0.0643,40
7.532,145,9.5004,-1.3342,-11.5853,-0.0223,0.0216,0.0068,70,7.357,142,1.5129,-3.9146,-18.6582,0.0182,-0.0205,-0.0402,40
7.584,146,9.4395,-1.3953,-11.5601,-0.0395,-0.0032,0.0114,70,7.409,143,1.5864,-3.9931,-18.581,-0.01,-0.0088,-0.0084,40
7.635,147,9.4223,-1.3048,-11.7015,-0.0384,0.0002,0.0147,70,7.461,144,1.6025,-4.028,-18.5553,0.0272,-0.0113,-0.0038,40
7.687,148,9.4353,-1.3112,-11.656,-0.1926,0.0323,0.0515,70,7.513,145,1.6573,-3.9784,-18.5515,0.0362,-0.005,0.0152,40
7.739,149,9.3919,-1.5162,-11.6782,-0.0908,0.0175,0.0184,70,7.564,146,1.6634,-3.9921,-18.5971,-0.0022,0.0146,0.0524,40
7.791,150,9.33,-1.4519,-11.6556,-0.0621,-0.0059,0.0095,70,7.616,147,1.7006,-4.0294,-18.5809,0.0073,0.0263,0.0776,40
7.842,151,9.317,-1.4184,-11.7457,-0.0564,0.0008,0.0132,70,7.668,148,1.6712,-4.0319,-18.5453,0.0108,0.039,0.0686,40
7.894,152,9.3006,-1.6153,-11.7414,-0.0794,0.0152,0.0199,70,7.72,149,1.6232,-4.0003,-18.5901,-0.0032,0.052,0.0559,40
7.946,153,9.33,-1.6012,-11.6984,-0.0519,-0.0059,0.0109,70,7.772,150,1.5894,-4.0265,-18.6364,0.0042,0.0562,0.0556,40
7.998,154,9.3613,-1.5423,-11.7484,-0.0543,0.025,0.0187,70,7.823,151,1.5564,-4.0524,-18.6071,-0.0055,0.0425,0.0502,40
8.05,155,9.333,-1.5938,-11.7331,-0.041,0.0191,0.0112,70,7.875,152,1.5115,-4.0179,-18.6144,-0.0049,0.0298,0.0395,40
8.102,156,9.3462,-1.604,-11.7148,-0.024,0.0069,0.0023,70,7.927,153,1.5338,-4.0078,-18.5824,-0.0037,0.0164,0.0314,40
8.153,157,9.3781,-1.5827,-11.7738,-0.0178,-0.0234,-0.0063,70,7.979,154,1.567,-4.0569,-18.5769,-0.0063,0.0073,0.007,40
8.205,158,9.3625,-1.5478,-11.867,0.0004,-0.0189,-0.0026,70,8.03,155,1.5998,-4.0567,-18.5872,0.0016,-0.0021,-0.0247,40
8.257,159,9.3003,-1.5886,-11.8259,0.0158,-0.0069,-0.0009,70,8.082,156,1.6254,-4.0523,-18.5993,0.0206,-0.0036,-0.0443,40
8.309,160,9.3889,-1.475,-11.808,0.0024,-0.0135,-0.0076,70,8.134,157,1.6341,-4.0816,-18.5382,0.015,-0.0018,-0.0531,40
8.36,161,9.3855,-1.5149,-11.8543,-0.0058,-0.0268,-0.0086,70,8.186,158,1.6021,-4.0398,-18.487,0.012,0.0093,-0.05,40
8.412,162,9.3343,-1.5093,-11.9387,0.0151,-0.0206,-0.0149,70,8.238,159,1.548,-3.9799,-18.5099,0.0084,0.0234,-0.0375,40
8.464,163,9.2658,-1.6776,-11.8236,0.0721,-0.0228,-0.0125,70,8.289,160,1.5467,-3.9529,-18.5448,-0.0028,0.0252,-0.0183,40
8.516,164,9.3426,-1.4229,-11.7471,0.1505,-0.0275,-0.0167,70,8.341,161,1.6642,-4.0037,-18.5871,-0.0124,0.0236,-0.0003,40
8.568,165,9.3831,-1.4895,-11.7841,0.1167,-0.0395,-0.0187,70,8.393,162,1.7459,-4.0563,-18.5804,-0.0182,0.0338,0.0266,40
8.619,166,9.4404,-1.3224,-11.8832,0.0699,-0.0188,-0.0119,70,8.445,163,1.6929,-4.0799,-18.468,-0.0009,0.0369,0.0244,40
8.671,167,9.3966,-1.2341,-11.8575,-0.0936,0.0413,0.0273,70,8.497,164,1.7019,-4.1109,-18.4569,0.002,0.046,0.0005,40
8.723,168,9.3484,-1.4235,-11.7757,-0.0114,0.0148,-0.0052,70,8.549,165,1.7507,-4.0913,-18.5274,0.013,0.0469,0.0005,40
8.775,169,9.2826,-1.4086,-11.8161,0.0213,-0.004,-0.0111,70,8.6,166,1.7344,-4.0643,-18.5496,0.0055,0.0412,0.0248,40
8.827,170,9.3348,-1.2913,-11.8486,0.0801,-0.0035,0.0005,70,8.653,167,1.6947,-4.0535,-18.5373,0.0009,0.0238,0.0218,40
8.878,171,9.3333,-1.4797,-11.8257,0.0625,-0.0014,0.0182,70,8.704,168,1.7821,-4.0637,-18.5342,0.0325,0.0164,-0.0052,40
8.93,172,9.3522,-1.4277,-11.785,0.1083,-0.0021,-0.0027,70,8.756,169,1.8121,-4.0893,-18.562,0.025,0.0205,-0.0206,40
8.982,173,9.3649,-1.3755,-11.8305,0.0874,-0.001,-0.0042,70,8.808,170,1.7721,-4.1191,-18.5147,0.0551,0.0086,-0.0378,40
9.034,174,9.3838,-1.3266,-11.8625,0.0365,0.0142,0.0087,70,8.86,171,1.7379,-4.0423,-18.4532,0.0507,-0.0025,-0.0453,40
9.085,175,9.2967,-1.5228,-11.7675,-0.1003,0.0383,0.0358,70,8.912,172,1.7536,-4.0651,-18.4791,0.0385,0.0014,-0.0358,40
9.137,176,9.3137,-1.5359,-11.7468,-0.0643,0.0257,0.0156,70,8.963,173,1.7773,-4.0471,-18.4639,0.0443,0.0016,-0.0167,40
9.189,177,9.3633,-1.5175,-11.8567,-0.0718,0.0234,0.0106,70,9.015,174,1.8587,-4.0937,-18.4266,0.0121,0.0127,-0.0055,40
9.241,178,9.3709,-1.4355,-11.8347,-0.1,0.0617,0.0219,70,9.067,175,1.9762,-4.0871,-18.4272,0.0078,0.0248,-0.0171,40
9.292,179,9.3596,-1.5947,-11.6988,-0.1262,0.0811,0.0313,70,9.119,176,2.0831,-4.0027,-18.445,0.0063,0.0344,-0.0394,40
9.344,180,9.3902,-1.5163,-11.7246,-0.1022,0.0648,0.0072,70,9.171,177,2.098,-3.8523,-18.0044,0.0074,0.0444,-0.0744,40
9.396,181,9.4487,-1.3665,-11.8872,-0.0987,0.1036,0.0088,70,9.222,178,1.9271,-3.4883,-16.7436,0.09,0.1453,-0.1837,40
9.448,182,9.4489,-1.3822,-11.785,-0.1224,0.1836,0.0462,70,9.274,179,1.67,-3.2265,-15.3734,-0.0625,0.5227,-0.3697,40
9.5,183,9.3957,-1.5963,-11.5718,-0.1334,0.2286,0.0573,70,9.326,180,1.8479,-2.9262,-14.4035,-0.3151,1.0665,-0.5264,40
9.551,184,9.3677,-1.6642,-11.3949,-0.1047,0.2235,0.054,70,9.377,181,2.3946,-2.5404,-14.0084,-0.5265,1.4633,-0.5792,40
9.604,185,9.3617,-1.7046,-11.2792,-0.1151,0.2131,0.0519,70,9.429,182,4.378,-2.2837,-14.2368,-0.4468,1.753,-0.621,40
9.655,186,9.4293,-1.5566,-11.3077,-0.13,0.2172,0.0662,70,9.481,183,8.3125,-1.2898,-15.1426,-0.6698,1.9644,-0.8861,40
9.707,187,10.2468,-2.1785,-11.5997,-0.0774,0.1812,0.0928,70,9.533,184,11.1841,-3.1021,-12.2347,-0.1337,1.7807,-0.2677,40
9.759,188,10.1948,-1.7084,-11.1255,-0.0398,0.0585,0.0456,70,9.585,185,13.28,-2.1161,-10.0618,-0.699,1.4751,-0.2015,40
9.811,189,9.7607,-1.8596,-11.2175,-0.0638,0.1011,0.0431,70,9.636,186,10.5058,-2.0539,-10.3473,-0.1565,1.2133,-0.1721,40
9.862,190,9.6777,-1.6744,-10.7599,-0.0657,0.1485,0.0501,70,9.688,187,11.4736,-1.7517,-10.1669,-0.2278,0.9471,-0.1887,40
9.914,191,9.7809,-1.705,-10.7223,-0.0191,0.0898,0.0089,70,9.74,188,10.6711,-1.1195,-9.9132,-0.215,0.7538,-0.1705,40
9.966,192,9.7314,-1.5503,-10.6312,-0.0711,0.0712,-0.0088,70,9.792,189,10.1278,-1.0884,-9.8772,0.0027,0.6062,-0.1462,40
10.018,193,9.6407,-1.6605,-10.5064,-0.0333,0.0294,-0.0239,70,9.843,190,9.8404,-1.0595,-9.7499,0.01,0.4305,-0.1314,40
10.069,194,9.6403,-1.6034,-10.567,-0.0172,0.0059,-0.0435,70,9.895,191,9.6346,-0.985,-9.8917,-0.1073,0.2815,-0.1137,40
