right_leg_timestamp,right_leg_index,right_leg_accel_x,right_leg_accel_y,right_leg_accel_z,right_leg_gyro_x,right_leg_gyro_y,right_leg_gyro_z,right_leg_battery_percentage,left_leg_timestamp,left_leg_index,left_leg_accel_x,left_leg_accel_y,left_leg_accel_z,left_leg_gyro_x,left_leg_gyro_y,left_leg_gyro_z,left_leg_battery_percentage
0.033,0,9.2335,-0.9523,-11.8142,0.2907,-0.506,-0.2906,92,0.63,12,7.4458,2.6333,-15.5035,0.1431,-1.4942,-0.7732,63
0.085,1,9.5565,-1.1523,-11.8124,0.272,-0.8228,-0.3682,92,0.681,13,6.5458,2.1112,-14.707,0.14,-1.5918,-0.7886,63
0.136,2,9.8447,-0.6997,-12.6402,0.1737,-0.889,-0.3454,92,0.733,14,5.9114,1.7397,-14.3113,0.0603,-1.4173,-0.6595,63
0.188,3,9.8172,-0.3584,-12.95,-0.0283,-0.7709,-0.1167,92,0.785,15,5.7261,1.8198,-14.6793,0.0881,-1.0723,-0.4264,63
0.24,4,9.3948,-0.6589,-13.729,-0.1185,-0.6569,0.0517,92,0.837,16,5.4806,1.7716,-15.1979,-0.0496,-0.7523,-0.2608,63
0.292,5,9.3614,-0.5595,-14.2695,-0.1718,-0.3163,0.1628,92,0.888,17,5.3417,1.9355,-15.7703,-0.1709,-0.509,-0.125,63
0.344,6,9.209,-0.8498,-14.3509,-0.2514,0.1049,0.2246,92,0.94,18,5.2879,2.3264,-16.1871,-0.1343,-0.3586,-0.0188,63
0.396,7,8.9613,-0.4099,-13.7509,-0.109,0.3944,0.1757,92,0.992,19,5.1178,2.768,-16.6159,-0.0607,-0.3224,0.0263,63
0.448,8,8.7445,-0.4386,-13.2117,0.0397,0.6031,0.1282,92,1.044,20,4.8185,3.2279,-16.7886,-0.1229,-0.2726,0.0315,63
0.499,9,9.1496,-0.4346,-12.6503,0.0192,0.5102,0.1996,92,1.096,21,4.3185,3.317,-16.7731,-0.1412,-0.2029,0.0838,63
0.551,10,9.1905,-0.8177,-12.7113,0.0432,0.4002,0.1651,92,1.147,22,4.1111,3.3714,-16.9196,-0.1235,-0.1344,0.115,63
0.603,11,9.3513,-0.646,-12.5573,-0.0247,0.3904,0.1995,92,1.199,23,4.3222,3.3833,-17.1617,-0.1287,-0.0631,0.1009,63
0.655,12,9.228,-0.8893,-12.4834,-0.3083,0.3621,0.2779,92,1.251,24,4.6177,3.2238,-17.4871,-0.1502,-0.0041,0.1016,63
0.707,13,9.0776,-1.6461,-12.1365,-0.3363,0.2494,0.1804,92,1.303,25,4.5494,3.0692,-17.4849,-0.128,-0.0024,0.0998,63
0.758,14,9.1042,-1.5193,-12.1131,-0.1892,0.1237,0.097,92,1.355,26,4.4656,3.1137,-17.5194,-0.0258,0.0026,0.0811,63
0.81,15,9.153,-1.5957,-12.2792,-0.0213,0.1087,0.0609,92,1.406,27,4.421,3.2375,-17.5691,0.1872,0.0053,0.0482,63
0.862,16,9.1594,-1.295,-12.2103,0.2879,0.0549,-0.0989,92,1.458,28,4.3174,3.1707,-17.5617,0.3763,0.0144,0.0177,63
0.913,17,9.314,-1.0679,-12.1401,0.2483,-0.0223,-0.0578,92,1.51,29,4.3719,2.893,-17.532,0.4807,0.0306,-0.0113,63
0.965,18,9.6405,-0.491,-12.2303,-0.1056,0.0856,0.1243,92,1.562,30,4.6053,2.7389,-17.6845,0.4192,0.0172,-0.0199,63
1.017,19,9.4549,-0.998,-12.2458,-0.2546,0.1079,0.1877,92,1.613,31,4.6136,2.5147,-17.5688,0.3498,-0.0163,-0.0173,63
1.069,20,9.179,-1.5577,-12.1125,-0.2472,0.0892,0.1458,92,1.665,32,4.5275,2.3958,-17.4168,0.347,-0.0068,-0.0236,63
1.121,21,9.3901,-1.0431,-12.1599,-0.0171,0.0041,0.0031,92,1.717,33,4.7371,2.2386,-17.0677,0.3142,0.0654,-0.0108,63
1.172,22,9.4019,-1.1129,-12.1205,0.1361,-0.0201,-0.0287,92,1.769,34,4.6778,2.0124,-16.7906,0.2611,0.2299,0.0173,63
1.224,23,9.5082,-1.0515,-11.961,0.1687,-0.0685,-0.0701,92,1.821,35,4.8764,2.0062,-17.0334,0.3261,0.3961,0.0271,63
1.276,24,9.692,-0.8386,-11.9794,0.0149,-0.0335,0.0066,92,1.872,36,5.1254,1.9487,-17.3348,0.321,0.4428,0.0314,63
1.328,25,9.5051,-1.2012,-12.0215,-0.1276,-0.0135,0.0479,92,1.924,37,5.3683,1.9724,-17.6184,0.2752,0.413,0.0541,63
1.38,26,9.3029,-1.6168,-12.0447,-0.107,-0.005,0.0203,92,1.976,38,5.3862,1.8046,-17.6135,0.1922,0.3383,0.063,63
1.431,27,9.4902,-1.2787,-11.9915,0.0429,-0.0338,-0.0674,92,2.028,39,5.4454,1.7173,-17.609,0.1676,0.2595,0.0615,63
1.483,28,9.4257,-1.3715,-11.914,0.0581,-0.0683,-0.0676,92,2.079,40,5.4047,1.6515,-17.5249,0.0863,0.1764,0.0583,63
1.535,29,9.308,-1.5497,-12.0543,0.1156,-0.1604,-0.1445,92,2.131,41,5.3748,1.6447,-17.4678,0.0387,0.0969,0.0496,63
1.587,30,9.4118,-1.1509,-12.1899,0.1979,-0.1806,-0.1679,92,2.183,42,5.333,1.6095,-17.3994,-0.0061,0.031,0.0456,63
1.639,31,9.4753,-0.9333,-12.1715,0.1147,-0.0922,-0.0496,92,2.235,43,5.3923,1.5719,-17.2958,-0.0238,-0.0235,0.0448,63
1.69,32,9.4009,-1.0381,-12.2458,0.0797,-0.0653,-0.0326,92,2.286,44,5.4853,1.5428,-17.2193,-0.0476,-0.0576,0.0374,63
1.742,33,9.5402,-0.788,-12.2591,-0.0483,-0.0118,0.0529,92,2.338,45,5.5673,1.5181,-17.1771,-0.0232,-0.0611,0.0186,63
1.794,34,9.4284,-1.0104,-12.3831,-0.1927,0.0555,0.1244,92,2.39,46,5.582,1.5325,-17.196,-0.0629,-0.0669,0.0091,63
1.846,35,9.2898,-1.2329,-12.3455,-0.1931,0.0864,0.1373,92,2.442,47,5.4946,1.5131,-17.1473,-0.1113,-0.0835,0.0063,63
1.897,36,9.1639,-1.388,-12.3109,-0.0127,0.0691,0.0719,92,2.493,48,5.4323,1.4363,-17.0161,-0.1193,-0.0789,0.021,63
1.949,37,9.2602,-1.187,-12.2076,0.014,0.0767,0.0546,92,2.545,49,5.461,1.403,-16.9251,-0.0958,-0.0441,0.0423,63
2.001,38,9.1722,-1.4912,-12.2039,0.0044,0.0007,0.0189,92,2.597,50,5.535,1.4544,-17.0063,-0.0965,0.008,0.0631,63
2.053,39,9.3016,-1.3291,-12.2732,0.048,-0.0096,-0.0236,92,2.649,51,5.6379,1.5267,-17.135,-0.1122,0.0224,0.0729,63
2.105,40,9.3024,-1.3249,-12.263,-0.005,0.0347,0.0516,92,2.701,52,5.5841,1.649,-17.1859,-0.0829,0.013,0.0686,63
2.157,41,9.2214,-1.5044,-12.2213,-0.014,0.0425,0.0563,92,2.753,53,5.4651,1.7096,-17.1705,-0.0664,0.0062,0.0451,63
2.208,42,9.2238,-1.4759,-12.1551,0.0511,0.0355,0.0208,92,2.804,54,5.459,1.7721,-17.1791,-0.0468,-0.0022,0.013,63
2.26,43,9.2538,-1.3467,-12.0796,0.0292,0.0243,0.0024,92,2.856,55,5.4551,1.7531,-17.1782,-0.0336,-0.0033,-0.0257,63
2.312,44,9.3131,-1.3419,-12.225,0.007,-0.0276,-0.0176,92,2.908,56,5.4922,1.7526,-17.2075,-0.0267,-0.0071,-0.0508,63
2.364,45,9.3615,-1.2633,-12.2553,-0.013,0.0056,0.0085,92,2.96,57,5.4621,1.7666,-17.2015,-0.0514,-0.0253,-0.0455,63
2.416,46,9.2988,-1.4953,-12.1953,-0.0609,0.0046,0.0302,92,3.011,58,5.364,1.7649,-17.0933,-0.0475,-0.0373,-0.0308,63
2.467,47,9.1975,-1.5903,-12.2084,-0.0135,-0.0045,-0.0093,92,3.063,59,5.3164,1.7656,-17.004,-0.0173,-0.0216,-0.0296,63
2.519,48,9.2684,-1.4077,-12.1402,0.0037,-0.0026,-0.0127,92,3.115,60,5.3912,1.785,-17.0308,-0.0005,0.0102,-0.0362,63
2.571,49,9.2963,-1.3427,-12.18,-0.0062,-0.0369,-0.0336,92,3.167,61,5.477,1.8267,-17.1197,-0.0119,0.0266,-0.0344,63
2.623,50,9.3356,-1.2359,-12.2442,-0.0154,-0.0417,-0.0386,92,3.218,62,5.5551,1.8926,-17.1692,-0.0166,0.025,-0.0198,63
2.675,51,9.3839,-1.1624,-12.2512,-0.062,-0.0218,-0.0036,92,3.27,63,5.5009,1.9278,-17.1362,-0.0059,0.0213,-0.0193,63
2.726,52,9.2814,-1.3164,-12.2852,-0.0445,-0.0269,-0.0153,92,3.322,64,5.4332,1.9677,-17.0919,0.001,0.0258,-0.0278,63
2.778,53,9.2786,-1.2534,-12.2339,0.0075,-0.0384,-0.0439,92,3.374,65,5.4313,1.9624,-17.0563,0.0471,0.0385,-0.0496,63
2.83,54,9.3243,-1.1072,-12.278,0.0287,-0.0441,-0.0526,92,3.426,66,5.5823,1.9182,-17.0675,0.0429,0.0465,-0.0604,63
2.882,55,9.3519,-1.0577,-12.2951,0.0119,-0.0421,-0.02,92,3.477,67,5.6579,1.9085,-17.0833,0.0135,0.0474,-0.0462,63
2.934,56,9.3052,-1.2567,-12.2836,-0.0203,-0.0384,0.0207,92,3.529,68,5.631,1.8405,-17.053,-0.0169,0.041,-0.0242,63
2.985,57,9.2661,-1.3095,-12.3356,0.0212,-0.0335,-0.0068,92,3.581,69,5.6055,1.748,-17.0145,-0.0614,0.0285,-0.0089,63
3.037,58,9.1694,-1.42,-12.3327,0.1507,-0.037,-0.0656,92,3.633,70,5.5483,1.7909,-16.9921,-0.0571,0.0184,0.025,63
3.089,59,9.3168,-1.0966,-12.2507,0.2434,-0.0723,-0.1465,92,3.685,71,5.4701,1.8568,-16.9927,-0.0435,0.0248,0.0613,63
3.141,60,9.387,-0.9895,-12.3417,0.2374,-0.1291,-0.1508,92,3.736,72,5.5603,1.9177,-17.0285,-0.0519,0.0252,0.0786,63
3.192,61,9.4149,-0.801,-12.3416,0.0117,-0.0176,0.0268,92,3.788,73,5.6946,1.9532,-17.0765,-0.0543,0.0158,0.083,63
3.244,62,9.3209,-1.1255,-12.3648,-0.1202,0.0189,0.1081,92,3.84,74,5.7067,1.911,-17.0459,-0.054,0.0133,0.0714,63
3.296,63,9.302,-1.14,-12.3764,-0.0965,0.0372,0.0885,92,3.892,75,5.7032,1.867,-17.0594,-0.0775,0.0168,0.0598,63
3.348,64,9.3014,-1.1324,-12.3683,-0.1136,0.0468,0.0917,92,3.943,76,5.6501,1.8038,-17.0291,-0.0808,0.0136,0.0556,63
3.4,65,9.2349,-1.4498,-12.3491,-0.1005,0.0267,0.0588,92,3.995,77,5.6323,1.7734,-17.0074,-0.0767,0.015,0.0533,63
3.451,66,9.2268,-1.2056,-12.4009,0.0217,0.0094,-0.007,92,4.047,78,5.6223,1.8622,-17.0097,-0.0859,-0.0113,0.0569,63
3.503,67,9.3609,-1.0592,-12.384,-0.0008,0.0181,0.0126,92,4.099,79,5.4554,1.9618,-16.9317,-0.1078,-0.0525,0.0611,63
3.555,68,9.3179,-1.1916,-12.4516,-0.0168,0.0025,0.0237,92,4.151,80,5.2889,2.0278,-16.7978,-0.1128,-0.0631,0.0511,63
3.607,69,9.3617,-0.9756,-12.4779,-0.115,0.046,0.0808,92,4.203,81,5.5026,2.0717,-16.7443,-0.0053,-0.0194,0.006,63
3.659,70,9.2753,-1.2267,-12.4104,-0.2464,0.0257,0.1093,92,4.254,82,5.7208,2.1655,-16.8962,0.0388,0.0555,-0.0544,63
3.711,71,9.2778,-1.2362,-12.4535,-0.2663,0.0615,0.1022,92,4.306,83,5.6357,2.0906,-16.9928,0.0139,0.1018,-0.0959,63
3.762,72,9.3146,-1.245,-12.3327,-0.2982,0.0948,0.1178,92,4.358,84,5.5728,2.0242,-17.0446,-0.0268,0.0915,-0.0812,63
3.814,73,9.1928,-1.6159,-12.2991,-0.2529,0.105,0.1127,92,4.41,85,5.4037,1.977,-17.0149,-0.0473,0.0562,-0.0545,63
3.866,74,8.8738,-2.2287,-12.1592,0.0121,0.0903,0.0297,92,4.461,86,5.4288,2.0474,-16.9264,-0.0587,0.0162,-0.0313,63
3.918,75,9.0448,-1.5976,-12.0415,0.1771,-0.0046,-0.1006,92,4.513,87,5.4582,2.2218,-16.8208,-0.0692,-0.0069,-0.0001,63
3.969,76,9.2197,-1.2488,-12.2516,0.2778,-0.1561,-0.1949,92,4.565,88,5.6158,2.2983,-16.7866,-0.068,-0.0091,0.0135,63
4.021,77,9.44,-0.8821,-12.3194,0.1831,-0.0853,-0.0978,92,4.617,89,5.806,2.3616,-16.8327,-0.0446,0.0031,-0.0135,63
4.073,78,9.3546,-1.1052,-12.3602,-0.086,-0.0066,0.0669,92,4.669,90,5.8708,2.284,-16.8678,-0.0553,0.0051,-0.0354,63
4.125,79,9.1677,-1.6172,-12.3115,-0.1792,0.0358,0.083,92,4.72,91,5.863,2.1907,-16.863,-0.0675,-0.0104,-0.0404,63
4.177,80,9.1761,-1.4291,-12.2754,-0.0699,0.0279,0.0267,92,4.772,92,5.7938,2.0946,-16.8389,-0.0626,-0.0317,-0.0389,63
4.228,81,9.1711,-1.5354,-12.1983,-0.0066,-0.0033,-0.0104,92,4.824,93,5.735,2.0811,-16.7812,-0.058,-0.043,-0.0269,63
4.28,82,9.1184,-1.6797,-12.336,0.2001,-0.0653,-0.1408,92,4.876,94,5.7243,2.1272,-16.7377,-0.0522,-0.0424,-0.0021,63
4.332,83,9.3564,-1.0319,-12.2085,0.2682,-0.0724,-0.1562,92,4.927,95,5.629,2.1899,-16.7313,-0.0321,-0.0302,0.0109,63
4.384,84,9.4668,-0.8087,-12.3224,0.2205,-0.055,-0.1026,92,4.979,96,5.6274,2.2387,-16.733,-0.0006,-0.0006,-0.0095,63
4.435,85,9.4544,-0.627,-12.4004,0.0259,0.068,0.0848,92,5.031,97,5.734,2.3514,-16.7962,0.016,0.0296,-0.0224,63
4.487,86,9.2937,-1.1077,-12.2583,0.0112,0.0429,0.047,92,5.083,98,5.7203,2.358,-16.8439,0.0129,0.0408,-0.0219,63
4.539,87,9.2949,-1.151,-12.1969,0.0849,0.0181,-0.0244,92,5.134,99,5.6628,2.3108,-16.8619,-0.008,0.0285,-0.021,63
4.591,88,9.3348,-1.1576,-12.1617,0.0193,0.0063,-0.01,92,5.186,100,5.5253,2.2757,-16.823,-0.009,0.0177,-0.0224,63
4.643,89,9.2759,-1.2949,-12.1538,0.0141,-0.0068,-0.0126,92,5.238,101,5.482,2.2452,-16.7921,0.04,0.0253,-0.0327,63
4.694,90,9.1413,-1.398,-12.3087,0.184,-0.0445,-0.0964,92,5.29,102,5.63,2.3527,-16.8797,0.0828,0.0412,-0.0639,63
4.746,91,9.2591,-1.2177,-12.1449,0.1427,-0.0752,-0.0702,92,5.341,103,5.7057,2.4353,-16.9481,0.0926,0.0397,-0.0746,63
4.798,92,9.3104,-1.1909,-12.281,0.016,-0.0225,0.0051,92,5.393,104,5.6573,2.4016,-16.9076,0.0744,0.013,-0.0583,63
4.85,93,9.2663,-1.3224,-12.2716,-0.0273,-0.0094,0.0287,92,5.445,105,5.5866,2.3673,-16.8221,0.0622,0.0009,-0.0459,63
4.902,94,9.249,-1.3932,-12.2388,-0.0065,-0.0127,0.0119,92,5.497,106,5.534,2.3549,-16.7775,0.0201,0.0039,-0.0265,63
4.954,95,9.2082,-1.3133,-12.2395,0.1205,-0.0178,-0.0573,92,5.549,107,5.5464,2.3512,-16.7934,-0.0201,0.0068,0.0092,63
5.006,96,9.2202,-1.182,-12.141,0.1678,-0.0833,-0.116,92,5.601,108,5.5661,2.3472,-16.8548,-0.0523,-0.0068,0.0338,63
5.057,97,9.3225,-0.928,-12.416,0.1403,-0.1153,-0.1087,92,5.652,109,5.574,2.3734,-16.924,-0.0769,-0.0336,0.0395,63
5.109,98,9.2912,-0.9572,-12.404,0.0978,-0.0509,-0.0324,92,5.704,110,5.6055,2.3761,-16.9125,-0.0579,-0.055,0.0349,63
5.161,99,9.2543,-0.9902,-12.4474,0.0693,-0.0465,-0.0364,92,5.756,111,5.6482,2.3693,-16.8819,-0.0366,-0.06,0.0166,63
5.213,100,9.3655,-0.8953,-12.4255,0.0327,-0.0255,-0.0074,92,5.808,112,5.6671,2.3494,-16.8693,-0.0433,-0.057,0.0002,63
5.264,101,9.3169,-0.9214,-12.4774,-0.1811,0.0737,0.1155,92,5.859,113,5.6514,2.3092,-16.8512,-0.0557,-0.0567,-0.0062,63
5.316,102,9.2472,-1.0668,-12.4047,-0.1889,0.0838,0.1198,92,5.911,114,5.6224,2.3143,-16.8089,-0.0495,-0.0572,0.0044,63
5.368,103,9.225,-1.2053,-12.4088,-0.1158,0.0629,0.0873,92,5.963,115,5.5461,2.3406,-16.7556,-0.0352,-0.0469,0.0187,63
5.42,104,9.2297,-1.2586,-12.3984,-0.011,0.0573,0.0426,92,6.015,116,5.5045,2.3441,-16.716,-0.0379,-0.0183,0.0238,63
5.471,105,9.2849,-1.1338,-12.3114,0.041,0.0367,0.0146,92,6.067,117,5.5483,2.3984,-16.8125,-0.0117,0.0269,0.014,63
5.523,106,9.3107,-1.145,-12.3387,0.0421,0.0094,0.0174,92,6.118,118,5.6003,2.4869,-16.9523,-0.0049,0.0469,0.005,63
5.575,107,9.3293,-1.1016,-12.288,-0.1126,0.0503,0.0862,92,6.17,119,5.5621,2.475,-16.9801,-0.0295,0.0325,0.0034,63
5.627,108,9.2777,-1.2502,-12.2799,-0.1454,0.0541,0.0888,92,6.222,120,5.4418,2.433,-16.9179,-0.0353,0.0049,-0.0025,63
5.679,109,9.259,-1.355,-12.3042,-0.0709,0.0363,0.0428,92,6.274,121,5.4945,2.4457,-16.8256,-0.0392,-0.011,-0.0125,63
5.73,110,9.3295,-1.2546,-12.2677,0.0146,0.0228,0.0105,92,6.325,122,5.651,2.4635,-16.7658,-0.0799,0.0041,-0.0357,63
5.782,111,9.2843,-1.2908,-12.2577,0.0525,-0.0107,-0.0256,92,6.377,123,5.6842,2.4717,-16.7446,-0.1033,0.0358,-0.06,63
5.834,112,9.3685,-1.0833,-12.2463,0.0698,-0.0395,-0.0426,92,6.429,124,5.6329,2.4988,-16.7109,-0.0683,0.0553,-0.0765,63
5.886,113,9.3327,-1.1122,-12.3085,0.0059,0.0084,0.0282,92,6.481,125,5.6181,2.5302,-16.6706,-0.035,0.0662,-0.0821,63
5.938,114,9.2516,-1.3214,-12.2445,-0.005,0.0233,0.0345,92,6.533,126,5.605,2.6205,-16.6922,-0.0016,0.0765,-0.0691,63
5.989,115,9.3262,-1.3355,-12.0637,-0.0109,0.0488,0.0306,92,6.584,127,5.5972,2.6705,-16.7426,0.006,0.0726,-0.0563,63
6.041,116,9.3278,-1.2686,-12.1012,-0.0494,0.0595,0.0486,92,6.636,128,5.6071,2.6925,-16.7595,-0.0078,0.0549,-0.036,63
6.093,117,9.2929,-1.3389,-12.1407,-0.0351,0.0558,0.0509,92,6.688,129,5.5429,2.7044,-16.7585,-0.0279,0.0209,-0.0082,63
6.145,118,9.2935,-1.4298,-12.1647,0.0326,0.0538,0.0305,92,6.74,130,5.4911,2.7054,-16.712,-0.0331,-0.0131,0.0169,63
6.197,119,9.4583,-1.3126,-12.087,0.0874,0.0498,-0.0221,92,6.791,131,5.5582,2.6978,-16.6595,-0.0237,-0.0351,0.0261,63
6.248,120,9.4233,-1.3648,-12.0868,0.0958,0.0127,-0.0505,92,6.843,132,5.6463,2.7425,-16.642,-0.0249,-0.0328,0.02,63
6.3,121,9.4423,-1.2411,-12.0542,0.0949,-0.0212,-0.0679,92,6.895,133,5.647,2.7385,-16.6266,-0.0183,-0.0193,0.0092,63
6.352,122,9.4504,-1.2356,-12.1321,0.0724,-0.0498,-0.0626,92,6.947,134,5.6507,2.7276,-16.6423,-0.0056,-0.0127,0.0004,63
6.404,123,9.415,-1.234,-12.149,0.0528,-0.0325,-0.0445,92,6.999,135,5.6651,2.7184,-16.68,-0.0286,-0.0156,0.0105,63
6.456,124,9.3598,-1.3101,-12.1568,0.0422,-0.0238,-0.0404,92,7.051,136,5.6255,2.6921,-16.6715,-0.051,-0.0258,0.0353,63
6.508,125,9.3134,-1.2846,-12.1764,0.0684,-0.0506,-0.0795,92,7.103,137,5.5954,2.6842,-16.6469,-0.0406,-0.0336,0.053,63
6.559,126,9.3043,-1.2721,-12.1793,0.0948,-0.0716,-0.0922,92,7.154,138,5.5602,2.6804,-16.6213,-0.047,-0.0301,0.0622,63
6.611,127,9.3078,-1.2005,-12.2285,0.1238,-0.08,-0.0978,92,7.206,139,5.5664,2.6974,-16.6196,-0.0171,-0.011,0.0534,63
6.663,128,9.3439,-1.1049,-12.278,0.1198,-0.0706,-0.0746,92,7.258,140,5.646,2.7219,-16.6659,-0.01,0.0078,0.0429,63
6.715,129,9.3991,-0.8933,-12.2929,0.0697,-0.0069,-0.0069,92,7.31,141,5.6655,2.753,-16.7236,-0.0218,0.0079,0.0474,63
6.766,130,9.3128,-1.173,-12.2688,0.0196,0.0187,0.037,92,7.361,142,5.5832,2.7128,-16.7214,-0.0045,-0.0001,0.0497,63
6.818,131,9.3263,-1.1413,-12.2441,0.0091,0.0137,0.016,92,7.413,143,5.48,2.6383,-16.6652,0.0622,0.0078,0.0413,63
6.87,132,9.3138,-1.2647,-12.2036,-0.0009,0.0057,0.0044,92,7.465,144,5.5553,2.6155,-16.7184,0.1731,0.0394,0.017,63
6.922,133,9.3265,-1.2176,-12.1755,0.0064,-0.0156,-0.0227,92,7.517,145,5.6476,2.6099,-16.8466,0.2271,0.0569,-0.0121,63
6.974,134,9.3633,-1.0901,-12.2185,0.0077,-0.0323,-0.0131,92,7.569,146,5.6605,2.5292,-16.9061,0.2024,0.0416,-0.0326,63
7.026,135,9.3659,-1.1133,-12.2358,-0.0102,-0.0052,0.0361,92,7.62,147,5.6394,2.4215,-16.8666,0.1785,0.0125,-0.0376,63
7.077,136,9.2984,-1.243,-12.2325,-0.0141,0.0089,0.0361,92,7.672,148,5.6328,2.342,-16.8148,0.123,-0.0115,-0.0206,63
7.129,137,9.2481,-1.3163,-12.2193,0.0047,0.0004,0.002,92,7.724,149,5.6352,2.2446,-16.7626,0.0617,-0.0381,0.014,63
7.181,138,9.279,-1.2299,-12.1863,0.0229,-0.0169,-0.03,92,7.776,150,5.6007,2.2159,-16.7163,0.0301,-0.0401,0.0422,63
7.233,139,9.433,-0.9661,-12.2649,0.0115,-0.0236,-0.0098,92,7.828,151,5.677,2.2176,-16.7057,0.0188,-0.0227,0.0448,63
7.284,140,9.4678,-0.9513,-12.1344,-0.1501,0.0784,0.125,92,7.879,152,5.7695,2.2933,-16.7713,0.0099,0.0007,0.0382,63
7.336,141,9.399,-1.1996,-12.1428,-0.1801,0.067,0.1176,92,7.931,153,5.737,2.2988,-16.8084,0.0074,0.0087,0.0281,63
7.388,142,9.4029,-1.1921,-12.1734,-0.1405,0.0767,0.1015,92,7.983,154,5.6899,2.2556,-16.8224,-0.0187,0.0045,0.0198,63
7.44,143,9.3428,-1.2846,-12.1102,-0.1573,0.0813,0.1104,92,8.035,155,5.6804,2.2382,-16.8141,-0.0286,-0.0071,0.0207,63
7.492,144,9.2816,-1.4618,-12.1046,-0.1341,0.0651,0.0888,92,8.087,156,5.6674,2.2236,-16.7813,-0.0352,-0.0172,0.0295,63
7.543,145,9.42,-1.3522,-12.1772,-0.0417,0.0296,0.0048,92,8.138,157,5.5995,2.2174,-16.7581,-0.0348,-0.0162,0.0328,63
7.595,146,9.4178,-1.3083,-12.1436,-0.005,0.0004,0.007,92,8.19,158,5.6454,2.2059,-16.7618,-0.0193,-0.0053,0.0258,63
7.647,147,9.403,-1.3197,-12.1767,0.0289,0.0013,0.0001,92,8.242,159,5.7117,2.2625,-16.8249,-0.0122,0.005,0.0123,63
7.699,148,9.398,-1.2892,-12.1487,0.036,0.0104,0.0017,92,8.294,160,5.7036,2.2866,-16.8392,-0.0157,0.0029,0.0129,63
7.751,149,9.392,-1.3142,-12.1382,0.0276,0.003,0.0009,92,8.346,161,5.6571,2.2624,-16.8043,-0.0307,-0.0113,0.0201,63
7.802,150,9.3626,-1.3458,-12.1336,0.0052,-0.0009,0.0059,92,8.397,162,5.583,2.2485,-16.7091,-0.0293,-0.018,0.0222,63
7.854,151,9.3183,-1.4156,-12.1469,0.0192,-0.0163,-0.0265,92,8.449,163,5.6021,2.2669,-16.6678,-0.0152,-0.0011,0.0182,63
7.906,152,9.2156,-1.4444,-12.1252,0.1038,-0.0408,-0.083,92,8.501,164,5.7373,2.2949,-16.6887,0.0007,0.0229,0.0125,63
7.958,153,9.291,-1.3512,-12.1731,0.1005,-0.0791,-0.0819,92,8.553,165,5.7924,2.3235,-16.7543,0.0007,0.0417,0.0065,63
8.01,154,9.3181,-1.3116,-12.2329,0.079,-0.0541,-0.048,92,8.605,166,5.7692,2.3275,-16.8094,-0.0143,0.0439,0.005,63
8.062,155,9.3095,-1.331,-12.2201,0.0661,-0.0286,-0.021,92,8.657,167,5.7161,2.274,-16.8027,-0.0383,0.0265,0.018,63
8.113,156,9.2655,-1.4016,-12.1215,0.0386,-0.0307,-0.0284,92,8.708,168,5.6284,2.2149,-16.778,-0.0574,0.0107,0.0386,63
8.165,157,9.2295,-1.4212,-12.2099,0.0305,-0.0485,-0.0589,92,8.76,169,5.6336,2.2052,-16.7684,-0.0674,0.0015,0.0624,63
8.217,158,9.297,-1.2252,-12.1699,0.0479,-0.0663,-0.0639,92,8.812,170,5.6737,2.1983,-16.7507,-0.0781,-0.0022,0.0854,63
8.269,159,9.2912,-1.2017,-12.2621,0.0325,-0.0951,-0.0512,92,8.864,171,5.7254,2.2325,-16.7642,-0.0868,-0.004,0.0911,63
8.32,160,9.3212,-1.1388,-12.3704,0.0335,-0.0719,-0.0398,92,8.915,172,5.7706,2.2494,-16.7753,-0.09,-0.0078,0.0882,63
8.372,161,9.3443,-1.0898,-12.3611,0.0345,-0.0199,0.0009,92,8.967,173,5.7907,2.2359,-16.7495,-0.076,-0.0188,0.0801,63
8.424,162,9.285,-1.1998,-12.3569,0.0048,-0.0047,0.027,92,9.019,174,5.7481,2.2369,-16.7174,-0.0676,-0.0201,0.0691,63
8.476,163,9.2837,-1.2079,-12.3633,-0.0045,0.0118,0.0339,92,9.071,175,5.7458,2.2332,-16.6834,-0.0497,-0.008,0.0544,63
8.528,164,9.3373,-1.1845,-12.2822,-0.0593,0.0405,0.0765,92,9.123,176,5.7506,2.2531,-16.6734,-0.0179,0.011,0.0334,63
8.579,165,9.3243,-1.2315,-12.261,-0.0891,0.0396,0.0881,92,9.174,177,5.7418,2.2682,-16.6717,0.0125,0.0339,0.0081,63
8.631,166,9.3001,-1.296,-12.3027,-0.074,0.0384,0.079,92,9.226,178,5.7654,2.2764,-16.6793,0.0358,0.051,-0.0141,63
8.683,167,9.2961,-1.3206,-12.2889,-0.1127,0.0621,0.0978,92,9.278,179,5.7921,2.2818,-16.6686,0.0609,0.0583,-0.0358,63
8.735,168,9.2592,-1.4224,-12.2633,-0.1023,0.052,0.0814,92,9.33,180,5.7968,2.2812,-16.6123,0.0656,0.069,-0.0508,63
8.786,169,9.223,-1.4751,-12.2452,-0.0484,0.0365,0.0365,92,9.381,181,5.914,2.1967,-16.5894,0.0567,0.0939,-0.0445,63
8.838,170,9.2303,-1.4849,-12.2036,-0.0478,0.0251,0.0372,92,9.433,182,6.0329,2.0882,-16.6413,0.0228,0.1038,0.0043,63
8.89,171,9.1817,-1.5523,-12.2414,-0.0403,0.0008,0.0134,92,9.485,183,5.9176,2.0681,-16.6319,-0.0231,0.0756,0.0725,63
8.942,172,9.1711,-1.4943,-12.2637,0.0093,-0.0092,-0.0153,92,9.537,184,5.8388,2.1184,-16.5977,-0.0574,0.0332,0.1423,63
8.994,173,9.1927,-1.4836,-12.2391,0.004,-0.0076,-0.0102,92,9.589,185,5.9363,2.2169,-16.5695,-0.0693,0.0057,0.1691,63
9.045,174,9.2308,-1.4593,-12.3087,0.0253,-0.0285,-0.0402,92,9.64,186,5.9284,2.281,-16.5206,-0.0561,-0.0117,0.1386,63
9.097,175,9.2233,-1.4394,-12.271,0.0602,-0.0291,-0.0532,92,9.692,187,5.9188,2.3089,-16.4957,-0.0016,-0.0031,0.0633,63
9.149,176,9.2501,-1.4125,-12.3035,0.032,-0.0141,-0.0263,92,9.744,188,5.96,2.2329,-16.4638,0.0833,0.0232,-0.0398,63
9.201,177,9.2563,-1.4011,-12.3029,0.0147,0.0126,-0.0049,92,9.796,189,6.0931,2.1838,-16.4657,0.1382,0.0407,-0.1196,63
9.253,178,9.2563,-1.3478,-12.3,-0.0033,0.0336,0.0161,92,9.847,190,6.181,2.1043,-16.5061,0.1206,0.046,-0.1335,63
9.305,179,9.2661,-1.393,-12.2573,-0.0159,0.0529,0.0477,92,9.899,191,6.1103,2.0128,-16.4617,0.073,0.0428,-0.0805,63
9.356,180,9.2625,-1.4494,-12.1793,-0.0261,0.0579,0.0594,92,9.951,192,6.0433,1.9614,-16.4173,0.0256,0.0497,-0.0339,63
9.408,181,9.2091,-1.5134,-12.1993,0.0289,0.0236,0.0064,92,10.003,193,5.9931,1.9859,-16.4636,-0.0201,0.0609,-0.0049,63
9.46,182,9.3317,-1.3857,-12.1509,0.2121,0.007,-0.0804,92,10.054,194,6.0248,2.0404,-16.5805,-0.0542,0.038,0.0262,63
9.512,183,9.3683,-1.3,-12.0827,0.2776,-0.0482,-0.1351,92,10.106,195,6.0473,2.0691,-16.5864,-0.094,-0.0165,0.0569,63
9.563,184,9.4743,-1.0336,-12.2217,0.1937,-0.0629,-0.0955,92,10.158,196,5.9296,2.1856,-16.5179,-0.0918,-0.0557,0.0598,63
9.615,185,9.3809,-1.2291,-12.2663,-0.0682,0.0295,0.0991,92,10.21,197,6.0636,2.2061,-16.4485,0.0036,-0.053,0.0023,63
9.667,186,9.2593,-1.4667,-12.2618,-0.1695,0.0304,0.1196,92,10.262,198,6.3156,2.2224,-16.4898,0.0451,-0.0448,-0.0591,63
9.719,187,9.2452,-1.5402,-12.1942,-0.1386,0.0397,0.0947,92,10.313,199,6.2269,2.1485,-16.4536,0.0331,-0.0349,-0.0645,63
9.771,188,9.26,-1.51,-12.1349,-0.1162,0.0551,0.0939,92,10.365,200,6.061,2.0837,-16.4113,0.0159,-0.0252,-0.0312,63
9.822,189,9.2397,-1.5989,-12.1016,-0.0933,0.0588,0.086,92,10.417,201,6.0307,2.0792,-16.4338,-0.0177,-0.0058,-0.0063,63
9.874,190,9.1482,-1.8138,-12.102,0.0081,0.041,0.0166,92,10.469,202,6.0395,2.1135,-16.4988,-0.0391,0.0106,0.0158,63
9.926,191,9.2792,-1.5755,-12.0724,0.205,-0.0095,-0.1617,92,10.52,203,6.0259,2.1276,-16.568,-0.0605,0.009,0.0322,63
9.978,192,9.4002,-1.1854,-11.939,0.2361,-0.1202,-0.1829,92,10.572,204,5.9758,2.1604,-16.5825,-0.0442,-0.0062,0.0408,63
10.03,193,9.4367,-1.0944,-12.1023,0.1463,-0.0764,-0.0837,92,10.624,205,5.9673,2.2055,-16.5443,-0.0191,-0.0108,0.0254,63
10.081,194,9.3233,-1.3149,-12.1264,0.1136,-0.0367,-0.0191,92,10.676,206,6.0171,2.2572,-16.5463,0.0039,-0.0036,-0.0017,63
10.133,195,9.3243,-1.3327,-12.1237,0.0708,-0.047,-0.0246,92,10.728,207,6.075,2.2445,-16.5647,0.006,-0.0064,-0.0193,63
10.185,196,9.3888,-1.279,-12.1875,0.0407,-0.0371,-0.002,92,10.779,208,6.1111,2.1521,-16.567,-0.0257,-0.0197,-0.0129,63
10.237,197,9.2786,-1.507,-12.1027,-0.0064,0.0012,0.0395,92,10.831,209,5.9832,2.0993,-16.5541,-0.0358,-0.0204,0.0148,63
10.289,198,9.2027,-1.5993,-12.0816,-0.0074,-0.0181,0.0044,92,10.883,210,5.9245,2.1279,-16.5282,-0.0419,-0.027,0.0353,63
10.34,199,9.2258,-1.5037,-12.1164,0.0182,-0.0473,-0.0605,92,10.935,211,5.8738,2.1928,-16.5237,-0.0681,-0.0369,0.0596,63
10.392,200,9.3211,-1.3322,-12.2025,0.0275,-0.0537,-0.0402,92,10.986,212,5.9471,2.1905,-16.4671,-0.0897,-0.0329,0.0856,63
10.444,201,9.3868,-1.2362,-12.1954,0.0051,-0.0004,0.0186,92,11.038,213,5.9387,2.1409,-16.3993,-0.0861,0.01,0.0812,63
10.496,202,9.3313,-1.3715,-12.1855,-0.0334,0.0247,0.0543,92,11.09,214,5.946,2.1114,-16.3951,-0.071,0.0714,0.0603,63
10.548,203,9.3824,-1.3716,-12.0957,-0.0588,0.0499,0.0672,92,11.142,215,6.0648,2.3629,-16.5906,-0.1293,0.087,0.0695,63
10.599,204,9.3205,-1.4474,-12.0977,-0.115,0.078,0.0864,92,11.194,216,6.0724,2.6154,-16.7617,-0.1644,0.0405,0.0788,63
10.651,205,9.314,-1.4787,-12.1092,-0.1092,0.0692,0.0802,92,11.245,217,6.083,2.744,-16.8407,-0.1273,-0.0413,0.0205,63
10.703,206,9.3,-1.5344,-12.0922,-0.0771,0.0757,0.0699,92,11.297,218,6.0193,2.5594,-16.6954,-0.0836,-0.1224,-0.0724,63
10.755,207,9.2754,-1.6094,-12.0181,-0.045,0.0451,0.0408,92,11.349,219,5.9113,2.2565,-16.4862,-0.0346,-0.1596,-0.1233,63
10.807,208,9.2932,-1.5524,-12.0312,-0.0706,0.019,0.0051,92,11.401,220,5.8811,2.031,-16.309,0.011,-0.1378,-0.1127,63
10.858,209,9.3302,-1.5056,-12.1229,-0.0479,0.0034,-0.0265,92,11.453,221,5.9448,2.1352,-16.2908,0.0036,-0.0877,-0.061,63
10.91,210,9.2675,-1.619,-12.1643,0.0331,0.0461,-0.0601,92,11.505,222,6.0059,2.3941,-16.3481,0.0285,-0.062,-0.0274,63
10.962,211,9.3464,-1.4064,-12.0178,0.136,0.0939,-0.0739,92,11.556,223,5.8858,2.5566,-16.3534,0.0545,-0.0326,-0.0346,63
11.014,212,9.3463,-1.352,-11.9227,0.1041,0.0824,-0.0218,92,11.608,224,5.9213,2.5335,-16.3538,0.081,-0.0058,-0.0575,63
11.066,213,9.4147,-1.2983,-11.8862,0.0646,0.0685,0.0109,92,11.66,225,5.879,2.4856,-16.4215,0.074,0.0184,-0.0658,63
11.117,214,9.421,-1.3562,-11.8777,-0.0106,0.0589,0.0458,92,11.712,226,5.9435,2.4486,-16.5391,0.0477,0.0292,-0.0455,63
11.169,215,9.1748,-1.4338,-12.0404,-0.1262,0.0776,0.083,92,11.763,227,5.9839,2.39,-16.569,0.0242,0.0165,-0.0218,63
11.221,216,9.1213,-1.715,-11.9779,-0.1526,0.0581,0.0769,92,11.815,228,5.8798,2.3586,-16.5307,0.0137,0.0124,-0.0142,63
11.273,217,9.0933,-1.7985,-11.975,-0.0261,0.0233,-0.0322,92,11.867,229,5.8025,2.3584,-16.5184,-0.0028,0.0163,0.0063,63
11.325,218,9.2663,-1.3465,-11.88,0.2326,-0.0427,-0.1849,92,11.919,230,5.8065,2.4586,-16.5366,-0.0337,0.0266,0.0346,63
11.376,219,9.3379,-1.1708,-11.8548,0.261,-0.1265,-0.1913,92,11.971,231,5.7847,2.5683,-16.5552,-0.0612,0.0281,0.0526,63
11.428,220,9.4957,-0.8817,-11.9995,0.1014,-0.0859,-0.0796,92,12.022,232,5.7373,2.6205,-16.5806,-0.0519,0.0292,0.0365,63
11.48,221,9.3802,-1.3584,-12.038,-0.0341,-0.0262,0.0352,92,12.074,233,5.7919,2.5771,-16.5582,0.0007,0.037,-0.0062,63
11.532,222,9.3422,-1.4499,-12.0281,-0.0276,-0.004,0.0229,92,12.126,234,5.8041,2.5221,-16.5314,0.0688,0.0598,-0.0665,63
11.584,223,9.4271,-1.3771,-11.879,0.0423,-0.0118,0.0031,92,12.178,235,5.8385,2.436,-16.6088,0.1009,0.0637,-0.0901,63
11.635,224,9.4228,-1.2457,-11.9257,-0.0371,0.007,0.0527,92,12.229,236,5.9372,2.3679,-16.6496,0.0659,0.0258,-0.0376,63
11.687,225,9.3382,-1.487,-11.9961,-0.0147,-0.0119,0.0384,92,12.281,237,5.9119,2.2881,-16.5732,0.0571,0.0077,0.0064,63
11.739,226,9.3128,-1.5629,-11.9885,0.0796,-0.0142,-0.0323,92,12.333,238,5.9232,2.1859,-16.5333,0.0554,0.0232,0.0112,63
11.791,227,9.3861,-1.2947,-11.9164,0.147,-0.0669,-0.1075,92,12.385,239,5.9493,2.1703,-16.5313,0.0528,0.0533,-0.0035,63
11.842,228,9.4696,-1.1378,-12.0308,0.1854,-0.1209,-0.1297,92,12.437,240,5.9164,2.2654,-16.5373,0.0635,0.0715,-0.0269,63
11.894,229,9.5653,-0.9516,-12.0993,0.1161,-0.0492,-0.0326,92,12.488,241,5.9683,2.3016,-16.5476,0.0513,0.0646,-0.0368,63
11.946,230,9.4319,-1.1636,-12.0441,-0.1127,0.0621,0.1544,92,12.54,242,5.971,2.3496,-16.4863,0.0074,0.0273,-0.01,63
11.998,231,9.2865,-1.5525,-12.094,-0.1674,0.0643,0.1649,92,12.592,243,5.8598,2.4587,-16.3681,-0.0459,0.0134,-0.0034,63
12.05,232,9.3922,-1.4616,-12.0487,-0.1464,0.0873,0.1396,92,12.643,244,5.9298,2.5725,-16.3689,-0.0001,0.023,-0.0323,63
12.102,233,9.3466,-1.3837,-11.9331,-0.2829,0.1063,0.1667,92,12.695,245,6.1247,2.484,-16.4355,0.0762,0.0408,-0.0454,63
12.153,234,9.2399,-1.6972,-11.9262,-0.3065,0.0837,0.1523,92,12.747,246,6.0945,2.4288,-16.5008,0.0364,0.0448,-0.0367,63
12.205,235,9.2403,-1.643,-12.006,-0.1534,0.0583,0.077,92,12.799,247,5.9885,2.3773,-16.4942,0.0016,0.0321,-0.0215,63
12.257,236,9.3026,-1.5795,-11.9445,-0.0889,0.0426,0.0647,92,12.851,248,5.9059,2.3519,-16.5068,-0.0091,0.026,-0.0027,63
12.309,237,9.1378,-2.0684,-11.8694,-0.0168,-0.0012,0.0073,92,12.903,249,5.9258,2.3871,-16.5149,-0.0148,0.0133,-0.0053,63
12.361,238,9.184,-1.8307,-11.9078,0.2518,-0.0786,-0.1853,92,12.954,250,5.9747,2.4267,-16.487,-0.0375,-0.0179,-0.0111,63
12.412,239,9.2813,-1.5224,-11.9134,0.2244,-0.1477,-0.1417,92,13.006,251,5.9202,2.4544,-16.3763,-0.0259,-0.03,-0.0138,63
12.464,240,9.3083,-1.5131,-12.038,0.1612,-0.1726,-0.1349,92,13.058,252,5.9803,2.5661,-16.3582,-0.0065,-0.0146,-0.0508,63
12.516,241,9.3818,-1.3352,-12.16,0.1452,-0.1164,-0.1034,92,13.11,253,6.0606,2.5517,-16.4296,0.0498,0.0197,-0.0821,63
12.568,242,9.3144,-1.3264,-12.0395,0.0623,-0.0282,-0.0405,92,13.161,254,5.9926,2.6301,-16.5186,0.0103,0.0138,-0.0949,63
12.62,243,9.3493,-1.271,-12.0628,-0.0655,0.0094,-0.006,92,13.213,255,5.9359,2.6377,-16.4904,-0.0163,-0.0107,-0.1044,63
12.671,244,9.3332,-1.452,-12.1901,-0.1225,0.0623,0.0193,92,13.265,256,5.9113,2.6455,-16.4709,0.0312,-0.0295,-0.1088,63
12.723,245,9.1361,-1.8824,-11.9657,-0.0736,0.0638,0.0099,92,13.317,257,5.916,2.6305,-16.415,0.0393,-0.0523,-0.1101,63
12.775,246,9.1965,-1.5944,-12.1273,0.1556,-0.0218,-0.1103,92,13.369,258,5.9984,2.628,-16.3763,0.0037,-0.0765,-0.0996,63
12.827,247,9.3521,-1.2696,-12.1327,0.2301,-0.0999,-0.1391,92,13.42,259,6.1552,1.8696,-16.3978,-0.017,-0.1005,-0.0369,63
12.879,248,9.4393,-1.1643,-12.2259,0.233,-0.0706,-0.1433,92,13.472,260,5.9484,2.5856,-16.1961,-0.3963,-0.0697,-0.0042,63
12.93,249,9.4309,-1.0339,-12.1344,0.1955,-0.0459,-0.1062,92,13.524,261,5.8551,3.1131,-16.4404,-0.306,-0.0248,0.0022,63
12.982,250,9.3868,-1.1663,-12.1622,0.1437,-0.0314,-0.0759,92,13.576,262,5.8273,3.3212,-16.3694,-0.0404,0.056,-0.0088,63
13.034,251,9.4271,-1.0771,-12.1781,0.1165,0.0147,-0.0355,92,13.627,263,5.8041,2.4698,-16.5051,0.0764,0.0936,-0.0078,63
13.085,252,9.3926,-1.1621,-12.1386,0.0772,0.0725,0.0235,92,13.679,264,5.9255,2.3833,-16.6719,0.1681,0.0855,0.0918,63
13.137,253,9.3378,-1.261,-11.9813,0.0531,0.0651,0.0461,92,13.731,265,5.9671,2.4009,-16.7157,-0.0531,0.0582,0.1347,63
13.189,254,9.3343,-1.3148,-11.9499,0.0449,0.0055,0.0018,92,13.783,266,6.0488,2.4368,-16.7624,0.049,0.0043,0.1725,63
13.241,255,9.3669,-1.2095,-12.0762,0.1147,-0.0114,-0.0549,92,13.834,267,6.0186,2.2959,-16.7481,-0.058,-0.0768,0.1607,63
13.293,256,9.3698,-1.1877,-11.9622,0.1296,-0.0251,-0.0639,92,13.886,268,5.9166,2.4135,-16.2778,-0.2403,-0.1676,0.1521,63
13.344,257,9.3795,-1.0659,-12.026,0.0848,-0.0391,-0.0482,92,13.938,269,5.7912,2.7739,-16.2541,-0.1433,-0.1997,0.1217,63
13.396,258,9.351,-1.2207,-12.0375,0.0341,0.0103,0.0142,92,13.99,270,5.7551,3.2195,-16.3849,-0.0029,-0.176,0.0546,63
13.448,259,9.3162,-1.3456,-11.9665,0.0106,0.0376,0.0355,92,14.042,271,5.7701,2.7508,-16.452,0.0736,-0.1352,-0.0026,63
13.5,260,9.3422,-1.2805,-11.8895,0.0017,0.0307,0.0335,92,14.093,272,5.7816,2.6852,-16.5283,0.083,-0.1016,-0.009,63
13.552,261,9.3752,-1.2758,-11.9774,-0.0828,0.0726,0.0885,92,14.145,273,5.7576,2.5873,-16.5697,-0.0157,-0.064,-0.024,63
13.603,262,9.3233,-1.4027,-11.8994,-0.0696,0.1049,0.0943,92,14.197,274,5.7311,2.5547,-16.5758,0.0298,-0.0261,-0.0328,63
13.655,263,9.3052,-1.4518,-11.8281,-0.0602,0.0538,0.0507,92,14.249,275,5.7171,2.5788,-16.6356,0.0568,-0.0026,-0.0291,63
13.707,264,9.316,-1.4695,-11.8224,-0.0629,0.0139,0.0086,92,14.301,276,5.7487,2.5755,-16.6145,0.0206,0.0095,-0.0102,63
13.759,265,9.3488,-1.4152,-11.8131,-0.0543,0.0116,-0.0018,92,14.353,277,5.8055,2.5951,-16.6344,0.0281,0.0247,0.0022,63
13.811,266,9.3746,-1.3656,-11.8102,-0.0456,-0.0066,-0.0065,92,14.404,278,5.7762,2.3528,-16.687,0.0101,0.0283,0.0101,63
13.862,267,9.3657,-1.374,-11.8735,-0.0369,-0.0287,-0.0211,92,14.456,279,5.6628,2.8044,-16.5299,-0.1767,0.0346,0.0094,63
13.914,268,9.3558,-1.3221,-11.9126,0.0066,-0.0372,-0.051,92,14.508,280,5.6552,2.8171,-16.4294,-0.1988,0.0584,-0.0031,63
13.966,269,9.3669,-1.2771,-11.9062,0.025,-0.0485,-0.0594,92,14.56,281,5.722,2.764,-16.5486,0.0107,0.0702,-0.0128,63
14.018,270,9.3649,-1.274,-11.9365,0.0315,-0.0563,-0.058,92,14.612,282,5.7603,2.6696,-16.6171,-0.0119,0.0711,-0.0102,63
14.07,271,9.3748,-1.2237,-11.8976,0.0629,-0.0602,-0.073,92,14.663,283,5.788,2.6184,-16.5676,-0.015,0.064,0.0114,63
14.121,272,9.3559,-1.2174,-11.959,0.0705,-0.0752,-0.082,92,14.715,284,5.8019,2.5957,-16.6236,0.0362,0.0495,0.0094,63
14.173,273,9.3805,-1.1,-12.0443,0.0517,-0.0485,-0.0473,92,14.767,285,5.7499,2.5654,-16.641,0.052,0.0354,-0.0058,63
14.225,274,9.3678,-1.1543,-12.0702,0.033,0.0027,-0.0014,92,14.819,286,5.7721,2.5916,-16.5555,0.0356,0.019,-0.0077,63
14.277,275,9.3307,-1.162,-11.9977,0.031,-0.0089,-0.0138,92,14.871,287,5.8204,2.5962,-16.5441,0.0491,0.0139,-0.0153,63
14.328,276,9.35,-1.138,-12.0482,0.0242,-0.0482,-0.0337,92,14.922,288,5.887,2.5992,-16.5069,0.0341,0.0073,-0.0113,63
14.38,277,9.3718,-1.0971,-12.081,0.0458,-0.0352,-0.043,92,14.974,289,5.8478,2.5883,-16.4249,-0.0065,0.0099,0.0073,63
14.432,278,9.3634,-1.151,-12.0301,0.0776,-0.0356,-0.0557,92,15.026,290,5.8669,2.5584,-16.4021,-0.0079,0.0139,0.012,63
14.484,279,9.3711,-1.0724,-12.0393,0.1322,-0.0447,-0.0761,92,15.078,291,5.9238,2.5372,-16.415,-0.0201,0.0083,0.0125,63
14.536,280,9.4021,-0.9772,-12.0483,0.1353,-0.0281,-0.0585,92,15.13,292,5.9891,2.4997,-16.4361,-0.0276,0.0051,0.0157,63
14.587,281,9.3709,-0.9879,-12.052,0.1233,-0.0339,-0.0566,92,15.181,293,6.0075,2.443,-16.4151,-0.0337,0.0032,0.0334,63
14.639,282,9.3875,-0.9554,-12.088,0.0997,-0.0386,-0.0445,92,15.233,294,5.9437,2.4219,-16.4116,-0.051,0.0074,0.0561,63
14.691,283,9.3675,-1.0058,-12.0987,0.0717,-0.0145,-0.0212,92,15.285,295,5.8994,2.3924,-16.4444,-0.0648,0.0128,0.0829,63
14.743,284,9.3402,-1.042,-12.0881,0.0635,-0.0103,-0.0227,92,15.337,296,5.8984,2.4246,-16.4886,-0.0712,0.0202,0.1023,63
14.795,285,9.3421,-1.0509,-12.1227,0.076,-0.0222,-0.0398,92,15.389,297,5.915,2.5123,-16.5034,-0.0373,0.0233,0.0852,63
14.846,286,9.3682,-0.9288,-12.0785,0.0846,-0.0127,-0.0316,92,15.44,298,5.9025,2.5989,-16.5119,-0.0422,0.0156,0.0687,63
14.898,287,9.3654,-0.9605,-12.0869,0.0753,-0.0069,-0.0222,92,15.492,299,5.9309,2.5926,-16.4717,-0.0255,-0.0005,0.043,63
14.95,288,9.3777,-0.9675,-12.1017,0.0467,0.0133,0.0107,92,15.544,300,5.9841,2.5426,-16.439,-0.0187,-0.0115,0.0156,63
15.002,289,9.3986,-0.8946,-12.137,0.0077,0.066,0.0525,92,15.596,301,5.9975,2.5074,-16.3969,-0.0038,-0.016,0.0008,63
15.054,290,9.3055,-1.1555,-12.1207,-0.0553,0.0721,0.0872,92,15.648,302,5.9998,2.4872,-16.3606,-0.0102,-0.0075,0.0022,63
15.106,291,9.3303,-1.1605,-12.0523,-0.0763,0.0482,0.0593,92,15.699,303,5.9988,2.4455,-16.3783,0.0043,0.0063,0.0034,63
15.157,292,9.3544,-1.1346,-12.0604,-0.0674,0.0366,0.0582,92,15.751,304,5.9921,2.4218,-16.4133,0.0192,0.0173,0.003,63
15.209,293,9.3458,-1.185,-12.0201,-0.0392,0.0335,0.0329,92,15.803,305,6.0152,2.4446,-16.447,0.0264,0.0173,0.005,63
15.261,294,9.3447,-1.1725,-11.9409,-0.0174,0.011,0.0178,92,15.855,306,6.0416,2.4616,-16.4674,0.0183,0.0049,0.0088,63
15.313,295,9.3618,-1.1396,-11.9545,-0.0134,0.003,0.0119,92,15.907,307,6.055,2.4352,-16.4607,0.0049,-0.0101,0.0214,63
15.364,296,9.3931,-1.0739,-11.9654,-0.0151,0.0142,0.0326,92,15.959,308,6.0867,2.3899,-16.4287,-0.0022,-0.0146,0.0255,63
15.416,297,9.3941,-1.1084,-11.953,-0.0281,0.012,0.0403,92,16.01,309,6.0045,2.4154,-16.3866,-0.0281,-0.0146,0.0344,63
15.468,298,9.3877,-1.1357,-11.9388,-0.0144,0.0142,0.0323,92,16.062,310,5.8751,2.4252,-16.3452,-0.0268,-0.0052,0.0369,63
15.52,299,9.3915,-1.1554,-11.9368,-0.0202,0.0073,0.0371,92,16.114,311,5.8878,2.4833,-16.3549,-0.0234,0.0104,0.0315,63
15.572,300,9.4323,-1.1513,-11.9271,-0.027,0.0182,0.0507,92,16.166,312,5.9883,2.5542,-16.404,-0.022,0.018,0.0183,63
15.624,301,9.4268,-1.1799,-11.8323,-0.1764,0.0789,0.1415,92,16.217,313,6.0378,2.5535,-16.4409,-0.0329,0.01,0.0036,63
15.675,302,9.3838,-1.2583,-11.8279,-0.3108,0.1018,0.1614,92,16.269,314,6.0166,2.5171,-16.4465,-0.0177,0.0044,-0.0144,63
15.727,303,9.3724,-1.3674,-11.8666,-0.3348,0.0701,0.15,92,16.321,315,5.9802,2.4594,-16.4013,-0.0124,0.0011,-0.0219,63
15.779,304,9.3014,-1.5091,-11.8712,-0.2472,0.052,0.0966,92,16.373,316,5.9459,2.4469,-16.3588,-0.0117,0.0008,-0.0185,63
15.831,305,9.2637,-1.5367,-11.8492,-0.1093,0.0351,0.0502,92,16.425,317,5.9609,2.4684,-16.3587,-0.0046,0.0038,-0.0147,63
15.882,306,9.3567,-1.3571,-11.8186,-0.0584,0.0058,0.0243,92,16.476,318,6.0542,2.4911,-16.3821,-0.0021,0.0059,-0.0134,63
15.934,307,9.3415,-1.4284,-11.8946,-0.0125,-0.0031,0.0233,92,16.528,319,6.0946,2.5201,-16.4027,0.0018,0.0037,-0.013,63
15.986,308,9.3626,-1.4715,-11.8568,0.0432,0.0064,0.0129,92,16.58,320,6.0622,2.4722,-16.3742,-0.0073,-0.0011,-0.0031,63
16.038,309,9.4045,-1.3973,-11.8044,0.0673,0.002,-0.004,92,16.632,321,6.0365,2.3809,-16.3582,-0.0141,0.0018,0.0075,63
16.09,310,9.3665,-1.4752,-11.776,0.0635,-0.0018,0.0016,92,16.683,322,6.0571,2.3267,-16.3637,-0.0108,0.0119,0.0207,63
16.141,311,9.3711,-1.5076,-11.7689,0.0742,-0.0106,-0.015,92,16.735,323,6.0122,2.2679,-16.3491,-0.0075,0.0229,0.0332,63
16.193,312,9.3569,-1.5072,-11.7928,0.0846,-0.0121,-0.021,92,16.787,324,6.0047,2.2531,-16.403,0.002,0.0375,0.0415,63
16.245,313,9.3712,-1.4833,-11.8057,0.0606,-0.0105,-0.0022,92,16.839,325,5.9878,2.2793,-16.4535,0.0151,0.0336,0.052,63
16.297,314,9.4675,-1.4064,-11.7172,0.0215,0.0139,0.0378,92,16.891,326,5.9683,2.3485,-16.4769,0.0174,0.0176,0.0528,63
16.349,315,9.4191,-1.4826,-11.757,-0.0564,0.0366,0.0719,92,16.942,327,6.0072,2.4049,-16.4433,0.0107,-0.0107,0.0545,63
16.4,316,9.4113,-1.472,-11.7745,-0.121,0.0512,0.084,92,16.994,328,6.0382,2.4268,-16.3472,0.001,-0.0299,0.0529,63
16.452,317,9.372,-1.5324,-11.7872,-0.154,0.0441,0.0836,92,17.046,329,6.0608,2.4744,-16.2977,-0.0069,-0.0277,0.0431,63
16.504,318,9.3616,-1.5696,-11.7775,-0.1657,0.054,0.088,92,17.098,330,6.1075,2.4985,-16.2671,-0.0162,-0.0155,0.035,63
16.556,319,9.3623,-1.592,-11.718,-0.1836,0.0492,0.0874,92,17.149,331,6.0556,2.4442,-16.2478,-0.0328,-0.0049,0.0272,63
16.608,320,9.3539,-1.6779,-11.7262,-0.1834,0.0391,0.0692,92,17.201,332,5.9688,2.4333,-16.2677,-0.0206,0.0181,0.0106,63
16.659,321,9.3388,-1.7087,-11.7298,-0.132,0.0361,0.0413,92,17.253,333,6.0103,2.4204,-16.3404,0.0201,0.0431,-0.018,63
16.711,322,9.342,-1.6666,-11.7041,-0.09,0.0168,0.0165,92,17.305,334,6.1628,2.4418,-16.4338,0.0324,0.0419,-0.0443,63
16.763,323,9.3035,-1.7005,-11.7214,-0.0584,-0.0182,-0.0157,92,17.357,335,6.1782,2.407,-16.4566,0.0166,0.0222,-0.042,63
16.815,324,9.4234,-1.4967,-11.8068,-0.0087,-0.0301,-0.0393,92,17.408,336,6.0675,2.3619,-16.3848,-0.0154,-0.0037,-0.0207,63
16.867,325,9.3918,-1.5446,-11.8156,-0.0036,-0.0242,-0.0272,92,17.46,337,6.0183,2.3303,-16.3421,-0.052,-0.0052,0.0011,63
16.918,326,9.3238,-1.6323,-11.8251,0.0423,-0.0344,-0.0491,92,17.512,338,5.9891,2.3214,-16.3462,-0.0606,-0.0029,0.0201,63
16.97,327,9.2498,-1.6973,-11.8475,0.1387,-0.0701,-0.1046,92,17.564,339,6.0178,2.3726,-16.3694,-0.0488,-0.0049,0.0247,63
17.022,328,9.3832,-1.3971,-11.766,0.1588,-0.0869,-0.1115,92,17.615,340,6.1146,2.4299,-16.3973,-0.0156,-0.0192,0.0124,63
17.074,329,9.3711,-1.4493,-11.8595,0.126,-0.0777,-0.0772,92,17.667,341,6.2139,2.4391,-16.3511,0.0176,-0.0337,-0.0148,63
17.126,330,9.4237,-1.3864,-11.8353,0.0929,-0.0459,-0.0456,92,17.719,342,6.2013,2.4339,-16.2952,0.0341,-0.0332,-0.036,63
17.177,331,9.4045,-1.4034,-11.8713,0.0677,-0.0168,-0.0157,92,17.771,343,6.1533,2.3804,-16.2588,0.0242,-0.0232,-0.0279,63
17.229,332,9.3702,-1.4276,-11.8843,0.037,-0.0022,-0.0072,92,17.822,344,6.0979,2.3026,-16.2419,0.0019,-0.0071,-0.0081,63
17.281,333,9.3296,-1.4596,-11.8832,0.0344,-0.0094,-0.0307,92,17.874,345,6.0911,2.2931,-16.2602,-0.0093,0.0107,0.0086,63
17.333,334,9.3505,-1.3758,-11.8759,0.1014,-0.0248,-0.083,92,17.926,346,6.1195,2.3077,-16.3169,-0.0215,0.0217,0.0241,63
17.384,335,9.3919,-1.2604,-11.8962,0.1416,-0.0531,-0.1084,92,17.978,347,6.07,2.3681,-16.3372,-0.0328,0.016,0.0352,63
17.436,336,9.4199,-1.1967,-11.945,0.1332,-0.0685,-0.0903,92,18.03,348,6.0194,2.424,-16.3313,-0.0331,0.0055,0.0409,63
17.488,337,9.4715,-1.0739,-11.9677,0.0899,-0.037,-0.0344,92,18.081,349,6.0619,2.4534,-16.3157,-0.0308,-0.0001,0.0397,63
17.54,338,9.3965,-1.306,-11.9485,0.0358,0.0003,0.0314,92,18.133,350,6.081,2.474,-16.2776,-0.019,0.0068,0.0354,63
17.592,339,9.3809,-1.3041,-11.9163,-0.0368,0.0325,0.0657,92,18.185,351,6.1019,2.516,-16.2868,0.0062,0.0202,0.0191,63
17.643,340,9.3241,-1.3865,-11.953,-0.1709,0.0618,0.1067,92,18.237,352,6.1503,2.5344,-16.3191,-0.0005,0.0228,0.006,63
17.695,341,9.2861,-1.5062,-11.9634,-0.1793,0.0551,0.1025,92,18.288,353,6.1445,2.4755,-16.3325,-0.0157,0.0197,-0.0009,63
17.747,342,9.3017,-1.5909,-11.9203,-0.1136,0.0357,0.0559,92,18.34,354,6.1515,2.2917,-16.3405,-0.0216,0.0193,-0.0061,63
17.799,343,9.3281,-1.4755,-11.8518,-0.0002,0.0038,-0.0124,92,18.392,355,6.1634,2.1764,-16.3385,-0.0128,0.0256,-0.0023,63
17.851,344,9.2939,-1.5397,-11.8245,0.0537,-0.0289,-0.0568,92,18.444,356,6.2245,2.1899,-16.3631,-0.0275,0.029,0.0177,63
17.903,345,9.3464,-1.4039,-11.8287,0.0781,-0.0669,-0.0834,92,18.495,357,6.1727,2.2311,-16.3716,-0.0529,0.0158,0.0432,63
17.954,346,9.3992,-1.2957,-11.9094,0.0619,-0.0603,-0.0522,92,18.547,358,6.0525,2.2867,-16.3297,-0.0713,-0.0178,0.066,63
18.006,347,9.5,-1.2574,-11.783,-0.0077,0.0075,0.0465,92,18.599,359,6.018,2.3416,-16.2345,-0.075,-0.0379,0.0796,63
18.058,348,9.469,-1.3517,-11.7764,-0.0763,0.0509,0.0977,92,18.651,360,6.0514,2.4585,-16.1861,-0.0561,-0.0342,0.0785,63
18.11,349,9.4348,-1.4089,-11.777,-0.1369,0.0621,0.1038,92,18.703,361,6.1881,2.5432,-16.1939,-0.015,-0.0191,0.045,63
18.162,350,9.4163,-1.398,-11.8043,-0.1931,0.0599,0.1017,92,18.755,362,6.2764,2.6235,-16.1945,-0.0008,-0.0067,0.0144,63
18.213,351,9.3813,-1.4602,-11.8466,-0.2261,0.0687,0.1,92,18.806,363,6.1939,2.6175,-16.1557,0.0007,0.0046,-0.0119,63
18.265,352,9.2892,-1.6649,-11.7758,-0.2013,0.0698,0.0801,92,18.858,364,6.098,2.529,-16.1402,-0.0058,0.0192,-0.0331,63
18.317,353,9.2748,-1.6097,-11.7939,-0.0308,0.0203,-0.0278,92,18.91,365,6.0976,2.4508,-16.1778,0.0065,0.0335,-0.0538,63
18.369,354,9.1967,-1.6903,-11.7483,0.0488,-0.0283,-0.0807,92,18.962,366,6.1457,2.4245,-16.236,0.0169,0.0372,-0.0734,63
18.42,355,9.3909,-1.4196,-11.7784,0.228,-0.1224,-0.2082,92,19.014,367,6.2244,2.4056,-16.2962,0.0261,0.0307,-0.0849,63
18.472,356,9.4946,-1.177,-11.8676,0.2845,-0.1458,-0.2252,92,19.065,368,6.2339,2.3445,-16.3124,0.0346,0.0164,-0.0877,63
18.524,357,9.5039,-1.0296,-11.9453,0.2053,-0.1252,-0.1669,92,19.117,369,6.261,2.289,-16.2959,0.0393,-0.0011,-0.0799,63
18.576,358,9.4344,-1.1842,-12.035,0.1674,-0.0761,-0.1096,92,19.169,370,6.2594,2.3139,-16.2271,0.027,-0.0174,-0.0481,63
18.628,359,9.3843,-1.2215,-11.9815,0.1641,-0.0394,-0.0836,92,19.221,371,6.1785,2.3496,-16.1383,0.012,-0.0165,-0.0119,63
18.679,360,9.3815,-1.1982,-11.9554,0.1299,-0.0222,-0.0475,92,19.272,372,6.1068,2.3778,-16.1259,0.0216,0.0035,0.006,63
18.731,361,9.392,-1.1529,-11.9976,0.087,-0.0134,-0.0098,92,19.324,373,6.1766,2.4717,-16.2071,0.0078,0.0131,0.0172,63
18.783,362,9.403,-1.1946,-12.0023,0.0611,-0.0039,0.018,92,19.376,374,6.2631,2.5505,-16.2361,-0.0195,-0.0021,0.032,63
18.835,363,9.3838,-1.2604,-11.9939,0.0455,-0.0045,0.0255,92,19.428,375,6.1388,2.5298,-16.2006,-0.0556,-0.0033,0.0409,63
18.886,364,9.3943,-1.2367,-11.9746,0.0416,0.0034,0.0247,92,19.48,376,6.0576,2.479,-16.2049,-0.0525,0.0171,0.0321,63
18.938,365,9.3697,-1.3043,-11.9799,0.0335,0.0034,0.0153,92,19.531,377,6.0751,2.4418,-16.271,-0.0332,0.0349,0.0188,63
18.99,366,9.3672,-1.2824,-11.961,0.0328,-0.0181,-0.0062,92,19.583,378,6.1807,2.4734,-16.3562,-0.0118,0.0302,0.0098,63
19.042,367,9.412,-1.1405,-11.963,0.0285,-0.019,-0.0031,92,19.635,379,6.2265,2.4522,-16.3476,-0.0066,0.0088,0.0089,63
19.094,368,9.4624,-1.0802,-12.0088,-0.0014,0.0149,0.0429,92,19.687,380,6.2333,2.3909,-16.2836,-0.0078,-0.009,0.0131,63
19.146,369,9.3703,-1.3329,-11.9823,-0.018,0.0291,0.057,92,19.738,381,6.1912,2.366,-16.2238,-0.0024,-0.0143,0.0253,63
19.197,370,9.3338,-1.3834,-11.9999,0.0011,0.0158,0.0171,92,19.79,382,6.1415,2.4102,-16.172,-0.0012,-0.0068,0.0449,63
19.249,371,9.3562,-1.3669,-11.9876,0.0028,0.0109,0.0006,92,19.842,383,6.1473,2.4917,-16.1629,-0.0069,0.0033,0.0574,63
19.301,372,9.3988,-1.2655,-11.9362,-0.0088,0.0077,-0.0025,92,19.894,384,6.1322,2.5609,-16.163,-0.0212,0.0082,0.0619,63
19.353,373,9.4173,-1.2019,-11.939,-0.0235,0.0119,0.02,92,19.946,385,6.1147,2.5689,-16.1584,-0.0192,0.0087,0.0458,63
19.405,374,9.385,-1.3036,-11.9828,-0.0201,0.0045,0.0067,92,19.997,386,6.1355,2.5533,-16.1667,0.0054,0.0148,0.013,63
19.456,375,9.378,-1.3273,-11.9683,-0.019,0.0064,-0.0004,92,20.049,387,6.2306,2.5264,-16.183,0.0293,0.018,-0.0234,63
19.508,376,9.3677,-1.3268,-11.9537,-0.0213,0.009,0.0035,92,20.101,388,6.2804,2.487,-16.1631,0.0211,0.0151,-0.0406,63
19.56,377,9.372,-1.3403,-11.9396,-0.0165,0.0119,-0.0007,92,20.153,389,6.1941,2.4193,-16.1243,0.0021,0.0176,-0.0345,63
19.612,378,9.3716,-1.3306,-11.925,-0.0119,0.0207,0.0079,92,20.205,390,6.1445,2.3725,-16.1311,-0.0132,0.0249,-0.0187,63
19.664,379,9.3247,-1.4021,-11.8834,-0.0039,0.0181,-0.0025,92,20.256,391,6.1937,2.381,-16.194,-0.0354,0.0201,0.0072,63
19.715,380,9.3086,-1.4305,-11.8954,0.0049,0.007,-0.0181,92,20.308,392,6.2261,2.3761,-16.2147,-0.0608,-0.0002,0.0299,63
19.767,381,9.3569,-1.3241,-11.8547,0.0267,0.01,-0.026,92,20.36,393,6.2183,2.3988,-16.1916,-0.0729,-0.0212,0.0391,63
19.819,382,9.4116,-1.2936,-11.8456,0.0325,0.028,0.0049,92,20.412,394,6.2225,2.3919,-16.1505,-0.0726,-0.0308,0.0345,63
19.871,383,9.3439,-1.4512,-11.7978,0.0291,0.0231,0.0225,92,20.464,395,6.2847,2.3685,-16.1317,-0.0702,-0.0293,0.0314,63
19.923,384,9.3388,-1.46,-11.8315,0.0206,0.0185,0.0204,92,20.515,396,6.3081,2.3681,-16.1038,-0.0465,-0.0184,0.0274,63
19.974,385,9.385,-1.3301,-11.8566,0.0147,0.0393,0.0351,92,20.567,397,6.2295,2.3422,-16.0892,-0.0039,0.0131,0.0206,63
20.026,386,9.3733,-1.4148,-11.7876,-0.0297,0.0677,0.0707,92,20.619,398,6.3037,2.3783,-16.1658,0.0355,0.0417,0.026,63
20.078,387,9.3724,-1.4524,-11.7382,-0.1022,0.0924,0.0974,92,20.67,399,6.3985,2.4318,-16.2303,0.0587,0.0305,0.0306,63
20.13,388,9.3738,-1.4853,-11.7454,-0.0864,0.0838,0.0825,92,20.722,400,6.4109,2.5094,-16.1906,0.0554,-0.0092,0.0188,63
20.182,389,9.3112,-1.5484,-11.7126,-0.0447,0.0696,0.0504,92,20.774,401,6.3407,2.5813,-16.1349,0.0493,-0.039,0.0029,63
20.233,390,9.3598,-1.4593,-11.662,-0.0087,0.0405,0.0156,92,20.826,402,6.1685,2.6194,-16.068,0.0419,-0.0439,-0.0127,63
20.285,391,9.3659,-1.4866,-11.6307,0.0124,0.0182,-0.0107,92,20.878,403,6.0225,2.5962,-16.0322,0.0266,-0.0359,-0.0167,63
20.337,392,9.3497,-1.4794,-11.6557,0.0638,-0.0264,-0.0754,92,20.929,404,6.0549,2.5802,-16.0678,-0.0044,-0.0232,-0.0147,63
20.389,393,9.404,-1.3829,-11.6897,0.1201,-0.0738,-0.1333,92,20.981,405,6.146,2.5694,-16.1533,-0.0305,-0.0167,-0.0187,63
20.441,394,9.3264,-1.4906,-11.6493,0.1442,-0.1602,-0.172,92,21.033,406,6.213,2.4966,-16.2108,-0.0559,-0.013,-0.0125,63
20.492,395,9.3939,-1.2789,-11.8774,0.2148,-0.2094,-0.2102,92,21.085,407,6.1926,2.358,-16.2371,-0.0577,-0.0058,-0.0012,63
20.544,396,9.4482,-1.044,-12.0407,0.2143,-0.1625,-0.161,92,21.136,408,6.2475,2.1991,-16.2511,-0.0381,0.0085,-0.0053,63
20.596,397,9.4315,-0.9993,-12.0228,0.1805,-0.0945,-0.0928,92,21.188,409,6.3273,2.0941,-16.2192,-0.0373,0.0299,0.015,63
20.648,398,9.417,-0.9955,-12.0245,0.1236,-0.0547,-0.031,92,21.24,410,6.2518,2.0663,-16.0453,-0.0331,0.0561,0.0509,63
20.7,399,9.4272,-0.9881,-11.9827,0.0839,-0.0236,0.0044,92,21.292,411,6.2107,1.962,-15.7711,-0.0195,0.0971,0.1207,63
20.751,400,9.5429,-0.6027,-11.9923,0.0033,0.0464,0.0911,92,21.344,412,6.3879,2.0394,-15.6946,-0.0731,0.1387,0.2286,63
20.803,401,9.4223,-1.0424,-11.9626,-0.0784,0.081,0.1484,92,21.395,413,6.4815,2.1594,-15.7513,-0.1082,0.1646,0.3026,63
20.855,402,9.4581,-1.0382,-11.9233,-0.0554,0.0839,0.1128,92,21.447,414,6.6374,2.2999,-15.8872,-0.0929,0.1818,0.2927,63
20.907,403,9.4661,-1.015,-11.8561,-0.2266,0.1577,0.1859,92,21.499,415,6.7814,2.4025,-16.0158,-0.051,0.1727,0.2043,63
20.958,404,9.3819,-1.263,-11.842,-0.3313,0.1413,0.2045,92,21.551,416,6.6776,2.2746,-15.9839,0.0123,0.1574,0.1044,63
21.01,405,9.3242,-1.5696,-11.7718,-0.3362,0.1156,0.1511,92,21.603,417,6.6154,2.1329,-15.9759,0.0678,0.145,0.0232,63
21.062,406,9.3034,-1.7199,-11.681,-0.2425,0.0967,0.0814,92,21.654,418,6.5788,2.0232,-15.9793,0.0832,0.1148,-0.0146,63
21.114,407,9.2957,-1.7046,-11.6628,-0.165,0.0729,0.0364,92,21.706,419,6.6202,2.016,-15.9627,0.1003,0.0678,-0.0282,63
21.166,408,9.1037,-1.996,-11.5866,-0.0688,0.0176,-0.0302,92,21.758,420,6.7176,2.0971,-15.9072,0.0705,0.0098,-0.0278,63
21.218,409,9.3669,-1.3552,-11.5611,-0.0443,-0.0546,-0.0609,92,21.81,421,6.7451,2.1858,-15.825,0.0485,-0.0533,-0.0308,63
21.269,410,9.3899,-1.3937,-11.7324,-0.0495,-0.0481,-0.0174,92,21.862,422,6.7188,2.2318,-15.7606,0.0381,-0.0886,-0.0438,63
21.321,411,9.4885,-1.2135,-11.724,-0.0857,0.0012,0.0377,92,21.913,423,6.743,2.2681,-15.7313,0.0384,-0.109,-0.067,63
21.373,412,9.3631,-1.4284,-11.7577,-0.1581,0.0286,0.0619,92,21.965,424,6.7692,2.2037,-15.7339,0.0268,-0.1185,-0.0823,63
21.425,413,9.3597,-1.4646,-11.6752,-0.1593,0.0333,0.0434,92,22.017,425,6.7084,2.204,-15.7552,0.0324,-0.1121,-0.0939,63
21.476,414,9.2868,-1.6159,-11.6874,-0.0783,0.0086,0.0036,92,22.069,426,6.579,2.2103,-15.7902,0.0033,-0.0993,-0.0825,63
21.528,415,9.3445,-1.4772,-11.7126,-0.0273,-0.0032,-0.0127,92,22.12,427,6.5025,2.1624,-15.8676,0.0104,-0.084,-0.0805,63
21.58,416,9.1757,-1.893,-11.7286,0.0577,-0.0313,-0.0428,92,22.172,428,6.5188,2.1401,-15.938,0.0085,-0.0709,-0.0828,63
21.632,417,9.3327,-1.4215,-11.7118,0.1587,-0.0507,-0.1313,92,22.224,429,6.5751,2.1086,-15.9695,0.011,-0.0605,-0.07,63
21.684,418,9.286,-1.5415,-11.654,0.1944,-0.1054,-0.136,92,22.276,430,6.5558,2.0371,-15.9724,0.0129,-0.0474,-0.0593,63
21.735,419,9.4216,-1.2531,-11.7951,0.2817,-0.1401,-0.1812,92,22.328,431,6.5033,2.0192,-15.9793,0.0265,-0.0303,-0.0594,63
21.787,420,9.4366,-1.1802,-11.8741,0.2456,-0.0865,-0.1132,92,22.379,432,6.4497,2.0616,-16.0067,0.0403,-0.0122,-0.0551,63
21.839,421,9.405,-1.232,-11.8639,0.2094,-0.0527,-0.0759,92,22.431,433,6.4038,2.1285,-16.0156,0.0586,0.0042,-0.0487,63
21.891,422,9.4239,-1.1674,-11.8683,0.1671,-0.046,-0.0501,92,22.483,434,6.4461,2.2051,-16.0392,0.0768,0.0106,-0.0541,63
21.942,423,9.5014,-1.0145,-11.9261,0.1008,-0.0072,0.0143,92,22.535,435,6.4487,2.2649,-16.0582,0.0784,0.0108,-0.0524,63
21.994,424,9.5524,-1.1903,-11.7152,-0.0672,0.061,0.1146,92,22.586,436,6.3993,2.2957,-16.0414,0.0677,0.0071,-0.0426,63
22.046,425,9.4494,-1.3614,-11.7526,-0.1492,0.0672,0.1233,92,22.638,437,6.3353,2.2902,-16.0333,0.0657,0.0067,-0.0429,63
22.098,426,9.3995,-1.4622,-11.8137,-0.0811,0.0386,0.0778,92,22.69,438,6.3405,2.2731,-16.0479,0.0496,0.0055,-0.0429,63
22.15,427,9.3519,-1.5528,-11.7894,0.0091,0.0285,0.0374,92,22.742,439,6.3816,2.281,-16.0586,0.0263,0.0036,-0.0286,63
22.202,428,9.3616,-1.4579,-11.7283,0.0625,-0.0077,-0.0261,92,22.794,440,6.4304,2.2328,-16.085,-0.0117,-0.0031,-0.0041,63
22.253,429,9.4042,-1.3846,-11.7418,0.1005,-0.0564,-0.0708,92,22.845,441,6.4705,2.1331,-16.0748,-0.0535,-0.0206,0.0301,63
22.305,430,9.408,-1.3163,-11.7702,0.1125,-0.0538,-0.0708,92,22.897,442,6.4179,2.0867,-16.0223,-0.0599,-0.029,0.0477,63
22.357,431,9.3885,-1.3396,-11.7972,0.0951,-0.0502,-0.0566,92,22.949,443,6.3662,2.1281,-16.0108,-0.0594,-0.0217,0.0639,63
22.409,432,9.4148,-1.2483,-11.8469,0.0867,-0.0333,-0.0378,92,23.001,444,6.4191,2.1713,-16.0333,-0.0547,-0.0108,0.0689,63
22.461,433,9.4082,-1.2901,-11.8351,0.0745,-0.0091,-0.0144,92,23.053,445,6.4624,2.1832,-16.0466,-0.0344,-0.0037,0.0533,63
22.512,434,9.4486,-1.2302,-11.839,0.045,0.002,0.0055,92,23.105,446,6.4822,2.2167,-16.0861,-0.0267,0.0046,0.0436,63
22.564,435,9.3489,-1.3852,-11.9196,-0.1458,0.057,0.1027,92,23.156,447,6.4621,2.2325,-16.128,-0.0385,0.0051,0.0505,63
22.616,436,9.31,-1.5883,-11.931,-0.1679,0.0312,0.0826,92,23.208,448,6.3639,2.214,-16.1119,-0.0576,-0.0132,0.0502,63
22.668,437,9.2235,-1.6028,-11.9392,-0.0864,0.0269,0.0552,92,23.26,449,6.2995,2.1949,-16.0489,-0.0526,-0.021,0.0439,63
22.72,438,9.2563,-1.5762,-11.8483,-0.005,0.0255,0.0221,92,23.312,450,6.3384,2.1668,-16.014,-0.055,-0.015,0.0449,63
22.771,439,9.328,-1.4488,-11.8294,0.0163,-0.0072,-0.003,92,23.364,451,6.4624,2.1446,-16.036,-0.0603,0.0034,0.0454,63
22.823,440,9.3918,-1.3717,-11.8665,0.0156,-0.0152,-0.0056,92,23.415,452,6.4799,2.067,-16.0231,-0.0661,0.0191,0.0502,63
22.875,441,9.4486,-1.3663,-11.775,-0.0562,0.0338,0.0599,92,23.467,453,6.4016,1.9925,-16.0125,-0.0647,0.0245,0.059,63
22.927,442,9.3698,-1.4874,-11.7584,-0.1046,0.062,0.0851,92,23.519,454,6.4364,2.0621,-16.0344,-0.0347,0.0242,0.0795,63
22.979,443,9.3758,-1.4984,-11.8005,-0.0786,0.0484,0.0631,92,23.571,455,6.476,2.127,-16.0448,-0.0413,0.0115,0.0949,63
23.03,444,9.3882,-1.4763,-11.7525,-0.0928,0.0691,0.0702,92,23.623,456,6.5028,2.2177,-16.0686,-0.0382,-0.0091,0.0866,63
23.082,445,9.3539,-1.5254,-11.7192,-0.085,0.0696,0.0714,92,23.674,457,6.5216,2.3094,-16.0635,-0.0403,-0.0388,0.0658,63
23.134,446,9.3491,-1.5867,-11.6862,-0.08,0.0547,0.0642,92,23.726,458,6.5136,2.3285,-16.0157,-0.041,-0.0612,0.0367,63
23.185,447,9.358,-1.628,-11.6725,-0.0713,0.0299,0.0401,92,23.778,459,6.4422,2.2771,-15.9696,-0.0372,-0.0674,-0.0041,63
23.237,448,9.3743,-1.5999,-11.6941,-0.0417,0.0274,0.0198,92,23.83,460,6.4308,2.2451,-15.9753,-0.039,-0.0554,-0.0381,63
23.289,449,9.3879,-1.5707,-11.6396,-0.01,0.0374,0.0225,92,23.882,461,6.401,2.2166,-16.0103,-0.0357,-0.0397,-0.0518,63
23.341,450,9.3633,-1.6414,-11.6089,0.0118,0.0259,0.012,92,23.933,462,6.3487,2.169,-16.0592,-0.04,-0.0326,-0.0531,63
23.393,451,9.3866,-1.6199,-11.6267,0.0631,0.0041,-0.0063,92,23.985,463,6.3352,2.1466,-16.0819,-0.0264,-0.0334,-0.0542,63
23.445,452,9.3627,-1.6843,-11.6135,0.1051,0.0074,-0.0159,92,24.037,464,6.4192,2.1816,-16.1033,-0.0043,-0.0271,-0.0576,63
23.497,453,9.3368,-1.6814,-11.543,0.1234,0.0004,-0.0365,92,24.089,465,6.4398,2.2059,-16.1184,-0.0,-0.0176,-0.0578,63
23.548,454,9.3529,-1.6586,-11.5684,0.1045,-0.0071,-0.0282,92,24.14,466,6.3919,2.2169,-16.1369,0.0093,-0.0145,-0.0575,63
23.6,455,9.3941,-1.6014,-11.6074,0.0815,0.0146,-0.0063,92,24.192,467,6.3183,2.2603,-16.1337,0.0109,-0.0165,-0.0572,63
23.652,456,9.3591,-1.6387,-11.5535,0.0692,0.0343,0.0076,92,24.244,468,6.2628,2.3374,-16.1041,0.0246,-0.0099,-0.0664,63
23.704,457,9.3252,-1.6815,-11.4678,0.0783,0.0179,-0.0356,92,24.296,469,6.2973,2.4147,-16.0873,0.0435,-0.0005,-0.082,63
23.756,458,9.3815,-1.5984,-11.5349,0.0595,-0.029,-0.0721,92,24.348,470,6.3609,2.4063,-16.0959,0.0584,0.0,-0.0997,63
23.807,459,9.4007,-1.5476,-11.5698,0.0236,-0.0333,-0.0513,92,24.399,471,6.3779,2.3265,-16.1061,0.0952,-0.0055,-0.1387,63
23.859,460,9.398,-1.5472,-11.5681,0.0107,-0.0121,-0.0311,92,24.451,472,6.3517,2.3679,-16.1429,0.0914,-0.0083,-0.1629,63
23.911,461,9.3678,-1.5996,-11.5579,0.0091,-0.0001,-0.0245,92,24.503,473,6.2397,2.3557,-16.1354,0.1293,0.006,-0.1618,63
23.963,462,9.3431,-1.5991,-11.5447,0.0276,-0.0091,-0.052,92,24.555,474,6.1161,2.372,-16.1433,0.121,0.0246,-0.1573,63
24.015,463,9.3528,-1.5833,-11.5464,0.0367,-0.0301,-0.0601,92,24.607,475,6.0489,2.4254,-16.1902,0.103,0.0337,-0.1302,63
24.066,464,9.3878,-1.4952,-11.6134,0.0712,-0.0439,-0.0593,92,24.658,476,6.0271,2.583,-16.1964,0.0525,0.0317,-0.083,63
24.118,465,9.4266,-1.3968,-11.5849,0.123,-0.0427,-0.0633,92,24.71,477,6.0834,2.6718,-16.1902,-0.0028,0.0223,-0.0373,63
24.17,466,9.4311,-1.3452,-11.617,0.1212,-0.0472,-0.0461,92,24.762,478,6.0988,2.6285,-16.2308,-0.0213,0.0151,-0.029,63
24.222,467,9.4351,-1.3079,-11.6523,0.1161,-0.0173,-0.006,92,24.814,479,6.1257,2.5187,-16.2632,-0.006,0.0184,-0.0392,63
24.274,468,9.4412,-1.3654,-11.6115,0.0927,0.0102,0.0288,92,24.866,480,6.1596,2.4039,-16.3201,0.0142,0.0298,-0.0498,63
24.325,469,9.4014,-1.4805,-11.5858,0.0667,0.0073,0.0343,92,24.917,481,6.1371,2.3559,-16.342,0.0617,0.0383,-0.0606,63
24.377,470,9.4049,-1.497,-11.6104,0.0539,0.0234,0.0359,92,24.969,482,6.1567,2.338,-16.3445,0.0868,0.0348,-0.0657,63
24.429,471,9.4019,-1.4981,-11.5347,0.0442,0.026,0.0346,92,25.021,483,6.1984,2.3327,-16.3537,0.1056,0.0153,-0.0653,63
24.481,472,9.3984,-1.5515,-11.5661,0.0299,0.0058,0.0229,92,25.072,484,6.243,2.3503,-16.3057,0.115,-0.0096,-0.0558,63
24.533,473,9.4379,-1.4489,-11.5396,0.0147,0.0309,0.0407,92,25.124,485,6.2452,2.3697,-16.2668,0.1128,-0.0258,-0.0465,63
24.584,474,9.3807,-1.5972,-11.5147,-0.0873,0.0778,0.1025,92,25.176,486,6.2577,2.3747,-16.2429,0.1198,-0.0272,-0.0386,63
24.636,475,9.3728,-1.6555,-11.5365,-0.0959,0.0829,0.088,92,25.228,487,6.2451,2.3854,-16.2121,0.1202,-0.0265,-0.0299,63
24.688,476,9.3751,-1.6444,-11.4628,-0.0946,0.0853,0.0806,92,25.28,488,6.206,2.4143,-16.2088,0.1168,-0.0267,-0.0237,63
24.74,477,9.3693,-1.6826,-11.4356,-0.1089,0.0773,0.0649,92,25.331,489,6.2243,2.4277,-16.2141,0.106,-0.031,-0.0193,63
24.792,478,9.394,-1.6666,-11.3939,-0.0873,0.0668,0.0484,92,25.383,490,6.2134,2.3978,-16.2048,0.0828,-0.0321,-0.016,63
24.843,479,9.3933,-1.679,-11.3576,-0.0516,0.0546,0.0332,92,25.435,491,6.1766,2.3458,-16.2059,0.0706,-0.0283,-0.0115,63
24.895,480,9.3996,-1.6563,-11.3528,-0.0081,0.0391,0.0147,92,25.487,492,6.1535,2.325,-16.2801,0.058,-0.0149,0.0,63
24.947,481,9.404,-1.6532,-11.3327,0.0202,0.034,0.0053,92,25.538,493,6.1073,2.2769,-16.3337,0.0423,-0.0103,0.0114,63
24.999,482,9.4009,-1.64,-11.3136,0.0403,0.0236,-0.0037,92,25.59,494,6.0889,2.2344,-16.3663,0.0361,-0.0146,0.0165,63
25.051,483,9.4142,-1.6096,-11.2763,0.0461,0.0227,-0.0073,92,25.642,495,6.1015,2.2649,-16.4008,0.0273,-0.0235,0.0236,63
25.102,484,9.4104,-1.6519,-11.2674,0.0414,0.0175,-0.0014,92,25.694,496,6.1221,2.2751,-16.4073,0.0156,-0.0305,0.0329,63
25.154,485,9.4218,-1.6125,-11.2666,0.0358,0.0075,-0.0068,92,25.746,497,6.1344,2.2939,-16.3738,-0.0142,-0.0303,0.0377,63
25.206,486,9.4349,-1.6226,-11.2277,0.0256,0.0084,0.0019,92,25.797,498,6.1285,2.3177,-16.3042,-0.0447,-0.0218,0.0506,63
25.258,487,9.481,-1.6121,-11.2411,-0.022,0.0193,0.0261,92,25.849,499,6.0745,2.2731,-16.2335,-0.0723,0.0025,0.0621,63
25.309,488,9.4636,-1.668,-11.2466,-0.0623,0.024,0.0461,92,25.901,500,6.0444,2.2298,-16.201,-0.0773,0.0378,0.0619,63
25.361,489,9.4749,-1.6695,-11.1923,-0.083,0.0328,0.0508,92,25.953,501,6.0277,2.2321,-16.2584,-0.0531,0.0776,0.0463,63
25.413,490,9.4543,-1.6714,-11.1717,-0.1382,0.0595,0.0684,92,26.005,502,6.0661,2.2339,-16.3425,-0.0227,0.1021,0.0257,63
25.465,491,9.4236,-1.7247,-11.1937,-0.1541,0.0622,0.0709,92,26.056,503,6.1364,2.2524,-16.4263,-0.0037,0.1069,-0.0023,63
25.517,492,9.3863,-1.7897,-11.1532,-0.1564,0.0432,0.0603,92,26.108,504,6.2007,2.2452,-16.4647,0.017,0.0797,-0.0267,63
25.569,493,9.4035,-1.827,-11.1708,-0.1603,0.0348,0.0477,92,26.16,505,6.1786,2.2297,-16.4247,0.0247,0.0394,-0.035,63
25.62,494,9.3938,-1.8164,-11.1703,-0.1471,0.0388,0.0388,92,26.212,506,6.1925,2.1895,-16.3404,0.0091,0.0037,-0.0246,63
25.672,495,9.3967,-1.8266,-11.1689,-0.1121,0.0323,0.0264,92,26.263,507,6.1829,2.1476,-16.2323,-0.024,-0.0183,0.0095,63
25.724,496,9.3985,-1.804,-11.1861,-0.0667,0.0246,0.0204,92,26.315,508,6.218,2.1215,-16.161,-0.0454,-0.021,0.0481,63
25.776,497,9.4032,-1.826,-11.1826,-0.0204,0.0139,0.0153,92,26.367,509,6.2781,2.0907,-16.1481,-0.0667,-0.0102,0.0792,63
25.828,498,9.4155,-1.8244,-11.1543,0.0048,0.0148,0.0134,92,26.419,510,6.3457,2.0627,-16.2122,-0.0706,0.0005,0.0882,63
25.879,499,9.3807,-1.8884,-11.1517,0.0281,0.01,0.0128,92,26.471,511,6.3907,2.1204,-16.2735,-0.0591,-0.0026,0.0766,63
25.931,500,9.4646,-1.7592,-11.107,0.0634,0.0066,-0.0,92,26.522,512,6.3431,2.2124,-16.2551,-0.056,-0.0261,0.0645,63
25.983,501,9.4125,-1.8364,-11.1261,0.0379,0.0067,0.0123,92,26.574,513,6.2205,2.3041,-16.1571,-0.0566,-0.0423,0.0511,63
26.034,502,9.3966,-1.8568,-11.1454,0.0472,-0.0033,0.0034,92,26.626,514,6.1786,2.3866,-16.0859,-0.0381,-0.028,0.0263,63
26.086,503,9.4354,-1.8556,-11.149,0.0465,-0.0039,0.0056,92,26.678,515,6.2161,2.4435,-16.0909,-0.0245,0.0015,-0.0068,63
26.138,504,9.4525,-1.8208,-11.1063,0.007,0.0085,0.0122,92,26.729,516,6.2241,2.434,-16.1375,-0.0042,0.0272,-0.0398,63
26.19,505,9.4486,-1.8503,-11.1453,-0.0253,0.0157,0.0174,92,26.781,517,6.2393,2.3817,-16.2699,0.1063,0.0468,-0.0637,63
26.242,506,9.4045,-1.9047,-11.1321,-0.0402,0.0157,0.0053,92,26.833,518,6.3003,2.3672,-16.4514,0.275,0.0323,-0.0809,63
26.293,507,9.3822,-1.9518,-11.0951,-0.0096,-0.0075,-0.0238,92,26.885,519,6.2676,2.2522,-16.4919,0.2639,-0.0176,-0.1002,63
26.345,508,9.413,-1.8463,-11.1123,0.0819,-0.0634,-0.1017,92,26.937,520,6.1691,2.1069,-16.3836,0.2103,-0.0602,-0.0968,63
26.397,509,9.5746,-1.5608,-11.1694,0.1209,-0.0834,-0.1268,92,26.988,521,6.0933,1.9664,-16.2326,0.1235,-0.0634,-0.0717,63
26.449,510,9.5183,-1.6257,-11.2158,0.1078,-0.0926,-0.1084,92,27.04,522,6.1558,1.9008,-16.1978,0.086,-0.0332,-0.0279,63
26.501,511,9.4995,-1.6396,-11.2428,0.1019,-0.0967,-0.106,92,27.092,523,6.2447,1.8913,-16.242,0.0341,-0.0002,0.0053,63
26.553,512,9.4698,-1.656,-11.2506,0.1098,-0.1018,-0.1131,92,27.143,524,6.2426,1.9403,-16.3197,0.0161,0.0199,0.029,63
26.605,513,9.512,-1.5408,-11.2917,0.1667,-0.1106,-0.1269,92,27.195,525,6.1813,1.998,-16.351,-0.0029,0.0223,0.0424,63
26.656,514,9.523,-1.4464,-11.3351,0.1697,-0.0953,-0.0959,92,27.247,526,6.175,2.037,-16.3619,-0.026,0.0234,0.0381,63
26.708,515,9.5006,-1.427,-11.3577,0.1173,-0.0645,-0.0415,92,27.299,527,6.1983,2.0861,-16.381,-0.0169,0.0249,0.03,63
26.76,516,9.5207,-1.3286,-11.3592,0.0428,-0.028,0.0246,92,27.351,528,6.1741,2.0595,-16.367,-0.0376,0.0242,0.0197,63
26.812,517,9.4664,-1.4887,-11.3633,-0.0076,-0.0161,0.0469,92,27.403,529,6.1494,2.0165,-16.3818,-0.0316,0.028,0.0119,63
26.864,518,9.4511,-1.5251,-11.3544,-0.0081,-0.0145,0.0282,92,27.455,530,6.1963,1.977,-16.4102,-0.0212,0.0255,0.008,63
26.915,519,9.4103,-1.6235,-11.3367,-0.0009,-0.0129,0.0086,92,27.506,531,6.2589,1.9309,-16.4462,-0.0148,0.0184,0.0101,63
26.967,520,9.39,-1.5884,-11.341,0.016,-0.0245,-0.0198,92,27.558,532,6.289,1.8927,-16.4361,-0.0088,0.0116,0.0237,63
27.019,521,9.4114,-1.555,-11.3877,0.0354,-0.037,-0.0332,92,27.61,533,6.2538,1.8949,-16.4039,-0.0147,0.0077,0.0378,63
27.071,522,9.442,-1.4707,-11.4008,0.0354,-0.0377,-0.0278,92,27.661,534,6.2049,1.9208,-16.355,-0.0162,0.0064,0.0477,63
27.122,523,9.406,-1.5479,-11.4272,0.0236,-0.0308,-0.0144,92,27.713,535,6.1901,1.959,-16.2961,-0.0229,0.0084,0.058,63
27.174,524,9.4397,-1.5029,-11.4574,0.0191,-0.0204,-0.0072,92,27.765,536,6.2458,2.0201,-16.2653,-0.0297,0.0109,0.063,63
27.226,525,9.479,-1.3862,-11.4547,-0.0076,0.003,0.0206,92,27.817,537,6.2686,2.079,-16.2497,-0.0481,0.0089,0.0601,63
27.278,526,9.4423,-1.4684,-11.4701,-0.0694,0.0273,0.0651,92,27.869,538,6.2695,2.0747,-16.2505,-0.072,0.0061,0.0581,63
27.329,527,9.4146,-1.5511,-11.4543,-0.0965,0.0334,0.0664,92,27.92,539,6.2805,2.0386,-16.251,-0.084,0.0022,0.0504,63
27.381,528,9.3877,-1.6123,-11.4466,-0.0934,0.0226,0.0505,92,27.972,540,6.2491,1.9833,-16.2153,-0.0709,-0.0054,0.0362,63
27.433,529,9.372,-1.6423,-11.4401,-0.0775,0.022,0.0386,92,28.024,541,6.2223,2.0129,-16.1916,-0.0479,-0.005,0.019,63
27.485,530,9.363,-1.6586,-11.4268,-0.0481,0.0166,0.0229,92,28.076,542,6.3271,2.0843,-16.1972,-0.0237,0.0014,-0.0014,63
27.537,531,9.37,-1.636,-11.4332,-0.0433,0.012,0.0129,92,28.128,543,6.4061,2.0598,-16.2112,-0.0181,0.0058,-0.0175,63
27.588,532,9.4186,-1.6049,-11.4511,-0.0747,0.0225,0.0241,92,28.179,544,6.381,1.9758,-16.2035,-0.0167,0.0089,-0.0197,63
27.64,533,9.3883,-1.6362,-11.4212,-0.0998,0.045,0.0412,92,28.231,545,6.3467,1.9216,-16.203,-0.0138,0.0155,-0.0117,63
27.692,534,9.3678,-1.6845,-11.4122,-0.074,0.0403,0.0369,92,28.283,546,6.3745,1.9099,-16.2346,-0.0023,0.0217,0.0053,63
27.744,535,9.3325,-1.7433,-11.4107,-0.0072,0.0042,0.0046,92,28.335,547,6.3921,1.9115,-16.2739,-0.0111,0.0253,0.0237,63
27.796,536,9.4646,-1.5698,-11.4003,0.0934,-0.0324,-0.044,92,28.386,548,6.3858,1.8944,-16.3055,-0.018,0.0261,0.037,63
27.847,537,9.502,-1.5143,-11.4032,0.119,-0.0449,-0.045,92,28.438,549,6.3489,1.8808,-16.3059,-0.013,0.0208,0.0444,63
27.9,538,9.4788,-1.5568,-11.4128,0.1031,-0.047,-0.0352,92,28.49,550,6.2971,1.8894,-16.2756,-0.0277,0.0123,0.0564,63
27.951,539,9.4403,-1.6153,-11.4171,0.0768,-0.0457,-0.0236,92,28.542,551,6.2695,1.9279,-16.2345,-0.0402,0.0072,0.0702,63
28.003,540,9.4628,-1.5718,-11.4499,0.0526,-0.031,-0.0076,92,28.593,552,6.1936,2.0051,-16.194,-0.0376,0.0105,0.0712,63
28.055,541,9.4658,-1.581,-11.475,-0.0505,0.0008,0.0425,92,28.645,553,6.1423,2.0602,-16.1203,-0.0299,0.028,0.0597,63
28.107,542,9.4581,-1.6159,-11.4491,-0.0986,0.0266,0.0693,92,28.697,554,6.1888,2.1337,-16.1261,-0.049,0.0403,0.0433,63
28.159,543,9.4282,-1.6921,-11.4238,-0.1622,0.0395,0.0826,92,28.749,555,6.2216,2.1296,-16.1297,-0.0648,0.0224,0.0316,63
28.21,544,9.4046,-1.7517,-11.4357,-0.1767,0.0375,0.0786,92,28.801,556,6.3414,2.1827,-16.148,-0.0808,-0.0043,0.013,63
28.262,545,9.3914,-1.7765,-11.4242,-0.1803,0.0425,0.0772,92,28.853,557,6.5392,2.2064,-16.1184,-0.0859,-0.0207,-0.0116,63
28.314,546,9.3498,-1.8224,-11.4271,-0.1522,0.0361,0.0588,92,28.904,558,6.6146,2.0993,-16.0903,-0.099,-0.0164,-0.03,63
28.365,547,9.2423,-1.9048,-11.3976,-0.0725,0.009,0.0104,92,28.956,559,6.5392,1.9313,-16.0739,-0.1052,0.0001,-0.03,63
28.417,548,9.2957,-1.8062,-11.4461,-0.0514,0.0134,0.0097,92,29.008,560,6.388,1.9058,-16.1356,-0.0855,0.0187,-0.0159,63
28.469,549,9.2939,-1.8401,-11.4449,-0.0112,0.0219,0.006,92,29.06,561,6.3401,1.9004,-16.199,-0.0576,0.0279,-0.0053,63
28.521,550,9.2771,-1.885,-11.45,0.0767,-0.0092,-0.0343,92,29.111,562,6.4313,1.9649,-16.2841,-0.0566,0.0086,0.0052,63
28.573,551,9.2638,-1.8587,-11.4159,0.1709,-0.0494,-0.0961,92,29.163,563,6.4872,1.9956,-16.309,-0.064,-0.0337,0.0195,63
28.624,552,9.2847,-1.7926,-11.4475,0.167,-0.0468,-0.0504,92,29.215,564,6.4875,1.9878,-16.2298,-0.0693,-0.0759,0.0287,63
28.676,553,9.3011,-1.8268,-11.4359,0.1304,-0.0168,-0.0179,92,29.267,565,6.4534,2.0074,-16.1199,-0.0394,-0.0884,0.0234,63
28.728,554,9.3562,-1.7657,-11.4609,0.095,0.0056,0.0021,92,29.319,566,6.4533,2.0561,-16.0172,0.0199,-0.07,-0.0031,63
28.78,555,9.3394,-1.797,-11.438,0.0665,0.0378,0.0271,92,29.37,567,6.4523,2.1224,-15.9853,0.0833,-0.0205,-0.0434,63
28.832,556,9.3565,-1.7912,-11.378,0.0574,0.0439,0.0304,92,29.422,568,6.4623,2.1655,-16.0043,0.1399,0.0226,-0.0826,63
28.884,557,9.3851,-1.8095,-11.3024,0.0422,0.0396,0.0242,92,29.474,569,6.461,2.2164,-16.0126,0.1661,0.0456,-0.1101,63
28.935,558,9.3825,-1.7952,-11.287,0.0298,0.0383,0.0113,92,29.526,570,6.4015,2.2463,-16.0023,0.1621,0.0672,-0.118,63
28.987,559,9.3356,-1.9143,-11.2371,0.0193,0.0238,-0.0121,92,29.578,571,6.3378,2.2584,-16.0371,0.1423,0.0835,-0.1093,63
29.039,560,9.3806,-1.7815,-11.2392,0.034,-0.0034,-0.0591,92,29.629,572,6.3585,2.2315,-16.1131,0.0745,0.0728,-0.0781,63
29.091,561,9.4056,-1.7385,-11.2543,0.0352,-0.0287,-0.0703,92,29.681,573,6.3517,2.1604,-16.1377,-0.0251,0.0267,-0.0093,63
29.142,562,9.4404,-1.6443,-11.2884,0.0387,-0.0507,-0.0795,92,29.733,574,6.3455,2.1205,-16.126,-0.1268,-0.0287,0.07,63
29.194,563,9.4223,-1.6462,-11.2785,0.05,-0.0667,-0.0819,92,29.785,575,6.399,2.1027,-16.1014,-0.2197,-0.0757,0.1468,63
29.246,564,9.4201,-1.6203,-11.3032,0.0831,-0.0989,-0.0997,92,29.836,576,6.4436,2.0955,-16.0605,-0.2825,-0.1011,0.205,63
29.298,565,9.4529,-1.4964,-11.3779,0.1216,-0.1043,-0.1024,92,29.888,577,6.473,2.0945,-16.0139,-0.2978,-0.1028,0.2285,63
29.35,566,9.4641,-1.4334,-11.4452,0.1308,-0.0976,-0.092,92,29.94,578,6.4877,2.1341,-16.0034,-0.2742,-0.0848,0.2267,63
29.401,567,9.4428,-1.4745,-11.4995,0.1114,-0.0801,-0.0806,92,29.992,579,6.39,2.2033,-16.0197,-0.2391,-0.0545,0.2105,63
29.453,568,9.4503,-1.4703,-11.4938,0.1188,-0.0651,-0.0829,92,30.043,580,6.356,2.264,-16.121,-0.2048,-0.039,0.1851,63
29.505,569,9.455,-1.404,-11.5235,0.1232,-0.0425,-0.0778,92,30.095,581,6.3724,2.2192,-16.1976,-0.1768,-0.0503,0.1698,63
29.557,570,9.4568,-1.3847,-11.5107,0.1092,-0.0264,-0.0615,92,30.147,582,6.4353,2.1056,-16.2315,-0.1556,-0.0823,0.1641,63
29.609,571,9.4452,-1.4071,-11.498,0.0936,-0.0086,-0.0438,92,30.199,583,6.5025,2.0234,-16.2191,-0.1371,-0.1126,0.1855,63
29.66,572,9.4701,-1.3277,-11.5128,0.0694,-0.0083,-0.0359,92,30.251,584,6.4718,1.9603,-16.1352,-0.1404,-0.127,0.2262,63
29.712,573,9.4582,-1.3161,-11.5191,0.0581,-0.0033,-0.0273,92,30.303,585,6.4167,1.9744,-16.0226,-0.1429,-0.1215,0.248,63
29.764,574,9.4441,-1.3837,-11.4729,0.0608,-0.0211,-0.0326,92,30.354,586,6.4167,2.0357,-16.0361,-0.1526,-0.087,0.2516,63
29.816,575,9.4298,-1.4011,-11.4182,0.1207,-0.0781,-0.0857,92,30.406,587,6.4409,2.0452,-16.0747,-0.1738,-0.0365,0.2535,63
29.868,576,9.4154,-1.2872,-11.4872,0.1116,-0.1696,-0.1248,92,30.458,588,6.2581,1.9674,-16.1909,-0.1508,0.0411,0.2259,63
29.919,577,9.41,-1.1729,-11.6759,0.1019,-0.2189,-0.1412,92,30.51,589,6.1075,1.9339,-16.3569,-0.0559,0.0953,0.1654,63
29.971,578,9.4152,-1.1156,-11.7846,0.0347,-0.189,-0.0875,92,30.562,590,6.0997,1.9704,-16.5309,0.003,0.1074,0.1134,63
30.023,579,9.4138,-1.0197,-11.8829,-0.0114,-0.1636,-0.0541,92,30.613,591,6.3992,2.0201,-16.7747,-0.0408,0.0496,0.1047,63
30.075,580,9.4766,-0.8686,-11.9628,-0.063,-0.0803,0.0252,92,30.665,592,6.5885,2.0356,-16.9145,-0.1601,-0.086,0.1067,63
30.127,581,9.4442,-0.9413,-12.0235,-0.2547,0.0906,0.2009,92,30.717,593,6.3866,2.134,-16.7829,-0.186,-0.2338,0.0352,63
30.178,582,9.2103,-1.6957,-11.8889,-0.393,0.1281,0.247,92,30.769,594,6.2356,2.1649,-16.4783,-0.124,-0.3224,-0.1004,63
30.23,583,9.2062,-1.6913,-11.8539,-0.3052,0.1022,0.1602,92,30.821,595,6.1766,2.069,-16.1833,0.0118,-0.3187,-0.2084,63
30.282,584,9.264,-1.6219,-11.911,-0.121,0.06,0.0644,92,30.873,596,6.1794,2.0027,-16.0771,0.1011,-0.2623,-0.2676,63
30.334,585,9.4786,-1.2764,-11.6711,-0.0164,0.1083,0.0671,92,30.924,597,6.1285,1.8954,-15.9779,0.052,-0.1688,-0.2765,63
30.386,586,9.4622,-1.2358,-11.5858,-0.1738,0.1713,0.1584,92,30.976,598,6.1183,1.9874,-16.0513,0.1164,-0.0855,-0.21,63
30.437,587,9.3076,-1.7059,-11.6362,-0.2117,0.134,0.1239,92,31.028,599,6.0682,2.0246,-16.0698,0.0892,-0.0141,-0.1501,63
30.489,588,9.199,-1.6642,-11.7077,-0.1058,0.0961,0.0271,92,31.08,600,6.1237,2.2045,-16.0956,0.1007,0.049,-0.1256,63
30.541,589,9.1078,-1.7991,-11.5422,0.0309,0.0387,-0.0632,92,31.132,601,6.1255,2.3214,-16.1412,0.0839,0.1332,-0.1113,63
30.593,590,9.3257,-1.3485,-11.6157,0.165,-0.0925,-0.1463,92,31.183,602,6.0726,2.4033,-16.2765,0.1282,0.219,-0.1291,63
30.645,591,9.4085,-1.2583,-11.7615,0.1699,-0.1316,-0.1433,92,31.235,603,6.0849,2.4168,-16.4858,0.0964,0.2418,-0.1919,63
30.696,592,9.5248,-0.8845,-11.8504,-0.0553,0.0178,0.0081,92,31.287,604,6.1088,2.301,-16.5241,-0.0211,0.2249,-0.2425,63
30.748,593,9.3981,-1.3255,-11.8498,-0.0761,0.0409,0.0184,92,31.339,605,6.1018,2.398,-16.4779,0.0394,0.2051,-0.2321,63
30.8,594,9.3703,-1.3316,-11.7517,-0.0252,0.0208,-0.0026,92,31.391,606,5.9707,2.3307,-16.3737,0.0871,0.1847,-0.2047,63
30.852,595,9.3556,-1.3838,-11.686,-0.0052,-0.0143,-0.0164,92,31.442,607,5.9554,2.3859,-16.3093,0.0138,0.1657,-0.1798,63
30.904,596,9.4181,-1.2344,-11.703,0.0697,-0.0263,-0.0425,92,31.494,608,6.056,2.5429,-16.262,0.0132,0.1252,-0.1502,63
30.956,597,9.4663,-1.1971,-11.6167,0.0893,-0.0441,-0.0424,92,31.546,609,6.2181,2.6647,-16.1557,0.0201,0.0751,-0.1129,63
31.007,598,9.4942,-1.0323,-11.6891,-0.0077,-0.0013,0.025,92,31.598,610,6.228,2.6936,-16.0164,0.0225,0.0631,-0.1026,63
31.059,599,9.4734,-1.2021,-11.7485,-0.0479,0.0444,0.0648,92,31.65,611,6.2177,2.6572,-15.9637,0.0453,0.0884,-0.1207,63
31.111,600,9.4068,-1.2674,-11.6311,0.0059,0.0526,0.0377,92,31.701,612,6.1899,2.6114,-16.0356,0.0467,0.1268,-0.136,63
31.163,601,9.365,-1.3689,-11.669,-0.0322,0.0159,0.009,92,31.753,613,6.2012,2.5757,-16.1091,0.0584,0.1355,-0.1259,63
31.214,602,9.4085,-1.4191,-11.7467,-0.0305,-0.0079,-0.0128,92,31.805,614,6.2548,2.491,-16.121,0.0795,0.1208,-0.1041,63
31.266,603,9.3788,-1.4687,-11.6793,0.0234,-0.0075,-0.0215,92,31.857,615,6.3688,2.6419,-16.2095,0.356,0.1035,-0.0749,63
31.318,604,9.3649,-1.4434,-11.6692,0.1317,-0.0296,-0.0602,92,31.908,616,6.3768,2.6219,-16.2882,0.4608,0.0644,-0.0661,63
31.37,605,9.3835,-1.3702,-11.7221,0.1438,-0.0886,-0.07,92,31.96,617,6.3383,2.5158,-16.3508,0.495,0.0092,-0.0555,63
31.422,606,9.4453,-1.2917,-11.852,0.0997,-0.0793,-0.0466,92,32.012,618,6.342,2.2771,-16.4031,0.5032,-0.039,-0.0252,63
31.473,607,9.4968,-1.1873,-11.8163,-0.0198,0.034,0.0483,92,32.064,619,6.3496,1.846,-16.4229,0.4722,-0.0863,-0.0038,63
31.525,608,9.3641,-1.3832,-11.7894,-0.0523,0.0571,0.069,92,32.116,620,6.55,1.6774,-16.433,0.4082,-0.1388,0.0406,63
31.577,609,9.3503,-1.4301,-11.8074,0.0089,0.0312,0.0217,92,32.167,621,6.4016,1.4128,-16.3737,0.2062,-0.1665,0.1247,63
31.629,610,9.3637,-1.4332,-11.7091,0.0611,0.0286,-0.0021,92,32.219,622,6.3872,1.1348,-16.0803,0.0882,-0.1404,0.1842,63
31.681,611,9.4048,-1.4049,-11.6955,0.1028,-0.0159,-0.0448,92,32.271,623,6.3567,1.026,-16.3019,0.2653,-0.0675,0.1244,63
31.732,612,9.4181,-1.2974,-11.68,0.1201,-0.0385,-0.0726,92,32.323,624,6.3416,1.3693,-16.4324,0.2987,-0.0215,0.068,63
31.784,613,9.3374,-1.4299,-11.5382,0.2024,-0.148,-0.167,92,32.375,625,5.9569,1.9879,-16.3386,0.2832,-0.0122,0.0455,63
31.836,614,9.4131,-1.3634,-11.7815,0.283,-0.2887,-0.2488,92,32.426,626,5.7797,2.6565,-16.1949,0.5074,-0.0026,-0.1356,63
31.888,615,9.5008,-0.9174,-11.6638,0.2476,-0.1614,-0.15,92,32.478,627,6.0223,2.4865,-15.9595,0.5897,0.0089,-0.4253,63
31.939,616,9.4174,-1.0732,-11.3628,0.1458,-0.1104,-0.079,92,32.53,628,6.0018,2.2814,-15.9874,0.3541,0.0415,-0.5961,63
31.991,617,9.4343,-0.8372,-11.4162,-0.0599,-0.1431,-0.0074,92,32.581,629,5.8731,1.7555,-16.2536,0.3479,0.0991,-0.5858,63
32.043,618,9.3872,-0.9499,-11.935,-0.072,-0.0579,0.0796,92,32.633,630,6.0531,0.6663,-17.3539,0.3364,0.0335,-0.4263,63
32.095,619,9.3291,-1.1604,-11.7935,0.001,-0.0687,0.0634,92,32.685,631,6.3959,0.1434,-17.2838,0.2457,-0.0696,-0.2575,63
32.147,620,9.2577,-1.3711,-11.8902,-0.0139,-0.1795,-0.0081,92,32.737,632,6.3702,0.0075,-17.5202,0.0668,-0.1534,-0.0702,63
32.199,621,9.3341,-0.9402,-12.0858,-0.0596,-0.2117,0.0026,92,32.789,633,6.1927,0.4468,-17.4932,0.0168,-0.2306,0.04,63
32.25,622,9.2293,-1.0276,-12.1215,-0.2073,-0.3012,0.0433,92,32.84,634,6.2704,0.6489,-17.3848,0.0156,-0.3472,0.1238,63
32.302,623,9.2288,-0.9542,-12.4821,-0.1772,-0.357,0.0587,92,32.892,635,5.9049,1.1083,-17.2043,-0.2326,-0.3921,0.2257,63
32.354,624,9.2238,-1.2649,-12.9352,-0.0653,-0.3885,0.0339,92,32.944,636,5.3974,0.9726,-16.9005,-0.1993,-0.3848,0.3029,63
32.406,625,9.3807,-0.9359,-13.1435,0.0712,-0.3882,0.0214,92,32.996,637,5.1983,0.9008,-16.6892,-0.2154,-0.2953,0.2379,63
32.458,626,9.1814,-1.3437,-13.2741,0.1986,-0.3343,0.0027,92,33.047,638,5.3053,0.7697,-16.754,-0.1117,-0.0681,0.1198,63
32.509,627,9.089,-1.3429,-13.2451,0.284,-0.2961,-0.0361,92,33.099,639,5.3421,0.5822,-17.0019,0.067,0.1767,-0.0344,63
32.561,628,8.3702,-1.4833,-16.3952,0.1774,-0.2335,-0.0848,92,33.151,640,5.2391,0.5404,-17.1422,0.0466,0.3783,-0.1709,63
32.613,629,8.64,-0.898,-15.7266,0.1962,-0.1393,-0.0283,92,33.203,641,5.6253,0.8858,-17.0876,0.1528,0.4662,-0.2349,63
32.665,630,8.596,-1.4036,-15.0417,0.2054,-0.002,0.0704,92,33.255,642,5.5977,1.0989,-17.1532,0.2379,0.489,-0.286,63
32.716,631,8.659,-1.4351,-14.4353,0.1699,0.0111,0.0671,92,33.307,643,5.9515,1.2492,-17.1481,0.1713,0.4097,-0.3052,63
32.768,632,8.9428,-1.0483,-14.137,0.0673,0.0709,0.1777,92,33.358,644,6.2638,1.4331,-16.9361,0.1689,0.2668,-0.2122,63
32.82,633,8.8735,-1.5311,-13.8473,-0.2728,0.0864,0.3631,92,33.41,645,6.3011,1.3156,-16.5549,0.0197,0.1519,-0.1401,63
32.872,634,8.7967,-1.9718,-13.8069,-0.411,0.0382,0.2804,92,33.462,646,6.3131,1.3236,-16.3848,0.0147,0.1034,-0.0801,63
32.924,635,8.7101,-2.1118,-13.9223,-0.4848,0.0826,0.1735,92,33.514,647,6.1886,1.4851,-16.3512,-0.0766,0.0568,-0.0006,63
32.975,636,8.2808,-2.7165,-14.0259,-0.3196,0.2373,0.0125,92,33.565,648,5.937,1.6326,-16.3443,-0.1468,0.0255,0.0464,63
33.027,637,8.7675,-1.8584,-13.3612,-0.0981,0.3933,-0.1933,92,33.617,649,5.9834,1.9661,-16.2985,-0.1314,0.0033,0.0705,63
33.079,638,8.8435,-1.8104,-13.1768,-0.1164,0.3412,-0.118,92,33.669,650,6.169,2.0302,-16.1439,-0.0812,0.0054,0.0522,63
33.131,639,9.0148,-1.5527,-13.0131,-0.0652,0.3103,-0.1346,92,33.721,651,6.3633,1.9531,-16.1912,-0.0733,0.0097,-0.0209,63
33.183,640,9.2009,-1.2665,-12.7928,-0.0272,0.2843,-0.0899,92,33.773,652,6.4744,1.6909,-16.1471,-0.0211,0.0182,-0.0667,63
33.235,641,9.2376,-0.5831,-12.6041,-0.2419,0.3231,0.0459,92,33.824,653,6.6573,1.5983,-16.1344,-0.0271,0.0247,-0.0529,63
33.286,642,8.9821,-1.2294,-12.599,-0.2505,0.294,0.0315,92,33.876,654,6.7064,1.5327,-16.0941,-0.109,0.03,-0.0209,63
33.338,643,8.9138,-1.3591,-12.4625,-0.0896,0.1897,-0.104,92,33.928,655,6.748,1.4657,-16.0288,-0.0581,0.0523,-0.0189,63
33.39,644,9.1362,-0.9792,-12.3454,0.0437,0.0593,-0.1886,92,33.98,656,6.5879,1.6623,-16.0446,-0.0303,0.0958,-0.017,63
33.442,645,9.1231,-1.0747,-12.2888,0.1431,-0.1168,-0.2515,92,34.031,657,6.5119,2.021,-16.1483,-0.0016,0.1369,-0.0048,63
33.493,646,9.3126,-0.56,-12.4392,0.166,-0.194,-0.2464,92,34.083,658,6.3413,2.285,-16.2112,0.0347,0.1226,-0.0302,63
33.545,647,9.3907,-0.3138,-12.4971,0.0218,-0.0797,-0.0227,92,34.135,659,6.3234,2.2271,-16.2235,0.1298,0.0726,-0.0702,63
33.597,648,9.3103,-1.0583,-12.1088,-0.0349,-0.0282,0.045,92,34.187,660,6.2633,1.5008,-16.356,0.2837,0.0011,-0.072,63
33.649,649,9.2642,-1.0645,-12.2309,-0.0515,-0.0014,0.0242,92,34.239,661,6.2624,1.0621,-16.4916,0.1083,-0.1219,0.0837,63
33.701,650,9.3021,-0.8957,-12.2058,-0.0256,-0.0068,-0.0151,92,34.29,662,6.377,0.8834,-16.4757,-0.1112,-0.1609,0.3653,63
33.753,651,9.2381,-1.0476,-12.2915,0.0757,-0.0198,-0.0677,92,34.342,663,6.3952,0.7622,-16.5314,-0.2209,-0.1499,0.4845,63
33.804,652,9.2344,-1.0125,-12.3064,0.1648,-0.0578,-0.1278,92,34.394,664,6.5211,0.9043,-16.7029,-0.2779,-0.1369,0.4621,63
33.856,653,9.2214,-0.8617,-12.2177,0.2174,-0.1974,-0.1801,92,34.446,665,6.4179,1.079,-16.7095,-0.197,-0.1289,0.408,63
33.908,654,9.1667,-0.6618,-12.537,0.224,-0.2779,-0.1546,92,34.497,666,6.2094,1.1477,-16.5639,-0.1485,-0.112,0.2966,63
33.96,655,9.1595,-0.6237,-12.4885,0.2324,-0.3368,-0.0782,92,34.549,667,6.2448,1.1976,-16.4853,-0.0937,-0.0702,0.188,63
34.011,656,9.0521,-0.6236,-12.8718,0.294,-0.2653,0.0286,92,34.601,668,6.2364,1.1849,-16.3562,-0.0624,-0.0044,0.1134,63
34.063,657,9.0806,-1.0003,-13.0404,0.3001,-0.2219,0.0781,92,34.653,669,6.1812,1.0078,-16.2403,-0.0567,0.0946,0.0244,63
34.115,658,9.1048,-1.0172,-13.2043,0.2463,-0.1371,0.0866,92,34.705,670,6.2605,1.0066,-16.2437,0.0074,0.2122,-0.0674,63
34.167,659,9.0823,-1.1464,-13.2607,0.1978,0.0229,0.1505,92,34.757,671,6.3149,1.1726,-16.2599,-0.0033,0.2804,-0.1584,63
34.219,660,9.0362,-1.3342,-13.0839,0.1438,0.1472,0.175,92,34.808,672,6.5746,1.2779,-16.1986,0.0771,0.3139,-0.2311,63
34.271,661,9.0446,-1.4026,-12.9226,0.037,0.169,0.1954,92,34.86,673,6.8534,1.2998,-16.0242,0.1738,0.3129,-0.2925,63
34.322,662,9.0612,-1.2963,-12.9232,-0.1311,0.2135,0.2591,92,34.912,674,6.8006,1.2488,-15.8566,0.2381,0.3474,-0.3434,63
34.374,663,9.0219,-1.2959,-12.9677,-0.2926,0.2207,0.2473,92,34.964,675,6.7069,1.4216,-15.8039,0.3089,0.354,-0.3531,63
34.426,664,9.0881,-1.3226,-12.8922,-0.3914,0.2049,0.2017,92,35.015,676,6.6743,1.5622,-15.6635,0.2412,0.3402,-0.2964,63
34.478,665,9.176,-1.2668,-12.8849,-0.4792,0.2227,0.1876,92,35.067,677,6.7067,1.3955,-15.2832,0.148,0.3492,-0.2179,63
34.529,666,9.2077,-1.3234,-12.9127,-0.6227,0.2608,0.1948,92,35.119,678,7.305,1.1441,-15.0264,-0.0166,0.3587,-0.0913,63
34.581,667,9.0944,-1.6961,-12.851,-0.6924,0.3284,0.2308,92,35.171,679,7.8264,0.6634,-14.7405,-0.3216,0.345,0.0609,63
34.633,668,8.6179,3.2248,-15.1014,-0.6943,0.3758,0.1853,92,35.223,680,7.7567,0.619,-14.7185,-0.3645,0.3029,0.2085,63
34.685,669,8.651,1.7481,-14.2392,-0.6621,0.3519,0.1073,92,35.274,681,7.6578,1.534,-15.1741,-0.4979,0.2813,0.3772,63
34.737,670,8.6141,1.0899,-13.7901,-0.2167,0.2899,-0.0633,92,35.326,682,7.2314,2.1532,-15.4108,-0.5556,0.1845,0.3847,63
34.788,671,9.2361,0.9384,-13.0097,-0.1248,0.2125,-0.0476,92,35.378,683,7.2914,2.3922,-15.2172,-0.4707,0.0777,0.2666,63
34.84,672,9.3205,0.3907,-12.7766,-0.2105,0.1482,0.0083,92,35.429,684,7.344,2.3603,-15.0635,-0.2856,-0.0106,0.1979,63
34.892,673,9.3534,0.4888,-12.4537,-0.182,0.0583,0.0023,92,35.481,685,7.431,2.0992,-14.8183,-0.2125,-0.0496,0.0903,63
34.944,674,9.1326,-0.0936,-12.1708,-0.1349,-0.2218,-0.1103,92,35.533,686,7.3202,1.8273,-14.7287,-0.1065,-0.0085,0.0264,63
34.995,675,8.2729,-2.4119,-13.4223,-0.2704,-0.3145,-0.1582,92,35.585,687,7.3392,1.7672,-14.7776,-0.0316,0.0246,-0.0043,63
35.047,676,10.4407,0.3172,-12.7865,0.1742,-0.1579,-0.4831,92,35.637,688,7.4197,1.6279,-14.6681,0.0164,0.0359,-0.0558,63
35.099,677,10.4413,1.0577,-12.9353,0.0766,-0.0973,-0.3022,92,35.688,689,7.587,1.6677,-14.5948,0.1016,0.0512,-0.0988,63
35.151,678,10.2351,0.6277,-12.7304,0.1177,-0.0079,-0.1378,92,35.74,690,7.6552,1.6908,-14.5428,0.0672,0.0487,-0.0954,63
35.203,679,9.927,0.4015,-12.6088,0.0358,0.0252,-0.0141,92,35.792,691,7.6399,1.6837,-14.4876,0.1016,0.0436,-0.0988,63
35.255,680,9.8154,0.1874,-12.6742,-0.0119,0.0562,0.045,92,35.844,692,7.7413,1.5935,-14.4261,0.093,0.0388,-0.1081,63
35.307,681,9.6162,-0.5311,-12.5377,-0.0885,0.0869,0.0944,92,35.895,693,7.744,1.6227,-14.4229,0.087,0.0331,-0.0938,63
35.358,682,9.421,-0.9921,-12.462,0.0958,0.0962,0.0502,92,35.947,694,7.6594,1.6861,-14.4377,0.0308,-0.0007,-0.068,63
35.41,683,9.5088,-0.5867,-12.3974,0.0882,0.0716,0.0457,92,35.999,695,7.6128,1.6562,-14.5303,0.0228,-0.049,-0.0411,63
35.462,684,9.418,-0.8084,-12.4402,0.0336,0.0375,0.0619,92,36.051,696,7.5995,1.6644,-14.6998,-0.0316,-0.0914,-0.0028,63
35.514,685,9.3201,-1.1858,-12.4222,0.0595,0.0447,0.0486,92,36.103,697,7.5319,1.6987,-14.8143,-0.0781,-0.1261,0.0325,63
35.566,686,9.3494,-1.1594,-12.3609,0.1552,0.0469,0.0146,92,36.155,698,7.5309,1.6559,-14.8097,-0.0855,-0.1389,0.0469,63
35.617,687,9.2828,-1.392,-12.2874,0.129,0.0605,0.0409,92,36.206,699,7.5147,1.6891,-14.8614,-0.0674,-0.1332,0.0429,63
35.669,688,9.2798,-1.4842,-12.2334,0.0994,0.0645,0.0524,92,36.258,700,7.4345,1.7807,-14.9218,-0.0783,-0.1183,0.0355,63
35.721,689,9.2815,-1.5662,-12.2291,0.1423,0.0698,0.0428,92,36.31,701,7.3407,1.7305,-14.9461,-0.0581,-0.1153,0.025,63
35.773,690,9.3495,-1.4134,-12.3026,0.2457,0.0996,0.0626,92,36.362,702,7.231,1.7484,-14.9851,-0.0354,-0.116,0.017,63
35.824,691,9.2994,-1.5721,-12.041,0.204,0.1567,0.147,92,36.414,703,7.2525,1.8149,-14.9849,0.0108,-0.1023,-0.0015,63
35.876,692,9.4033,-3.0842,-12.1548,0.1677,0.0926,0.0548,92,36.465,704,7.3228,1.7895,-14.9642,0.0321,-0.0792,-0.0242,63
35.928,693,9.5043,-2.3592,-11.9658,0.1228,0.0572,0.0362,92,36.517,705,7.3573,1.7133,-14.9414,0.0751,-0.0523,-0.0534,63
35.98,694,9.4412,-2.1924,-11.9821,0.0564,0.0513,0.0715,92,36.569,706,7.3663,1.7738,-14.9662,0.0878,-0.0271,-0.0774,63
36.032,695,9.4352,-2.0842,-11.838,0.0668,0.0529,0.0534,92,36.621,707,7.3407,1.7918,-14.9496,0.0893,-0.0192,-0.0954,63
36.083,696,9.297,-2.2889,-11.7323,0.13,0.0358,-0.0012,92,36.672,708,7.2862,1.8206,-14.9635,0.1044,-0.0209,-0.1077,63
36.135,697,9.4897,-1.6624,-11.7076,0.208,0.0019,-0.0524,92,36.724,709,7.2543,1.8551,-15.0083,0.0858,-0.0252,-0.1079,63
36.187,698,9.4612,-1.7006,-11.7052,0.1719,0.0024,-0.0131,92,36.776,710,7.2652,1.8728,-15.0235,0.0426,-0.0333,-0.0806,63
36.239,699,9.4372,-1.6667,-11.6563,0.0604,-0.0119,-0.0005,92,36.828,711,7.2831,1.8278,-15.062,0.0139,-0.0318,-0.0581,63
36.29,700,9.4694,-1.5464,-11.7259,-0.0605,-0.0005,0.0272,92,36.88,712,7.2878,1.7821,-15.1055,0.0148,-0.0246,-0.044,63
36.342,701,9.3708,-1.7014,-11.7102,-0.1532,0.0138,0.0265,92,36.931,713,7.27,1.7992,-15.1085,-0.0033,-0.0099,-0.0302,63
36.394,702,9.2674,-1.9869,-11.6389,-0.1216,0.0045,0.0017,92,36.983,714,7.1767,1.8031,-15.1231,-0.0048,0.0139,-0.0218,63
36.446,703,9.4931,-1.4166,-11.8261,0.1069,-0.0296,-0.0852,92,37.035,715,7.1377,1.7664,-15.1711,0.0057,0.0311,-0.015,63
36.498,704,9.5066,-1.4009,-11.7807,0.1038,-0.0307,-0.0599,92,37.087,716,7.1742,1.7965,-15.1898,0.0223,0.0364,0.0003,63
36.55,705,9.4498,-1.5466,-11.7738,0.103,-0.0412,-0.0493,92,37.138,717,7.2369,1.8525,-15.1998,0.013,0.0371,0.0107,63
36.601,706,9.4492,-1.4626,-11.7743,0.1283,-0.0371,-0.0376,92,37.19,718,7.2632,1.7807,-15.1744,0.0321,0.0429,0.0126,63
36.653,707,9.4574,-1.4152,-11.7512,0.0456,-0.0115,0.0095,92,37.242,719,7.2653,1.7653,-15.2008,0.0428,0.0349,0.0204,63
36.705,708,9.3831,-1.5118,-11.7724,-0.0046,-0.002,0.0302,92,37.294,720,7.261,1.8309,-15.1465,0.0378,0.0098,0.0309,63
36.757,709,9.3493,-1.5557,-11.7567,0.0167,-0.0009,0.011,92,37.346,721,7.1976,1.8983,-15.061,0.0167,-0.0002,0.043,63
36.809,710,9.4042,-1.5114,-11.7393,-0.0407,0.0181,0.0332,92,37.397,722,7.1982,1.8445,-14.9648,-0.0095,0.0221,0.0469,63
36.86,711,9.3774,-1.5638,-11.7476,-0.1074,0.0412,0.0505,92,37.449,723,7.2523,1.8237,-14.9355,-0.0188,0.0595,0.0346,63
36.912,712,9.3583,-1.6346,-11.7161,-0.0768,0.0365,0.0337,92,37.501,724,7.3264,1.8059,-14.9434,0.0057,0.093,0.0192,63
36.964,713,9.4249,-1.5282,-11.7168,-0.0763,0.0363,0.018,92,37.553,725,7.3028,1.8106,-14.9984,0.0185,0.0971,-0.0016,63
37.016,714,9.4268,-1.5265,-11.7017,-0.1082,0.0417,0.0277,92,37.605,726,7.3224,1.7894,-14.9875,0.057,0.0817,-0.0223,63
37.068,715,9.3722,-1.6062,-11.6824,-0.0942,0.0401,0.0264,92,37.657,727,7.3872,1.7977,-14.9301,0.0761,0.0623,-0.0345,63
37.119,716,9.3837,-1.5916,-11.6947,-0.04,0.0222,0.0021,92,37.708,728,7.4387,1.7928,-14.8455,0.0691,0.0481,-0.0247,63
37.171,717,9.4127,-1.5572,-11.6775,-0.0302,0.0235,-0.0036,92,37.76,729,7.4692,1.7644,-14.7494,0.0449,0.0443,-0.0106,63
37.223,718,9.3674,-1.5993,-11.6644,-0.0051,0.0142,-0.0199,92,37.812,730,7.395,1.6731,-14.6181,0.0305,0.0665,0.0024,63
37.275,719,9.312,-1.6846,-11.6439,0.0731,-0.0101,-0.0553,92,37.864,731,7.1339,1.4961,-14.4186,-0.0126,0.1425,0.0341,63
37.327,720,9.3627,-1.6041,-11.5833,0.1464,-0.0336,-0.0914,92,37.916,732,7.0586,1.3855,-14.2144,-0.1479,0.2804,0.0999,63
37.378,721,9.3708,-1.579,-11.5403,0.2508,-0.081,-0.1246,92,37.967,733,7.264,1.5905,-14.2927,-0.3004,0.4618,0.2012,63
37.43,722,9.4198,-1.4029,-11.6088,0.2537,-0.076,-0.1147,92,38.019,734,7.6342,1.676,-14.1486,-0.3477,0.5795,0.2987,63
37.482,723,9.4104,-1.4083,-11.5972,0.208,-0.0698,-0.0851,92,38.071,735,7.9996,1.7181,-14.0923,-0.3374,0.5978,0.3322,63
37.534,724,9.4304,-1.356,-11.6447,0.1646,-0.0656,-0.0657,92,38.123,736,8.2523,1.7407,-14.0224,-0.2327,0.5242,0.2959,63
37.586,725,9.4307,-1.335,-11.6834,0.1186,-0.0456,-0.0383,92,38.175,737,8.3027,1.5976,-13.7743,-0.2482,0.42,0.2188,63
37.637,726,9.4573,-1.2627,-11.7048,0.0792,-0.0266,-0.0146,92,38.226,738,8.2547,1.3502,-13.3362,-0.108,0.359,0.1802,63
37.689,727,9.4273,-1.3217,-11.6993,0.0299,-0.0144,0.0025,92,38.278,739,8.2645,1.2381,-12.9448,0.0048,0.3642,0.1715,63
37.741,728,9.41,-1.3623,-11.7288,0.0008,0.0125,0.0136,92,38.33,740,8.309,1.1607,-12.6393,0.0509,0.4521,0.178,63
37.793,729,9.4045,-1.3821,-11.7244,-0.011,0.0262,0.0074,92,38.382,741,8.383,1.0429,-12.404,0.1459,0.5554,0.196,63
37.845,730,9.3771,-1.391,-11.6984,-0.0157,0.033,0.0058,92,38.434,742,8.4848,0.8765,-12.1546,0.1763,0.6394,0.212,63
37.896,731,9.3791,-1.4024,-11.6906,0.0016,0.0479,0.0119,92,38.485,743,8.7346,0.875,-11.9796,0.0455,0.6888,0.2225,63
37.948,732,9.3689,-1.4131,-11.6227,0.0309,0.0439,0.0036,92,38.537,744,8.8493,0.9194,-11.6625,0.0422,0.6714,0.2088,63
38.0,733,9.3913,-1.3863,-11.6526,0.0564,0.0182,-0.0048,92,38.589,745,8.9736,0.872,-11.8311,0.3505,0.6036,0.1271,63
38.052,734,9.4012,-1.367,-11.6111,0.0639,0.0095,-0.0033,92,38.641,746,9.2262,1.1823,-11.6942,0.2416,0.5269,0.1101,63
38.104,735,9.4152,-1.3591,-11.6291,0.0532,0.0067,-0.0022,92,38.693,747,9.2145,1.1447,-11.0171,0.3039,0.5188,0.1169,63
38.155,736,9.4146,-1.3536,-11.6491,0.0415,0.012,-0.0039,92,38.744,748,9.1659,0.8964,-10.712,0.1226,0.4717,0.1009,63
38.207,737,9.4258,-1.3463,-11.6344,0.0337,0.0288,0.0072,92,38.796,749,9.1494,0.7397,-10.4427,0.0817,0.4461,0.0971,63
38.259,738,9.3993,-1.3996,-11.5947,0.021,0.0433,0.0126,92,38.848,750,9.1464,0.6602,-10.1544,0.061,0.4374,0.0961,63
38.311,739,9.4058,-1.4095,-11.5745,0.0127,0.0383,0.0028,92,38.9,751,9.1178,0.4551,-9.9122,0.0372,0.4377,0.0895,63
38.362,740,9.4365,-1.3672,-11.5821,-0.0025,0.0486,0.0038,92,38.952,752,9.0502,0.3567,-9.5796,0.0218,0.4225,0.0728,63
38.414,741,9.4264,-1.4569,-11.5189,-0.0284,0.0667,0.0077,92,39.003,753,8.9907,0.2741,-9.3294,-0.0001,0.3905,0.0473,63
38.466,742,9.4323,-1.4333,-11.4759,-0.0376,0.0538,-0.013,92,39.055,754,8.9725,0.2868,-9.1234,-0.0149,0.3552,0.0266,63
38.518,743,9.4389,-1.4486,-11.426,-0.053,0.0415,-0.0344,92,39.107,755,8.9876,0.2123,-8.933,-0.0317,0.3419,0.0079,63
38.57,744,9.4575,-1.3806,-11.4543,-0.0627,0.0491,-0.04,92,39.159,756,8.9563,0.199,-8.6897,-0.0433,0.3079,-0.0137,63
38.622,745,9.4505,-1.3503,-11.4024,-0.0753,0.0679,-0.0322,92,39.211,757,8.9522,0.1735,-8.5723,-0.0405,0.2596,-0.0297,63
38.673,746,9.451,-1.3628,-11.3536,-0.0769,0.0607,-0.0435,92,39.262,758,8.9203,0.1734,-8.4519,-0.0312,0.2168,-0.0424,63
38.725,747,9.4656,-1.3391,-11.3785,-0.0797,0.034,-0.0661,92,39.314,759,8.9355,0.1876,-8.3887,-0.0373,0.1791,-0.0507,63
38.777,748,9.4831,-1.2406,-11.3466,-0.0798,0.0164,-0.081,92,39.366,760,8.9086,0.2466,-8.2801,-0.0372,0.1601,-0.0552,63
38.829,749,9.4845,-1.2102,-11.3541,-0.0777,0.0146,-0.0887,92,39.418,761,8.9526,0.2331,-8.1746,-0.0407,0.1182,-0.0569,63
38.88,750,9.8869,-1.2125,-11.1775,-0.1149,0.0552,-0.0599,92,39.469,762,8.9251,0.2528,-8.1346,-0.036,0.0822,-0.0589,63
38.932,751,9.8062,-1.137,-11.2259,-0.0796,0.0568,-0.0648,92,39.521,763,8.9156,0.2887,-8.1079,-0.0415,0.0521,-0.0626,63
38.984,752,9.7397,-1.1116,-11.2491,-0.047,0.0509,-0.0723,92,39.573,764,8.9003,0.3178,-8.1055,-0.0328,0.0295,-0.0582,63
39.036,753,9.6857,-1.0461,-11.2528,-0.0283,0.0389,-0.0767,92,39.625,765,8.886,0.3597,-8.0939,-0.027,0.012,-0.0533,63
39.088,754,9.6592,-0.9961,-11.2422,-0.0152,0.0197,-0.0865,92,39.677,766,8.8778,0.4014,-8.0738,-0.0249,-0.0011,-0.0454,63
39.139,755,9.65,-0.9214,-11.2741,-0.0075,0.0043,-0.0866,92,39.728,767,8.8794,0.403,-8.0727,-0.0287,-0.0118,-0.0397,63
39.191,756,9.6051,-0.8768,-11.249,-0.009,-0.0053,-0.084,92,39.78,768,8.8854,0.4284,-8.095,-0.0286,-0.0175,-0.0371,63
39.243,757,9.5979,-0.8076,-11.2516,-0.0133,-0.0186,-0.0802,92,39.832,769,8.8651,0.4577,-8.0941,-0.0339,-0.0166,-0.0354,63
