right_leg_timestamp,right_leg_index,right_leg_accel_x,right_leg_accel_y,right_leg_accel_z,right_leg_gyro_x,right_leg_gyro_y,right_leg_gyro_z,right_leg_battery_percentage,left_leg_timestamp,left_leg_index,left_leg_accel_x,left_leg_accel_y,left_leg_accel_z,left_leg_gyro_x,left_leg_gyro_y,left_leg_gyro_z,left_leg_battery_percentage
0.291,5,9.1771,-2.7128,-11.4137,-0.1779,0.0458,0.1171,86,0.56,10,4.8354,-1.6925,-16.0525,-0.0425,-1.1365,-0.0004,51
0.342,6,9.1506,-2.5646,-11.413,-0.3495,0.1168,0.1501,86,0.612,11,3.8967,-2.0465,-16.9269,-0.2151,-1.0475,-0.1432,51
0.394,7,8.9731,-2.8312,-11.3714,-0.3835,0.0954,0.1393,86,0.664,12,4.1607,-1.7944,-17.2024,-0.0153,-0.9173,-0.2576,51
0.446,8,8.8235,-3.0246,-11.5138,-0.3758,0.0476,0.0898,86,0.715,13,4.3098,-1.8671,-17.4209,-0.0148,-0.771,-0.2515,51
0.498,9,8.9092,-2.9856,-11.5528,-0.3312,0.0304,0.0411,86,0.767,14,4.3607,-2.0221,-17.594,-0.0336,-0.6326,-0.1531,51
0.55,10,8.8942,-3.1515,-11.4948,-0.2999,0.0301,0.0418,86,0.819,15,4.1892,-1.9124,-17.7224,-0.0414,-0.4924,-0.0163,51
0.602,11,8.3284,-4.3412,-11.5263,-0.1344,0.0119,0.0413,86,0.871,16,4.0366,-1.926,-17.7563,-0.0724,-0.3411,0.1329,51
0.653,12,8.976,-3.3532,-11.3032,-0.1368,0.0189,0.0033,86,0.923,17,4.0159,-1.9824,-17.8388,-0.0518,-0.1682,0.2243,51
0.705,13,8.8072,-3.6299,-11.4561,-0.1944,-0.0079,0.037,86,0.974,18,3.9195,-2.1783,-18.0035,-0.0295,-0.017,0.2969,51
0.757,14,8.2046,-4.7049,-11.4887,0.0111,-0.0418,0.0221,86,1.026,19,4.0667,-2.5025,-18.3169,0.0895,0.1284,0.3329,51
0.809,15,8.891,-3.6506,-11.4076,0.0794,-0.0736,-0.0309,86,1.078,20,3.9593,-2.483,-18.3696,0.2744,0.2386,0.392,51
0.86,16,8.8974,-3.5184,-11.5949,-0.0674,-0.0107,0.032,86,1.13,21,3.7515,-2.4191,-18.5501,-0.0198,0.2288,0.5742,51
0.912,17,8.5835,-3.7337,-11.6336,0.0446,0.0086,0.0116,86,1.181,22,3.5625,-2.2433,-18.2439,0.022,0.2323,0.6681,51
0.964,18,9.0836,-3.288,-11.4044,0.1776,-0.0326,-0.0316,86,1.233,23,3.5454,-2.0653,-18.0358,-0.0394,0.2348,0.7026,51
1.016,19,8.845,-3.4446,-11.5816,0.4217,-0.0787,-0.028,86,1.285,24,3.6289,-1.9719,-17.3407,-0.0969,0.2884,0.6625,51
1.068,20,9.197,-3.0336,-11.4313,0.5486,-0.1177,-0.0727,86,1.337,25,2.932,-2.2749,-17.3163,-0.1844,0.6334,0.5628,51
1.119,21,9.5873,-2.9145,-11.1376,0.3972,-0.0518,-0.0448,86,1.389,26,3.6906,-2.2084,-17.719,-0.1252,0.7229,0.356,51
1.171,22,9.5754,-2.5352,-11.3101,0.1565,0.0284,-0.0221,86,1.44,27,4.0973,-2.4125,-18.2985,-0.0047,0.6622,0.1661,51
1.223,23,9.134,-3.1353,-11.393,0.0836,0.013,0.0155,86,1.492,28,4.615,-2.5447,-18.4785,-0.0672,0.5183,0.1026,51
1.275,24,9.3692,-3.1503,-11.1166,0.1193,-0.0151,0.025,86,1.544,29,4.858,-2.7381,-18.4077,-0.1403,0.3484,0.0528,51
1.327,25,9.3354,-2.9032,-11.2481,-0.0627,-0.0163,0.0196,86,1.596,30,5.0257,-3.0547,-18.0129,-0.1013,0.1252,-0.1258,51
1.378,26,9.2272,-2.9363,-11.4456,-0.1809,-0.0105,0.0571,86,1.648,31,5.2365,-2.6622,-18.097,-0.0875,-0.0275,-0.2728,51
1.43,27,9.0082,-3.2831,-11.4221,-0.119,-0.055,0.0424,86,1.699,32,5.0785,-2.8349,-18.0246,0.0008,-0.1176,-0.2787,51
1.482,28,9.1091,-3.181,-11.48,-0.0855,-0.0966,-0.0068,86,1.751,33,4.9482,-2.93,-17.7769,0.0732,-0.1684,-0.2754,51
1.534,29,9.0591,-3.154,-11.5705,-0.1176,-0.0979,-0.01,86,1.803,34,4.5258,-2.953,-17.5529,0.0149,-0.1469,-0.1887,51
1.586,30,8.6726,-3.6138,-11.6929,-0.0371,-0.164,-0.0653,86,1.855,35,3.9991,-2.9015,-17.5399,0.0984,-0.1266,-0.1829,51
1.637,31,8.9352,-3.4025,-11.4349,0.1588,-0.2634,-0.2493,86,1.907,36,3.7686,-2.4579,-17.6863,0.1223,-0.1505,-0.2527,51
1.689,32,8.8648,-2.9697,-11.8149,-0.1025,-0.2318,-0.184,86,1.958,37,4.0641,-2.3631,-17.9982,0.1957,-0.1635,-0.2702,51
1.741,33,8.8594,-2.9525,-12.0542,-0.1693,-0.276,-0.148,86,2.01,38,4.2487,-2.3707,-18.2022,0.1408,-0.1876,-0.1496,51
1.792,34,8.799,-3.014,-12.3456,-0.0665,-0.2467,-0.2227,86,2.062,39,4.3405,-2.4294,-18.2472,0.0663,-0.2327,-0.0193,51
1.844,35,9.0141,-2.7319,-12.2935,0.0711,-0.1975,-0.2404,86,2.114,40,4.3254,-2.5119,-18.2203,0.0044,-0.2564,0.0588,51
1.896,36,9.0427,-2.5953,-12.3676,0.0792,-0.1493,-0.154,86,2.165,41,4.3479,-2.5045,-18.1532,-0.0787,-0.2557,0.1439,51
1.948,37,8.9876,-2.615,-12.4436,0.0837,-0.0775,-0.0845,86,2.217,42,4.3449,-2.5714,-18.1129,-0.132,-0.2285,0.2149,51
2.0,38,8.8903,-2.6632,-12.4898,0.1902,-0.0414,-0.1028,86,2.269,43,4.3272,-2.6352,-18.0813,-0.1475,-0.1994,0.2318,51
2.052,39,9.0352,-2.4902,-12.3819,0.1518,0.018,-0.0371,86,2.321,44,4.1932,-2.5748,-18.0923,-0.1243,-0.1618,0.2119,51
2.104,40,8.9997,-2.5001,-12.4031,0.0929,0.0919,0.0405,86,2.372,45,4.0093,-2.5203,-18.0949,-0.1238,-0.1249,0.1986,51
2.155,41,8.9793,-2.5664,-12.3071,0.0478,0.1435,0.0776,86,2.424,46,3.8623,-2.4305,-18.1329,-0.1079,-0.1054,0.172,51
2.207,42,8.9657,-2.6809,-12.1852,0.0106,0.1618,0.0913,86,2.476,47,3.76,-2.347,-18.1429,-0.0877,-0.0851,0.1296,51
2.259,43,8.9648,-2.6854,-12.0879,-0.0197,0.1638,0.0953,86,2.528,48,3.7334,-2.3339,-17.9979,-0.0819,-0.0341,0.1087,51
2.31,44,8.9374,-2.8738,-12.0722,0.0308,0.143,0.0644,86,2.579,49,3.7679,-2.1482,-17.9969,-0.0642,0.0432,0.0614,51
2.362,45,8.8992,-2.8753,-12.0086,0.1991,0.1047,0.0002,86,2.631,50,3.9067,-2.1769,-17.9359,0.0516,0.1132,-0.0822,51
2.414,46,9.0495,-2.6465,-11.7995,0.2808,0.041,-0.038,86,2.683,51,4.0446,-2.2388,-18.0015,0.156,0.1911,-0.2955,51
2.466,47,9.0651,-2.3069,-11.8636,0.0837,0.132,0.0713,86,2.735,52,4.1502,-2.4678,-18.2414,0.1545,0.2248,-0.4015,51
2.518,48,8.9742,-2.6314,-11.7811,-0.0207,0.1367,0.093,86,2.787,53,4.2038,-2.5512,-18.3924,0.1691,0.1868,-0.4089,51
2.569,49,8.9263,-2.6998,-11.7634,-0.0477,0.1145,0.0639,86,2.838,54,4.2973,-2.6028,-18.3326,0.0917,0.1095,-0.3108,51
2.621,50,9.0078,-2.7173,-11.6438,-0.0248,0.0588,0.0409,86,2.89,55,4.2522,-2.5117,-18.2552,0.0065,0.0457,-0.1917,51
2.673,51,8.9671,-2.8295,-11.6275,-0.0605,0.0481,0.0454,86,2.942,56,4.1621,-2.4966,-18.2206,-0.0711,-0.0037,-0.0654,51
2.725,52,9.0276,-2.7787,-11.6395,-0.0439,0.0365,0.0453,86,2.994,57,4.161,-2.4999,-18.1484,-0.1116,-0.0381,0.0212,51
2.777,53,9.1689,-2.6998,-11.5262,-0.1185,0.0613,0.0674,86,3.045,58,4.1164,-2.4846,-18.1865,-0.1124,-0.0586,0.0784,51
2.828,54,9.0978,-2.7837,-11.6307,-0.1932,0.0609,0.0832,86,3.097,59,4.0508,-2.4621,-18.2382,-0.1251,-0.0711,0.1252,51
2.88,55,9.0586,-2.9182,-11.646,-0.2062,0.0685,0.0727,86,3.149,60,3.8407,-2.3394,-18.265,-0.1356,-0.094,0.1961,51
2.932,56,8.9646,-3.0025,-11.6473,-0.1573,0.054,0.039,86,3.201,61,3.7428,-2.3463,-18.1397,-0.1839,-0.1196,0.3078,51
2.984,57,8.9135,-3.0408,-11.6582,-0.0554,0.0308,0.0359,86,3.253,62,3.6887,-2.2881,-17.8991,-0.2701,-0.1036,0.4601,51
3.035,58,8.8932,-3.0613,-11.6952,0.0783,-0.0148,0.0191,86,3.305,63,3.6123,-2.3443,-18.1083,-0.2833,-0.0672,0.5631,51
3.087,59,8.9926,-2.9341,-11.6326,0.0323,0.0044,0.0288,86,3.356,64,3.6434,-2.3162,-18.4044,-0.2679,-0.036,0.6043,51
3.139,60,8.9407,-3.0415,-11.6817,-0.024,-0.0023,0.0433,86,3.408,65,3.6269,-2.2332,-18.5689,-0.2292,-0.0433,0.5811,51
3.191,61,8.9949,-2.9454,-11.6776,-0.0022,0.0185,0.0382,86,3.46,66,3.6548,-2.2126,-18.5701,-0.1602,-0.0719,0.4649,51
3.243,62,9.0157,-2.8913,-11.5479,-0.0752,0.0262,0.0475,86,3.512,67,3.5936,-2.1453,-18.5276,-0.0986,-0.0812,0.3131,51
3.294,63,9.0526,-2.8807,-11.6431,-0.1867,0.021,0.0568,86,3.563,68,3.4519,-2.141,-18.4707,-0.0172,-0.0724,0.1578,51
3.346,64,9.062,-2.9434,-11.6719,-0.2339,0.0223,0.0409,86,3.615,69,3.375,-2.1236,-18.423,-0.004,-0.0688,0.0636,51
3.398,65,9.0653,-3.0433,-11.721,-0.2493,0.0167,0.008,86,3.667,70,3.6591,-2.0779,-18.4629,0.0158,-0.0686,0.0156,51
3.45,66,8.9868,-3.0653,-11.7606,-0.2407,0.0098,-0.0121,86,3.719,71,3.5737,-2.1304,-18.3469,0.0147,-0.0747,0.0243,51
3.502,67,8.9641,-3.084,-11.7725,-0.1479,0.005,-0.0192,86,3.771,72,3.5989,-2.377,-18.3375,-0.0685,-0.0386,0.0767,51
3.554,68,8.9711,-3.0533,-11.7884,-0.0847,-0.0011,-0.0194,86,3.822,73,3.4555,-2.4609,-18.3454,-0.066,0.0078,0.0902,51
3.605,69,8.9859,-3.0825,-11.7956,-0.0697,0.0041,-0.0046,86,3.874,74,3.3768,-2.3891,-18.3839,-0.0558,0.0407,0.1151,51
3.657,70,8.7386,-3.1209,-11.8132,0.1264,-0.0131,-0.0123,86,3.926,75,3.4093,-2.3408,-18.7196,-0.0773,0.0299,0.1231,51
3.709,71,8.8652,-3.0197,-11.8225,0.0926,-0.0513,0.0118,86,3.978,76,3.5141,-2.2911,-19.1582,-0.0544,-0.0345,0.0914,51
3.761,72,8.9959,-2.8506,-11.8027,0.0356,-0.0341,0.0292,86,4.029,77,3.4674,-2.3616,-19.6129,-0.0561,-0.1584,0.0648,51
3.813,73,9.0087,-2.8888,-11.837,-0.0062,-0.0238,0.0237,86,4.081,78,3.3396,-2.2757,-19.8894,-0.0433,-0.354,-0.0215,51
3.864,74,8.9698,-2.987,-11.8761,-0.0239,0.0057,0.0401,86,4.133,79,3.1294,-2.1022,-19.7412,-0.0301,-0.5491,-0.0629,51
3.916,75,8.8638,-3.2293,-11.8508,0.0769,0.0076,0.0154,86,4.185,80,2.6721,-2.2629,-19.6234,0.0629,-0.6677,-0.0742,51
3.968,76,9.0655,-2.8698,-11.7981,0.0225,0.006,0.0101,86,4.237,81,2.6714,-2.1857,-19.2451,0.0435,-0.7367,-0.0821,51
4.02,77,9.0334,-2.9398,-11.8214,-0.0512,0.0198,0.0323,86,4.288,82,2.3023,-2.1498,-18.9745,-0.0366,-0.7172,-0.0381,51
4.072,78,9.0308,-2.9756,-11.8064,-0.0404,0.039,0.0248,86,4.34,83,1.9474,-1.9852,-18.7461,-0.0491,-0.594,-0.0276,51
4.123,79,9.1049,-2.8,-11.7393,-0.0633,0.0534,0.0324,86,4.392,84,1.606,-1.8321,-18.72,-0.1016,-0.4424,-0.0218,51
4.175,80,9.0571,-2.9364,-11.7426,-0.105,0.0636,0.0386,86,4.444,85,1.354,-2.17,-18.7178,-0.1367,-0.3666,0.0066,51
4.227,81,8.9937,-3.0325,-11.7065,-0.1482,0.0603,0.0494,86,4.495,86,1.0662,-2.0436,-18.749,-0.2006,-0.2641,0.0587,51
4.279,82,8.9701,-3.1471,-11.719,-0.0972,0.0438,0.0345,86,4.547,87,0.7644,-1.9371,-18.7902,-0.1776,-0.2105,0.0833,51
4.33,83,9.0163,-3.0366,-11.6982,-0.1038,0.0367,0.0154,86,4.599,88,0.5693,-1.8006,-18.7767,-0.1552,-0.1917,0.1041,51
4.382,84,8.8628,-3.4344,-11.6532,-0.049,0.0303,-0.0031,86,4.651,89,0.4167,-1.7064,-18.7576,-0.1504,-0.1676,0.1441,51
4.434,85,9.2205,-2.2261,-12.003,0.2921,-0.0131,-0.0475,86,4.703,90,0.446,-1.7966,-18.8803,-0.1004,-0.1546,0.1144,51
4.486,86,9.2892,-2.0789,-11.9399,0.1478,-0.0656,-0.0122,86,4.755,91,0.3369,-1.7583,-19.0148,-0.0984,-0.1199,0.0582,51
4.538,87,9.2344,-2.3005,-11.982,-0.0211,-0.0444,0.0521,86,4.806,92,0.1854,-1.6012,-19.3775,-0.1138,-0.0667,0.0445,51
4.589,88,9.0132,-2.7474,-11.995,-0.0159,-0.0238,0.0437,86,4.858,93,0.5063,-1.5868,-19.4491,-0.2359,-0.1071,0.0959,51
4.641,89,9.1302,-2.5206,-11.9215,-0.0483,-0.0083,0.0106,86,4.91,94,0.4251,-1.5753,-19.4363,-0.1705,-0.1188,0.0518,51
4.693,90,9.061,-2.5538,-11.9437,-0.1113,0.0175,0.0385,86,4.962,95,0.3352,-1.4937,-19.4587,-0.1772,-0.0802,0.1127,51
4.745,91,8.817,-3.2813,-11.865,-0.0961,0.0229,0.0402,86,5.013,96,0.3556,-1.4551,-19.4793,-0.1051,-0.0916,0.0878,51
4.796,92,8.2128,-4.1112,-12.0133,0.3425,-0.0379,-0.01,86,5.065,97,0.275,-1.2584,-19.3115,-0.0441,-0.0338,0.0135,51
4.848,93,8.6606,-3.4321,-11.7333,0.4697,-0.1014,-0.0758,86,5.117,98,0.3728,-1.2319,-19.4179,-0.0341,0.0219,-0.1407,51
4.9,94,8.8608,-3.2329,-11.9004,0.2177,-0.0937,-0.0546,86,5.169,99,0.4086,-1.0307,-19.5567,-0.0436,0.1092,-0.2159,51
4.952,95,8.8878,-3.2863,-11.9914,0.0829,-0.068,-0.0641,86,5.22,100,0.361,-0.9983,-19.7627,-0.086,0.1277,-0.2078,51
5.004,96,8.7132,-3.6286,-11.8695,0.1204,-0.0245,-0.0728,86,5.272,101,0.3426,-1.0939,-19.6772,-0.091,0.0534,-0.0965,51
5.056,97,9.0774,-2.7998,-11.6366,0.1206,-0.0408,-0.108,86,5.324,102,0.436,-1.0701,-19.4822,-0.0694,0.0385,0.0203,51
5.108,98,9.0394,-2.8475,-11.8297,0.0571,-0.0599,-0.0623,86,5.376,103,0.4239,-0.9745,-19.4934,-0.0473,0.0398,0.1424,51
5.159,99,9.0374,-2.9344,-11.8021,0.0269,-0.0267,-0.0156,86,5.427,104,0.6406,-1.2443,-19.5796,-0.027,0.0228,0.1685,51
5.211,100,9.1175,-2.7903,-11.8427,-0.096,0.0161,0.0282,86,5.479,105,0.5733,-1.3074,-19.6661,-0.0032,0.0228,0.128,51
5.263,101,8.9874,-2.9022,-11.7809,-0.1995,0.0271,0.0792,86,5.531,106,0.4391,-1.5349,-19.7292,0.0256,0.0385,0.1951,51
5.315,102,8.7483,-3.2795,-11.8298,-0.1607,-0.0132,0.0379,86,5.583,107,0.5995,-2.0492,-19.7118,0.1103,0.0082,0.2936,51
5.366,103,8.9926,-2.9664,-11.8752,-0.1082,-0.02,-0.0138,86,5.635,108,0.6456,-1.9341,-19.6024,0.1757,-0.0046,0.4483,51
5.418,104,9.0789,-2.8699,-11.9117,-0.1071,0.008,0.0217,86,5.686,109,0.7407,-1.6366,-19.5299,0.2416,-0.0272,0.5595,51
5.47,105,9.0094,-2.9785,-11.9184,-0.0678,0.0447,0.0016,86,5.738,110,0.6556,-1.3996,-19.4249,0.2021,-0.0319,0.5638,51
5.522,106,9.0949,-2.7,-11.8691,-0.0157,0.0696,0.0063,86,5.79,111,0.6898,-1.225,-19.3232,0.1479,-0.003,0.4357,51
5.574,107,9.0932,-2.7213,-11.7423,-0.0434,0.0779,0.012,86,5.842,112,0.7085,-1.2872,-19.342,0.0419,0.046,0.295,51
5.625,108,8.9134,-3.1852,-11.7472,-0.0086,0.0629,-0.0045,86,5.893,113,0.625,-1.3167,-19.3863,-0.0385,0.0874,0.1957,51
5.677,109,8.699,-3.533,-11.7283,0.2805,0.0034,-0.0474,86,5.945,114,0.5106,-1.3874,-19.1976,-0.0473,0.085,0.0377,51
5.729,110,9.2955,-2.3294,-11.49,0.2474,-0.0498,-0.0661,86,5.997,115,0.6118,-1.441,-19.3041,-0.0949,0.0616,-0.1582,51
5.781,111,9.3077,-2.3415,-11.598,-0.0418,-0.0227,0.0189,86,6.049,116,0.7176,-1.116,-19.755,-0.1205,0.0822,-0.2418,51
5.832,112,9.1572,-2.6809,-11.7312,-0.1759,0.0055,0.0571,86,6.1,117,0.5754,-1.5478,-20.1225,-0.1837,0.0569,-0.2697,51
5.884,113,9.0177,-3.0059,-11.7456,-0.2013,0.0637,0.0467,86,6.152,118,0.5526,-1.7291,-19.9277,-0.1526,-0.0633,-0.3092,51
5.936,114,9.0593,-2.775,-11.678,-0.2219,0.0819,0.0572,86,6.204,119,0.3727,-1.6206,-19.5061,-0.0939,-0.0952,-0.3059,51
5.988,115,8.9299,-3.0204,-11.7027,-0.2498,0.0415,0.0478,86,6.256,120,0.2883,-1.5216,-19.1023,-0.1004,-0.1095,-0.2711,51
6.04,116,8.8349,-3.2859,-11.7965,-0.1696,0.0348,0.0296,86,6.308,121,0.3707,-1.6374,-19.1156,-0.0661,-0.0762,-0.2325,51
6.091,117,8.6604,-3.0686,-11.9858,0.2975,-0.0291,-0.002,86,6.359,122,0.3689,-1.7016,-19.5446,-0.0256,-0.0603,-0.2426,51
6.143,118,9.1398,-2.6125,-11.7971,0.5086,-0.1229,0.0259,86,6.411,123,0.3075,-1.5009,-20.0257,0.0985,-0.0339,-0.2541,51
6.195,119,9.0014,-2.8149,-11.5747,0.5029,-0.1508,0.004,86,6.463,124,0.3016,-1.3904,-19.9389,0.1749,-0.1567,-0.3378,51
6.247,120,9.1061,-2.7782,-11.6804,0.3894,-0.1081,-0.0325,86,6.515,125,0.8403,-1.3351,-19.5655,0.1806,-0.2383,-0.4134,51
6.299,121,8.9889,-2.6364,-11.8989,0.0919,0.0867,0.0162,86,6.566,126,0.5847,-1.264,-19.3006,0.2028,-0.0505,-0.3624,51
6.35,122,8.8337,-3.0037,-11.8348,0.0578,0.1181,0.0133,86,6.618,127,0.3538,-1.1861,-19.1889,0.1426,-0.0024,-0.2922,51
6.402,123,9.1113,-2.9312,-11.4499,0.0399,0.115,0.0144,86,6.67,128,0.2612,-1.3813,-19.0805,0.1198,-0.0878,-0.298,51
6.454,124,9.0248,-3.005,-11.3646,-0.1343,0.0948,0.0381,86,6.722,129,0.7759,-1.434,-19.0237,0.0776,-0.141,-0.3394,51
6.506,125,8.9165,-3.2602,-11.4454,-0.1678,0.082,0.0643,86,6.774,130,0.7161,-1.3869,-19.3663,0.0662,0.0811,-0.2987,51
6.558,126,8.7678,-3.4628,-11.4535,-0.0413,0.0712,0.0274,86,6.825,131,0.5782,-0.8689,-19.5324,0.101,0.1466,-0.2896,51
6.609,127,9.0997,-2.849,-11.4977,0.1503,0.0296,0.0227,86,6.877,132,0.519,-1.2713,-19.5423,-0.0331,0.0363,-0.2598,51
6.661,128,9.0127,-3.115,-11.4145,0.159,0.0041,0.026,86,6.929,133,0.6031,-1.4421,-19.5508,-0.0579,0.006,-0.1512,51
6.713,129,8.9314,-3.3375,-11.3353,0.1665,-0.007,0.0146,86,6.98,134,0.5493,-1.3959,-19.5601,-0.0537,0.002,-0.0821,51
6.765,130,8.9692,-3.1989,-11.2514,0.0979,-0.0168,0.0156,86,7.032,135,0.7264,-1.5466,-19.5247,-0.0365,-0.0755,-0.0473,51
6.817,131,9.3666,-3.4017,-11.0165,-0.1196,0.1157,0.0921,86,7.084,136,0.7515,-1.5387,-19.446,0.0876,-0.0323,-0.1048,51
6.868,132,9.3351,-3.2417,-11.1202,-0.2811,0.0936,0.0808,86,7.136,137,1.0242,-1.4507,-19.4023,0.1489,0.0089,-0.159,51
6.92,133,9.2176,-3.3239,-11.2718,-0.3652,0.0984,0.091,86,7.188,138,0.6965,-1.6611,-19.6744,0.1578,0.1487,-0.1644,51
6.972,134,9.0933,-3.4193,-11.2938,-0.3639,0.0831,0.0626,86,7.239,139,0.4309,-1.9508,-19.5367,0.158,0.0167,-0.1258,51
7.024,135,8.9304,-3.5695,-11.3132,-0.2794,0.0676,0.0524,86,7.291,140,0.5415,-1.7382,-19.3904,0.116,-0.0873,-0.0396,51
7.075,136,8.8934,-3.691,-11.3247,-0.2168,0.0393,0.041,86,7.343,141,0.5215,-1.87,-19.2357,0.1085,-0.0441,0.0355,51
7.127,137,8.8495,-3.6662,-11.3804,-0.0867,0.0225,0.0193,86,7.395,142,0.6275,-1.762,-19.2078,0.0649,-0.039,0.079,51
7.179,138,8.919,-3.5077,-11.3887,-0.0771,0.0099,0.0161,86,7.446,143,0.6394,-1.8473,-19.3737,0.0284,0.0373,0.1056,51
7.231,139,8.8367,-3.6441,-11.4144,-0.0584,0.0047,0.0104,86,7.498,144,0.4804,-1.8511,-19.4614,0.0152,0.0244,0.1308,51
7.283,140,8.2656,-4.1796,-11.3898,0.2141,-0.0442,-0.0145,86,7.55,145,0.4433,-1.7518,-19.624,0.0153,0.0491,0.109,51
7.335,141,8.546,-3.1841,-11.4534,0.5468,-0.1978,-0.095,86,7.602,146,0.0515,-1.9196,-19.2526,0.0574,0.1748,-0.032,51
7.386,142,8.7656,-3.182,-11.2569,0.5023,-0.2876,-0.0765,86,7.654,147,0.1563,-1.3985,-19.4895,0.1749,-0.0214,-0.2513,51
7.438,143,8.8106,-3.3097,-11.5329,0.3316,-0.2226,-0.0678,86,7.706,148,0.3833,-1.2384,-19.6589,0.0539,-0.3017,-0.3818,51
7.49,144,8.8004,-3.2872,-11.5247,0.3225,-0.2066,-0.0664,86,7.757,149,1.1635,-2.1785,-19.4457,-0.0776,-0.4551,-0.3823,51
7.542,145,9.164,-3.1315,-11.3073,0.1167,-0.0932,-0.0292,86,7.809,150,0.943,-2.1621,-19.3928,-0.0776,-0.2517,-0.372,51
7.593,146,9.1226,-3.0953,-11.5118,-0.0573,-0.0475,-0.0186,86,7.861,151,0.8918,-2.2014,-19.3278,-0.0426,-0.1848,-0.3159,51
7.645,147,8.9856,-3.2652,-11.6257,-0.0516,-0.0042,-0.0134,86,7.913,152,0.7027,-2.2327,-19.3404,-0.0522,-0.0533,-0.1737,51
7.697,148,8.6851,-3.6662,-11.6485,0.086,-0.0233,-0.0143,86,7.965,153,0.3915,-2.3458,-19.3789,0.0421,0.054,-0.0135,51
7.749,149,9.2643,-2.7686,-11.511,0.3131,-0.1399,-0.1224,86,8.016,154,0.0015,-2.6742,-19.4631,0.2233,0.0474,0.0243,51
7.801,150,9.4663,-2.6817,-11.4879,0.2243,-0.1756,-0.0801,86,8.068,155,0.0502,-2.5262,-19.541,0.3649,-0.1122,0.0437,51
7.852,151,9.3053,-2.9427,-11.7336,-0.0444,-0.0934,-0.0193,86,8.12,156,0.2606,-2.4454,-19.5562,0.3446,-0.1624,0.1079,51
7.904,152,9.1376,-3.0643,-11.8839,-0.104,-0.0447,-0.0323,86,8.172,157,0.2383,-2.3954,-19.5928,0.3204,-0.0821,0.1819,51
7.956,153,9.0725,-3.0318,-11.8473,-0.0344,0.0057,-0.0208,86,8.223,158,0.0759,-2.3398,-19.5028,0.2066,-0.0855,0.2701,51
8.008,154,9.0526,-2.9975,-11.8044,0.0007,0.0046,-0.0175,86,8.275,159,0.0715,-2.3746,-19.335,0.1673,-0.1293,0.2871,51
8.06,155,9.5325,-2.6817,-11.6556,0.0667,-0.0288,-0.0196,86,8.327,160,0.151,-2.2661,-19.2329,0.107,-0.1296,0.2531,51
8.111,156,9.5241,-2.6648,-11.6868,-0.0855,0.0837,0.0455,86,8.379,161,0.2699,-2.3033,-19.2054,0.0498,-0.0508,0.2024,51
8.163,157,9.3296,-2.8802,-11.798,-0.0611,0.1036,0.033,86,8.43,162,0.1883,-2.1719,-19.4054,0.0338,0.068,0.1573,51
8.215,158,9.1438,-3.0131,-11.7264,0.0533,0.0824,0.0227,86,8.482,163,0.0841,-1.9902,-19.4828,-0.0037,0.1121,0.102,51
8.267,159,9.1111,-3.1284,-11.6757,0.0086,0.0643,0.021,86,8.534,164,0.0752,-2.096,-19.3863,-0.0905,0.0019,-0.0608,51
8.319,160,9.1253,-2.8727,-11.7522,-0.1568,0.1239,0.0462,86,8.586,165,0.8574,-2.5719,-19.3817,-0.1509,-0.0252,-0.2259,51
8.37,161,9.0823,-2.9491,-11.7105,-0.2827,0.107,0.0709,86,8.638,166,0.5971,-2.7385,-19.5293,-0.1262,0.1923,-0.3219,51
8.422,162,9.0691,-2.9936,-11.7742,-0.3507,0.0872,0.0592,86,8.689,167,0.2699,-2.9483,-19.5196,-0.1336,0.2019,-0.3234,51
8.474,163,9.0736,-2.9234,-11.8329,-0.3833,0.1059,0.0653,86,8.741,168,0.307,-3.0065,-19.4179,-0.1548,0.0782,-0.2174,51
8.526,164,8.93,-3.0901,-11.8314,-0.3896,0.1112,0.0634,86,8.793,169,0.2672,-2.9174,-19.2069,-0.1289,0.113,-0.0742,51
8.578,165,8.7461,-3.3773,-11.8473,-0.3409,0.1015,0.0438,86,8.845,170,0.1456,-2.5903,-19.091,-0.0673,0.1159,0.0967,51
8.629,166,8.685,-2.9532,-11.7658,0.0762,0.0609,-0.0845,86,8.896,171,0.1316,-2.2436,-19.0328,-0.1778,0.0707,0.2222,51
8.681,167,9.8088,-2.0293,-11.3723,0.1864,-0.0212,-0.101,86,8.948,172,0.3058,-2.4089,-19.258,-0.2166,-0.0234,0.2671,51
8.733,168,9.3917,-2.3889,-11.6738,-0.0079,-0.0414,-0.0432,86,9.0,173,0.5547,-2.1163,-19.4464,-0.237,0.0553,0.3222,51
8.784,169,8.9836,-3.0895,-11.7883,0.0203,-0.0506,-0.0552,86,9.052,174,0.4194,-1.5622,-19.5834,-0.3715,0.2559,0.5698,51
8.836,170,8.9231,-3.127,-11.6045,0.5299,-0.2497,-0.1564,86,9.104,175,0.1552,-1.5575,-19.6077,-0.4672,0.2771,0.6442,51
8.888,171,9.0511,-3.1574,-12.0149,0.6073,-0.306,-0.288,86,9.156,176,0.0446,-1.5242,-19.5124,-0.381,0.1067,0.5325,51
8.94,172,9.3683,-2.5137,-11.9941,0.4769,-0.2818,-0.2131,86,9.207,177,0.2505,-1.1938,-19.4942,-0.2753,-0.1081,0.275,51
8.992,173,9.5085,-2.4696,-11.8111,0.2312,-0.1466,-0.0687,86,9.259,178,0.7224,-1.2272,-19.5789,-0.2772,-0.1765,0.0556,51
9.043,174,9.3505,-2.4643,-11.8795,0.0704,-0.058,-0.0187,86,9.311,179,0.7061,-1.3086,-19.7194,-0.1973,0.05,-0.0454,51
9.095,175,9.2028,-2.7239,-11.9383,0.0098,0.0152,-0.0046,86,9.363,180,0.4846,-1.2915,-19.713,-0.1509,0.1233,-0.0226,51
9.147,176,8.9288,-3.1743,-11.8628,0.0917,0.0321,0.0054,86,9.414,181,0.3861,-1.4119,-19.6032,-0.1171,-0.0041,-0.0037,51
9.199,177,9.3849,-2.6782,-11.5331,0.1176,0.0082,-0.0247,86,9.466,182,0.5209,-1.4431,-19.4781,-0.0738,-0.1322,-0.0031,51
9.251,178,9.2693,-2.7483,-11.6186,0.0167,0.0269,0.0182,86,9.518,183,0.7654,-1.2266,-19.5729,-0.009,-0.0415,0.052,51
9.302,179,9.2401,-2.7728,-11.6401,-0.0335,0.0395,0.0201,86,9.57,184,0.6929,-1.2174,-19.648,0.0088,0.0595,0.0899,51
