right_leg_timestamp,right_leg_index,right_leg_accel_x,right_leg_accel_y,right_leg_accel_z,right_leg_gyro_x,right_leg_gyro_y,right_leg_gyro_z,right_leg_battery_percentage,left_leg_timestamp,left_leg_index,left_leg_accel_x,left_leg_accel_y,left_leg_accel_z,left_leg_gyro_x,left_leg_gyro_y,left_leg_gyro_z,left_leg_battery_percentage
0.037,0,9.6686,0.212,-11.6346,-0.1055,-0.0384,-0.1612,80,0.145,2,8.3285,3.1352,-10.9267,0.0617,-0.1471,-0.2898,52
0.089,1,9.7114,0.3731,-11.5831,-0.2277,-0.0619,-0.1915,80,0.197,3,8.2293,3.5481,-11.2013,0.1686,-0.2735,-0.3279,52
0.141,2,9.866,0.4868,-11.528,-0.383,-0.2792,-0.2922,80,0.249,4,8.1862,3.548,-11.4101,0.1832,-0.26,-0.328,52
0.192,3,10.3862,1.89,-13.1116,-0.9124,-0.7076,-0.3631,80,0.3,5,8.0664,3.6609,-11.5222,0.1552,-0.2262,-0.306,52
0.244,4,9.9767,2.1663,-14.2382,-0.6557,-1.1898,-0.6608,80,0.352,6,8.0196,3.7189,-11.606,0.1158,-0.1796,-0.2727,52
0.296,5,9.2209,2.3612,-14.5296,-0.3249,-1.5418,-0.8558,80,0.404,7,7.9518,3.7706,-11.684,0.1171,-0.1528,-0.2534,52
0.348,6,8.5121,2.3037,-14.5412,-0.2133,-1.796,-0.8992,80,0.456,8,7.8899,3.7915,-11.7713,0.1068,-0.1363,-0.2274,52
0.4,7,8.0583,2.5822,-14.4483,-0.189,-1.9819,-0.8654,80,0.508,9,7.7907,3.9692,-11.8825,0.0866,-0.1004,-0.1631,52
0.451,8,7.8989,2.7234,-14.6142,-0.2327,-1.9628,-0.7423,80,0.559,10,7.7374,4.0457,-11.9144,0.0307,-0.0545,-0.0851,52
0.503,9,7.2054,2.8506,-15.4312,-0.1553,-1.7914,-0.632,80,0.611,11,7.7695,4.0894,-11.9585,0.0015,-0.0208,-0.0238,52
0.555,10,6.3694,2.9524,-16.2513,-0.0632,-1.6111,-0.5015,80,0.663,12,7.6902,3.9618,-11.7792,-0.049,0.0673,0.0527,52
0.607,11,5.7794,3.1397,-16.373,-0.1374,-1.3838,-0.3523,80,0.715,13,7.789,4.0164,-11.8102,-0.0201,0.0639,0.0566,52
0.659,12,5.1551,3.1214,-16.3494,-0.1282,-1.0856,-0.2545,80,0.767,14,7.8808,3.9433,-11.7937,-0.0339,0.1876,0.0823,52
0.71,13,4.6128,3.2569,-16.5464,0.0032,-0.7822,-0.1723,80,0.818,15,7.8953,3.9135,-11.7273,-0.0485,0.1312,0.0835,52
0.762,14,4.309,3.2947,-16.8514,0.1067,-0.4661,-0.0946,80,0.87,16,7.897,3.9065,-11.5677,-0.0307,0.0847,0.0788,52
0.814,15,4.1542,3.1642,-17.1,0.1274,-0.1946,-0.0295,80,0.922,17,7.9198,3.8632,-11.5524,0.0009,0.0168,0.0082,52
0.866,16,4.0887,3.1524,-17.4769,0.2481,0.0281,0.0566,80,0.974,18,7.9243,3.9575,-11.5749,0.0513,-0.0158,-0.0791,52
0.918,17,4.0758,3.1562,-17.8985,0.2112,0.1929,0.1304,80,1.026,19,7.8751,4.0078,-11.6493,0.0428,-0.0456,-0.0542,52
0.969,18,4.0907,2.9706,-18.0238,0.101,0.2714,0.1783,80,1.077,20,7.8882,3.9947,-11.6621,0.0143,-0.065,-0.0621,52
1.021,19,4.1388,2.9913,-18.3108,0.1231,0.3173,0.1791,80,1.129,21,7.8716,4.0097,-11.6965,0.0054,-0.0414,-0.0642,52
1.073,20,4.2436,3.0104,-18.3353,0.0919,0.304,0.151,80,1.181,22,7.8703,4.0344,-11.6964,0.0301,-0.0266,-0.0398,52
1.125,21,4.3271,2.9632,-18.354,0.0789,0.2752,0.1069,80,1.233,23,7.8537,4.0451,-11.7205,0.025,-0.0102,-0.0348,52
1.177,22,4.3725,2.9732,-18.2742,0.1161,0.2411,0.0297,80,1.284,24,7.8446,4.0594,-11.7124,0.01,0.0064,-0.0536,52
1.228,23,4.4835,2.97,-18.2112,0.1369,0.2,-0.0168,80,1.336,25,7.8256,4.077,-11.7017,0.0021,0.0028,-0.0566,52
1.28,24,4.5631,2.9699,-18.3145,0.1119,0.1573,-0.0167,80,1.388,26,7.7992,4.1189,-11.6992,-0.0026,0.001,-0.0636,52
1.332,25,4.5348,2.9476,-18.3012,0.0145,0.0977,-0.0164,80,1.44,27,7.7924,4.1483,-11.6962,-0.011,-0.0129,-0.0883,52
1.384,26,4.5367,2.8934,-18.2097,-0.013,0.0451,-0.019,80,1.492,28,7.7826,4.1777,-11.7115,-0.0086,-0.0351,-0.0994,52
1.436,27,4.6266,2.8924,-18.1381,-0.0089,0.005,-0.0231,80,1.543,29,7.7488,4.2548,-11.7115,-0.0112,-0.0432,-0.1089,52
1.487,28,4.7265,2.8869,-18.0514,-0.0233,-0.0172,-0.0327,80,1.595,30,7.7802,3.9487,-11.8425,-0.0214,-0.0367,-0.1006,52
1.539,29,4.7837,2.8516,-17.9839,-0.0313,-0.0168,-0.0433,80,1.647,31,7.7213,4.1095,-11.8637,-0.0255,-0.0,-0.088,52
1.591,30,4.8415,2.8509,-17.9512,0.0078,-0.0161,-0.0539,80,1.699,32,7.7118,4.221,-11.8408,-0.0453,0.0705,-0.0137,52
1.643,31,4.8522,2.8251,-17.9444,0.0061,-0.0085,-0.0609,80,1.751,33,7.7128,4.2657,-11.7953,-0.0304,0.0367,0.0016,52
1.695,32,4.8219,2.8057,-17.8903,0.0223,-0.0001,-0.063,80,1.802,34,7.7014,4.3004,-11.7534,-0.0278,0.0331,0.0099,52
1.746,33,4.8262,2.8054,-17.8716,0.0128,0.0203,-0.0448,80,1.854,35,7.701,4.3065,-11.7284,-0.0224,0.0264,0.0279,52
1.798,34,4.8375,2.8092,-17.8469,0.0111,0.0441,-0.0412,80,1.906,36,7.6955,4.3252,-11.7053,-0.0174,0.0281,0.0302,52
1.85,35,4.8361,2.8455,-17.8626,0.0408,0.0647,-0.0409,80,1.958,37,7.7137,4.3167,-11.6724,-0.0119,0.0255,0.0408,52
1.902,36,4.8699,2.8962,-17.8756,0.0273,0.0673,-0.0281,80,2.009,38,7.7213,4.3148,-11.6602,-0.0094,0.0255,0.0464,52
1.954,37,4.8885,2.8482,-17.8973,0.0005,0.0729,-0.0185,80,2.061,39,7.7115,4.2867,-11.6382,-0.0079,0.0181,0.0422,52
2.006,38,4.8729,2.8151,-17.909,-0.006,0.0797,-0.0137,80,2.113,40,7.7138,4.2832,-11.6375,0.0001,0.0046,0.0373,52
2.057,39,4.8959,2.8383,-17.9183,0.0098,0.0673,-0.0078,80,2.165,41,7.723,4.2747,-11.6404,0.0112,-0.0094,0.027,52
2.109,40,4.9116,2.8505,-17.9236,0.0167,0.051,-0.0052,80,2.217,42,7.7329,4.2771,-11.6714,0.0216,-0.0156,0.0308,52
2.161,41,4.9304,2.8745,-17.9062,0.0088,0.0331,0.0013,80,2.268,43,7.7363,4.2525,-11.6889,0.0183,-0.0117,0.0355,52
2.213,42,4.9271,2.8763,-17.8801,0.0013,0.0191,0.0064,80,2.32,44,7.7589,4.2654,-11.6939,0.0114,-0.0013,0.0362,52
2.265,43,4.9532,2.8698,-17.887,0.003,0.0095,0.0027,80,2.372,45,7.763,4.2317,-11.689,-0.0068,0.0165,0.0526,52
2.316,44,4.9728,2.8595,-17.8825,-0.0028,-0.0019,0.0019,80,2.423,46,7.7182,4.2119,-11.6451,-0.0018,0.0156,0.0642,52
2.368,45,4.9843,2.8712,-17.8563,0.0008,-0.0132,0.0035,80,2.475,47,7.7393,4.1847,-11.6532,0.0369,-0.026,0.0249,52
2.42,46,4.9836,2.8952,-17.8013,-0.003,-0.0178,0.0081,80,2.527,48,7.6748,4.1078,-11.6963,0.042,-0.0534,-0.0375,52
2.472,47,4.9625,2.885,-17.772,-0.0068,-0.0116,0.0115,80,2.579,49,7.7013,4.1708,-11.7639,0.062,-0.069,-0.057,52
2.523,48,4.9547,2.8705,-17.7929,0.0022,0.007,0.0021,80,2.631,50,7.6801,4.2161,-11.838,0.064,-0.0476,-0.0281,52
2.575,49,4.9394,2.8563,-17.8446,0.009,0.0182,-0.0058,80,2.682,51,7.6922,4.2403,-11.9133,0.0382,0.019,0.0378,52
2.627,50,4.9645,2.8649,-17.8863,-0.0035,0.0129,-0.0005,80,2.734,52,7.6925,4.1435,-11.8282,-0.0026,0.0777,0.1228,52
2.679,51,4.9898,2.8519,-17.9245,-0.0042,0.0054,0.0051,80,2.786,53,7.7314,4.0821,-11.8282,0.0039,0.0397,0.1245,52
2.731,52,4.9587,2.8797,-17.8813,0.0202,0.0001,-0.0084,80,2.838,54,7.7688,4.0355,-11.8022,0.0039,0.0254,0.1031,52
2.782,53,4.9797,2.9284,-17.748,0.0242,-0.004,-0.0176,80,2.889,55,7.8024,3.9936,-11.7949,-0.0025,0.0234,0.0862,52
2.834,54,5.0293,2.9016,-17.6214,0.0272,0.0099,-0.0032,80,2.941,56,7.8135,3.9522,-11.7798,-0.0002,0.006,0.0702,52
2.886,55,5.0397,2.8739,-17.6027,0.0086,0.0368,0.0252,80,2.993,57,7.8473,3.9268,-11.7893,0.0144,-0.0085,0.0428,52
2.938,56,5.0545,2.7881,-17.7407,-0.0311,0.0674,0.0567,80,3.045,58,7.8614,3.905,-11.8,0.0205,-0.0131,0.0229,52
2.99,57,5.0276,2.763,-17.8717,-0.035,0.0864,0.0737,80,3.097,59,7.8674,3.9055,-11.8131,0.0275,-0.0171,0.019,52
3.041,58,4.9949,2.7689,-17.9018,-0.0486,0.0765,0.0885,80,3.148,60,7.8727,3.8977,-11.833,0.0157,-0.0073,0.0133,52
3.093,59,5.0036,2.7895,-17.9049,-0.0406,0.0547,0.0871,80,3.2,61,7.8698,3.8911,-11.8361,-0.0065,0.0032,0.006,52
3.145,60,5.0352,2.809,-17.8876,-0.0243,0.0319,0.0715,80,3.252,62,7.8811,3.872,-11.8147,-0.0323,0.015,-0.0032,52
3.197,61,5.06,2.8446,-17.859,-0.0183,0.0182,0.0631,80,3.304,63,7.863,3.8912,-11.7941,-0.015,0.0081,-0.0162,52
3.249,62,5.0842,2.8881,-17.8343,-0.0159,0.0029,0.0582,80,3.356,64,7.8419,3.9019,-11.805,-0.0107,0.004,-0.044,52
3.3,63,5.1372,2.8893,-17.7683,-0.0218,-0.011,0.0496,80,3.407,65,7.8402,3.9597,-11.7956,-0.02,-0.0005,-0.0831,52
3.352,64,5.1717,2.8705,-17.7245,-0.0134,-0.0131,0.0371,80,3.459,66,7.8366,3.9906,-11.8084,-0.0298,0.0093,-0.1047,52
3.404,65,5.173,2.8774,-17.7314,-0.0044,-0.0161,0.0142,80,3.511,67,7.806,4.078,-11.8055,-0.0315,0.0232,-0.0615,52
3.456,66,5.1497,2.8408,-17.731,0.0056,-0.0204,-0.0153,80,3.563,68,7.7786,4.0951,-11.784,-0.0789,0.0198,0.0123,52
3.508,67,5.1534,2.8784,-17.7604,0.0314,-0.0321,-0.0458,80,3.615,69,7.8104,4.0403,-11.7103,-0.1196,0.0211,0.048,52
3.559,68,5.1153,2.8041,-17.7981,0.0332,-0.0426,-0.0659,80,3.666,70,7.8565,3.9909,-11.6963,-0.1233,-0.0259,0.1037,52
3.611,69,5.0509,2.8178,-17.8084,0.0635,-0.0453,-0.0932,80,3.718,71,7.8669,3.94,-11.6417,-0.0926,-0.0379,0.1093,52
3.663,70,5.0479,2.7834,-17.7984,0.0841,-0.0503,-0.1036,80,3.77,72,7.8764,3.9194,-11.6541,-0.0605,-0.0428,0.0694,52
3.715,71,5.1429,2.7974,-17.7697,0.0541,-0.055,-0.0767,80,3.822,73,7.8922,3.9058,-11.6595,-0.0415,-0.0442,0.0319,52
3.767,72,5.172,2.779,-17.7171,0.0092,-0.0479,-0.0185,80,3.873,74,7.9005,3.8126,-11.6437,0.0158,-0.0428,-0.0249,52
3.818,73,5.0772,2.7014,-17.6837,-0.0508,-0.0209,0.0546,80,3.925,75,7.8688,3.9382,-11.7318,0.1112,-0.0438,-0.0619,52
3.87,74,5.0255,2.6803,-17.7272,-0.0761,0.0045,0.105,80,3.977,76,7.856,3.9502,-11.7771,0.0983,-0.0192,-0.059,52
3.922,75,5.0276,2.6765,-17.8255,-0.0712,0.0118,0.1204,80,4.029,77,7.8508,3.9822,-11.8413,0.0752,-0.0003,-0.0701,52
3.974,76,5.0379,2.6998,-17.8655,-0.0483,0.0098,0.1059,80,4.081,78,7.8372,4.0055,-11.8307,0.0526,0.0202,-0.0496,52
4.026,77,5.043,2.7608,-17.8581,-0.0255,-0.0037,0.0882,80,4.132,79,7.8389,4.0253,-11.8213,0.0331,0.0275,-0.0211,52
4.077,78,5.0104,2.8077,-17.8251,-0.0135,-0.0186,0.0634,80,4.184,80,7.8409,4.0219,-11.8033,-0.0002,0.0337,0.0007,52
4.129,79,5.075,2.8949,-17.7947,0.0106,-0.0274,0.0334,80,4.236,81,7.8366,4.0159,-11.7759,-0.0236,0.0337,0.0121,52
4.181,80,5.1214,2.9552,-17.7686,0.0283,-0.0238,0.0112,80,4.288,82,7.8443,4.0069,-11.7534,-0.0154,0.027,0.0196,52
4.233,81,5.0809,2.9932,-17.757,0.0357,-0.0055,-0.0309,80,4.339,83,7.8518,4.0055,-11.74,-0.0008,0.0134,0.0284,52
4.285,82,5.0634,2.9744,-17.7458,0.0287,0.0021,-0.0611,80,4.391,84,7.8541,3.9876,-11.7268,0.0097,0.0044,0.0232,52
4.336,83,5.0509,2.8865,-17.775,0.0173,0.0083,-0.0816,80,4.443,85,7.8567,3.9812,-11.7358,0.0301,-0.004,0.006,52
4.388,84,5.0317,2.7972,-17.7833,0.0234,0.0152,-0.0941,80,4.495,86,7.8682,3.9987,-11.7454,0.0322,-0.0002,0.0141,52
4.44,85,5.0183,2.7418,-17.7902,0.0177,0.0168,-0.0847,80,4.547,87,7.8992,3.9984,-11.7579,0.0166,0.0052,0.034,52
4.492,86,5.046,2.7148,-17.8085,0.0059,0.0098,-0.0507,80,4.598,88,7.8964,3.9363,-11.7561,-0.0202,0.0059,0.07,52
4.543,87,5.0701,2.7152,-17.807,-0.0067,0.002,-0.0096,80,4.65,89,7.9139,3.9026,-11.7344,-0.043,-0.0068,0.0784,52
4.595,88,5.0707,2.7364,-17.7836,-0.0102,-0.0003,0.021,80,4.702,90,7.9143,3.8838,-11.7109,-0.0581,-0.0038,0.0759,52
4.647,89,5.0698,2.7857,-17.7807,0.0053,-0.0008,0.0287,80,4.754,91,7.9243,3.8463,-11.7274,-0.0288,-0.0122,0.0776,52
4.699,90,5.0969,2.8378,-17.7696,0.0137,-0.0039,0.0245,80,4.806,92,7.9596,3.8247,-11.7409,-0.0504,0.0043,0.0916,52
4.751,91,5.1011,2.8731,-17.749,0.009,-0.0045,0.0115,80,4.857,93,7.9455,3.8829,-11.6926,-0.0739,0.008,0.0953,52
4.803,92,5.0573,2.8848,-17.7705,0.0011,0.001,0.0039,80,4.909,94,7.991,3.7564,-11.624,-0.1364,0.0047,0.103,52
4.854,93,5.0177,2.826,-17.7965,-0.0005,0.0065,-0.0009,80,4.961,95,7.9946,3.8394,-11.6708,-0.1393,0.0203,0.127,52
4.906,94,5.0103,2.7887,-17.831,-0.017,0.0001,0.0084,80,5.013,96,8.0207,3.709,-11.6004,-0.1414,0.0272,0.1647,52
4.958,95,5.0428,2.7713,-17.8283,-0.0338,-0.0161,0.0308,80,5.064,97,8.01,3.6338,-11.5856,-0.132,0.0345,0.1783,52
5.01,96,5.054,2.7871,-17.8085,-0.0495,-0.0233,0.0671,80,5.116,98,8.0594,3.5427,-11.5822,-0.1187,0.0287,0.1865,52
5.062,97,5.0161,2.8083,-17.7921,-0.0794,-0.0188,0.1043,80,5.168,99,8.1009,3.3858,-11.5127,-0.1013,0.0443,0.1476,52
5.113,98,5.01,2.8949,-17.8205,-0.0985,-0.0166,0.1332,80,5.22,100,8.1047,3.2594,-11.4364,-0.0573,0.0191,0.0804,52
5.165,99,5.0215,2.929,-17.867,-0.1302,-0.034,0.1438,80,5.271,101,8.1298,3.26,-11.4281,0.0092,-0.0132,0.0115,52
5.217,100,5.0588,2.9211,-17.8293,-0.1803,-0.0572,0.1601,80,5.323,102,8.1415,3.3146,-11.4898,0.0241,-0.0231,-0.0292,52
5.269,101,5.0956,2.9255,-17.7541,-0.2008,-0.0587,0.1619,80,5.375,103,8.1693,3.2268,-11.466,0.0644,-0.0345,-0.0706,52
5.321,102,5.1543,2.8898,-17.6986,-0.1696,-0.0461,0.1326,80,5.427,104,8.1533,3.3793,-11.5754,0.1816,-0.0524,-0.0725,52
5.372,103,5.1751,2.855,-17.6461,-0.1358,-0.0191,0.0831,80,5.478,105,8.1281,3.436,-11.6799,0.1807,-0.0472,-0.0474,52
5.424,104,5.1713,2.8438,-17.5849,-0.0702,0.0204,0.0275,80,5.53,106,8.1317,3.4138,-11.7351,0.154,-0.034,-0.0294,52
5.476,105,5.1564,2.8675,-17.5801,-0.0063,0.063,-0.01,80,5.582,107,8.1228,3.4204,-11.7191,0.1606,-0.0741,-0.059,52
5.528,106,5.1204,2.924,-17.6484,0.0234,0.0978,-0.0097,80,5.634,108,8.113,3.412,-11.8341,0.1593,-0.0814,-0.0823,52
5.579,107,4.9964,3.0034,-17.7208,0.0072,0.0971,0.018,80,5.686,109,8.0945,3.5361,-11.9298,0.1421,-0.0288,-0.0436,52
5.631,108,5.073,3.0478,-17.7147,-0.0015,0.056,0.0469,80,5.737,110,8.0785,3.532,-12.0171,0.0741,0.0854,0.0156,52
5.683,109,5.2706,3.0872,-17.6778,-0.0187,0.0242,0.0811,80,5.789,111,8.1112,3.5611,-11.8347,-0.0494,0.1509,0.1189,52
5.735,110,5.3523,3.111,-17.6009,-0.0244,0.0161,0.0884,80,5.841,112,8.1589,3.3786,-11.7308,-0.1498,0.1338,0.1927,52
5.787,111,5.4094,3.0921,-17.508,0.0182,0.0257,0.0511,80,5.893,113,8.1712,3.1769,-11.5774,-0.1261,0.1032,0.1601,52
5.838,112,5.4184,3.1075,-17.4498,0.0914,0.0473,-0.0115,80,5.945,114,8.1182,3.1537,-11.5487,0.0508,0.0464,0.0909,52
5.89,113,5.3768,3.1209,-17.4028,0.1175,0.0695,-0.0642,80,5.996,115,8.1119,3.1359,-11.664,0.0273,0.0673,0.1075,52
5.942,114,5.3165,3.0825,-17.419,0.1167,0.0962,-0.1086,80,6.048,116,8.1593,3.1605,-11.6469,0.0122,0.0378,0.0796,52
5.994,115,5.3229,3.0106,-17.5343,0.1111,0.1244,-0.1455,80,6.1,117,8.1323,3.1026,-11.5926,-0.0471,0.0313,0.044,52
6.045,116,5.3642,2.9595,-17.5947,0.0383,0.1219,-0.1168,80,6.152,118,8.1808,3.2356,-11.6458,-0.1344,-0.0002,0.0369,52
6.097,117,5.3177,2.7816,-17.6269,-0.0387,0.1008,-0.0611,80,6.204,119,8.2235,3.207,-11.5579,-0.1313,0.0163,0.0551,52
6.149,118,5.3212,2.6116,-17.5796,-0.0233,0.0694,-0.0486,80,6.255,120,8.2719,3.102,-11.5249,-0.1453,0.0222,0.0616,52
6.201,119,5.4624,2.658,-17.5709,0.0369,0.0489,-0.025,80,6.307,121,8.2892,3.1012,-11.4712,-0.1241,0.0251,0.0547,52
6.253,120,5.5056,2.7685,-17.5951,0.0325,0.0384,0.0113,80,6.359,122,8.2858,3.0601,-11.4138,-0.1104,0.0166,0.0352,52
6.305,121,5.4525,2.8589,-17.6016,0.0153,0.0173,0.043,80,6.411,123,8.297,3.0427,-11.3823,-0.093,0.0018,0.0136,52
6.357,122,5.3169,3.0031,-17.5904,-0.0107,-0.0036,0.0586,80,6.462,124,8.3025,3.0286,-11.3361,-0.06,-0.0213,-0.0195,52
6.408,123,5.3104,3.0591,-17.5796,-0.0802,-0.0354,0.0884,80,6.514,125,8.2302,3.1228,-11.4419,0.1154,-0.0765,-0.128,52
6.46,124,5.3366,3.022,-17.6147,-0.1293,-0.0567,0.088,80,6.566,126,8.1949,3.3381,-11.5372,0.1876,-0.1208,-0.134,52
6.512,125,5.4244,2.999,-17.6224,-0.1413,-0.087,0.0766,80,6.618,127,8.1816,3.3353,-11.6236,0.1676,-0.1081,-0.0968,52
6.564,126,5.5082,2.9584,-17.5738,-0.1295,-0.126,0.0515,80,6.67,128,8.1872,3.287,-11.6841,0.1362,-0.1219,-0.0796,52
6.615,127,5.5293,2.9052,-17.4303,-0.1159,-0.1449,0.0324,80,6.721,129,8.1821,3.2698,-11.7531,0.1187,-0.1403,-0.077,52
6.667,128,5.5157,2.8511,-17.2793,-0.0967,-0.1223,0.0267,80,6.773,130,8.1103,3.3722,-11.8476,0.1031,-0.1085,-0.0565,52
6.719,129,5.4957,2.7753,-17.2134,-0.042,-0.0781,0.0065,80,6.825,131,8.13,3.335,-11.8966,0.0495,-0.011,-0.0202,52
6.771,130,5.6021,2.881,-17.2566,0.0,-0.0169,0.0534,80,6.877,132,8.131,3.342,-11.878,-0.0093,0.0569,0.0619,52
6.823,131,5.6412,3.0698,-17.3388,-0.0556,0.0265,0.1598,80,6.928,133,8.1684,3.2061,-11.8122,-0.0958,0.0566,0.0464,52
6.874,132,5.5905,3.1247,-17.3782,-0.115,0.0462,0.2215,80,6.98,134,8.1753,3.204,-11.7706,-0.0849,0.016,0.0118,52
6.926,133,5.4386,3.135,-17.3481,-0.1036,0.0608,0.2178,80,7.032,135,8.1644,3.1824,-11.744,-0.0534,-0.008,-0.0334,52
6.978,134,5.3254,3.0985,-17.3927,-0.0782,0.0783,0.1741,80,7.084,136,8.1583,3.2286,-11.7844,0.0029,-0.0256,-0.0577,52
7.03,135,5.2963,3.1005,-17.4829,-0.0332,0.0778,0.1134,80,7.136,137,8.1618,3.2494,-11.8009,0.0069,-0.0225,-0.0522,52
7.081,136,5.3851,3.1321,-17.5573,-0.0307,0.043,0.0746,80,7.187,138,8.1521,3.2527,-11.818,0.0097,-0.0344,-0.052,52
7.133,137,5.5298,3.0845,-17.5867,-0.0722,0.0021,0.0745,80,7.239,139,8.1358,3.2686,-11.8456,0.0104,-0.0424,-0.0597,52
7.185,138,5.5748,2.9827,-17.5169,-0.1027,-0.0368,0.0851,80,7.291,140,8.1265,3.3417,-11.8513,0.0132,-0.0523,-0.0739,52
7.237,139,5.5596,2.921,-17.4065,-0.0921,-0.0599,0.0763,80,7.342,141,8.11,3.3791,-11.9079,0.0238,-0.0627,-0.0926,52
7.289,140,5.617,2.9187,-17.2987,-0.0585,-0.0625,0.0655,80,7.394,142,8.0987,3.4017,-11.9693,0.0224,-0.0536,-0.0917,52
7.34,141,5.654,2.991,-17.238,-0.0514,-0.0423,0.0821,80,7.446,143,8.0663,3.4627,-11.9855,0.0175,-0.0243,-0.0825,52
7.392,142,5.6534,3.0406,-17.2533,-0.0728,-0.0069,0.1065,80,7.498,144,8.0491,3.475,-11.9852,-0.0031,0.0177,-0.0601,52
7.444,143,5.6362,3.0945,-17.2969,-0.0603,0.0156,0.1012,80,7.55,145,8.0393,3.505,-11.9795,-0.0091,0.0489,-0.0278,52
7.496,144,5.64,3.1503,-17.3227,-0.02,0.018,0.0563,80,7.601,146,8.0505,3.4745,-11.9058,-0.0216,0.1213,0.0417,52
7.548,145,5.6554,3.1794,-17.2769,0.0142,0.0176,0.0118,80,7.654,147,8.0998,3.4326,-11.8272,-0.0318,0.1117,0.0653,52
7.599,146,5.6892,3.1734,-17.2162,0.0205,0.0205,-0.0134,80,7.705,148,8.0918,3.4111,-11.7659,-0.0537,0.1057,0.1079,52
7.651,147,5.6843,3.1085,-17.158,0.033,0.03,-0.033,80,7.757,149,8.1252,3.333,-11.6723,-0.0775,0.074,0.0763,52
7.703,148,5.6859,3.0203,-17.1242,0.0427,0.0495,-0.0464,80,7.809,150,8.1416,3.2717,-11.653,-0.0431,0.0378,0.048,52
7.755,149,5.7214,2.9757,-17.1283,0.0493,0.0666,-0.0472,80,7.86,151,8.146,3.2581,-11.6432,0.0285,0.0154,0.0144,52
7.807,150,5.7737,2.9334,-17.1719,0.0213,0.0681,-0.0191,80,7.912,152,8.1451,3.2604,-11.6663,0.0663,-0.0295,0.0156,52
7.858,151,5.7973,2.8777,-17.2242,-0.0005,0.0718,0.0073,80,7.964,153,8.1788,3.2674,-11.7238,0.0629,-0.0558,0.0074,52
7.91,152,5.8881,2.8683,-17.2668,-0.0255,0.0655,0.0451,80,8.016,154,8.1571,3.2654,-11.7588,0.0488,-0.0664,-0.0101,52
7.962,153,5.8486,2.8697,-17.2542,-0.0385,0.0635,0.0623,80,8.068,155,8.1451,3.2568,-11.806,0.0456,-0.0817,-0.0387,52
8.014,154,5.7691,2.8838,-17.213,-0.021,0.0618,0.0612,80,8.119,156,8.1082,3.3013,-11.8429,0.0392,-0.0805,-0.0668,52
8.066,155,5.7509,2.9123,-17.239,0.0271,0.0558,0.0431,80,8.171,157,8.08,3.3422,-11.8811,0.0269,-0.0622,-0.0822,52
8.117,156,5.8266,2.977,-17.3209,0.082,0.0249,0.0388,80,8.223,158,8.0722,3.3719,-11.9405,0.0174,-0.0516,-0.0835,52
8.169,157,5.8669,2.979,-17.2905,0.0468,-0.0119,0.0573,80,8.275,159,8.0516,3.4179,-11.9633,0.001,-0.0241,-0.0804,52
8.221,158,5.8578,2.9185,-17.206,0.0412,-0.0267,0.0553,80,8.326,160,8.0359,3.4716,-11.9852,-0.0219,0.0068,-0.0687,52
8.273,159,5.8853,2.8826,-17.1084,0.0461,-0.0124,0.0329,80,8.378,161,8.0328,3.4989,-11.9378,-0.0319,0.0527,-0.0233,52
