right_leg_timestamp,right_leg_index,right_leg_accel_x,right_leg_accel_y,right_leg_accel_z,right_leg_gyro_x,right_leg_gyro_y,right_leg_gyro_z,right_leg_battery_percentage,left_leg_timestamp,left_leg_index,left_leg_accel_x,left_leg_accel_y,left_leg_accel_z,left_leg_gyro_x,left_leg_gyro_y,left_leg_gyro_z,left_leg_battery_percentage
0.163,3,9.4032,-1.2893,-11.4169,0.0796,-0.2236,-0.047,93,0.046,0,8.9253,-0.2636,-11.2406,-0.1539,-0.3709,0.189,63
0.215,4,9.8732,-1.2931,-11.1335,0.0386,-0.545,-0.093,93,0.098,1,8.7015,-0.1972,-11.6976,-0.2006,-0.4811,0.1794,63
0.266,5,10.8279,-1.1237,-11.3273,-0.1683,-0.7993,-0.1336,93,0.15,2,8.4453,-0.1684,-11.9766,-0.2021,-0.5397,0.1378,63
0.318,6,7.8914,-1.082,-11.0886,0.4003,-0.3997,-0.1094,93,0.201,3,8.2973,0.0645,-12.0548,-0.2287,-0.5427,0.0786,63
0.37,7,7.3228,-1.5214,-12.8223,0.9687,0.2553,-0.0868,93,0.253,4,8.3596,0.1917,-12.002,-0.4012,-0.495,0.0144,63
0.422,8,6.6351,-1.3637,-12.8433,0.2358,0.7352,-0.0675,93,0.305,5,8.4457,0.3755,-11.854,-0.4049,-0.3894,0.0103,63
0.474,9,6.817,-1.5003,-12.4932,0.7895,0.4955,0.0378,93,0.357,6,9.047,-1.0881,-11.9909,-0.0682,-0.0137,0.0142,63
0.525,10,7.6593,-2.1227,-12.4774,0.3561,0.3825,0.0459,93,0.409,7,9.1047,-0.4837,-11.8868,-0.229,0.2121,0.0615,63
0.577,11,8.3211,-1.5497,-12.1896,0.4048,0.315,0.0815,93,0.46,8,9.125,-1.2893,-11.6405,-0.3337,0.2312,0.0576,63
0.629,12,8.559,-1.7356,-12.0864,0.0747,0.2772,0.0922,93,0.512,9,9.2694,-0.8058,-11.7716,-0.2899,0.1703,0.0564,63
0.681,13,8.7698,-1.6239,-12.0457,0.0849,0.2182,0.0726,93,0.564,10,9.1693,-0.8248,-11.7272,-0.2121,0.1835,0.0721,63
0.733,14,9.0263,-1.6105,-11.9786,0.0921,0.1622,0.0612,93,0.616,11,9.0682,-0.3926,-11.349,-0.0154,0.0773,0.0821,63
0.784,15,9.1469,-1.6423,-11.9326,0.0269,0.1379,0.0638,93,0.667,12,9.42,-0.4933,-11.2776,0.1608,-0.1773,0.0972,63
0.836,16,9.0727,-1.7491,-11.941,0.0434,0.096,0.0537,93,0.719,13,9.9296,-0.3108,-13.34,0.1209,-0.7,0.1662,63
0.888,17,9.1305,-1.7425,-11.8533,0.0074,0.0449,0.0532,93,0.771,14,10.9702,-0.0622,-15.7416,0.1879,-1.1777,0.1534,63
0.94,18,9.2172,-1.4892,-11.7602,-0.0348,0.0226,0.0605,93,0.823,15,10.6493,-0.0164,-16.3629,0.3134,-1.5263,0.1484,63
0.991,19,8.9956,-1.9845,-11.8976,-0.1465,0.0065,0.0592,93,0.875,16,9.6348,-0.3052,-15.834,0.2955,-1.7808,0.2233,63
1.043,20,8.8991,-2.1551,-11.9837,-0.0017,-0.022,0.021,93,0.926,17,7.9417,-0.589,-15.3976,0.1173,-1.9665,0.2957,63
1.095,21,8.9151,-2.2724,-11.9859,0.4271,-0.0932,-0.0365,93,0.978,18,6.1215,-0.3417,-15.8414,-0.1454,-2.0987,0.2778,63
1.147,22,9.0438,-1.4825,-11.8518,0.5503,-0.1337,-0.0515,93,1.03,19,4.7093,-0.3057,-16.2594,-0.3411,-2.0642,0.1815,63
1.199,23,9.0003,-1.7479,-12.1031,0.4643,-0.1208,-0.027,93,1.082,20,3.7254,-0.5501,-16.111,-0.2744,-1.8766,0.0617,63
1.25,24,9.1008,-1.6969,-12.0681,0.3022,-0.0717,-0.0014,93,1.133,21,2.7419,-0.4224,-16.4109,-0.2017,-1.6312,-0.0195,63
1.302,25,9.087,-1.7181,-11.9678,0.2333,-0.0423,0.005,93,1.185,22,1.855,-0.4205,-16.9383,-0.2091,-1.3604,-0.0755,63
1.354,26,9.0943,-1.8038,-11.8824,0.1963,-0.0499,0.0072,93,1.237,23,1.32,-0.2932,-17.5219,-0.1659,-1.1232,-0.1159,63
1.406,27,9.118,-1.7943,-11.9887,0.1441,-0.0424,0.0208,93,1.289,24,0.8339,-0.2055,-17.8951,-0.1032,-0.9358,-0.1659,63
1.458,28,9.1855,-1.6271,-12.0437,0.0173,-0.008,0.0462,93,1.341,25,0.3392,-0.0448,-18.3113,-0.0995,-0.7553,-0.1932,63
1.509,29,9.3441,-0.5323,-12.1535,-0.2214,0.0927,0.1176,93,1.392,26,-0.0061,-0.021,-18.542,-0.0765,-0.5599,-0.1952,63
1.561,30,9.1424,-1.8345,-12.1136,-0.5188,0.1087,0.1304,93,1.444,27,-0.3337,0.031,-18.7186,-0.032,-0.3991,-0.1844,63
1.613,31,9.1615,-1.6504,-12.1861,-0.4371,0.0529,0.09,93,1.496,28,-0.6003,-0.0056,-18.8955,-0.0546,-0.2668,-0.1478,63
1.665,32,9.0253,-2.0479,-12.2597,-0.3054,0.0213,0.0563,93,1.548,29,-0.8289,-0.0227,-19.0454,-0.0797,-0.1825,-0.1111,63
1.716,33,8.9691,-2.1044,-12.327,-0.0001,0.0097,0.0141,93,1.6,30,-0.9711,0.0689,-19.3874,-0.0718,-0.1326,-0.0855,63
1.768,34,9.0767,-1.9316,-12.1025,0.1633,-0.0148,-0.0147,93,1.651,31,-1.0068,0.0177,-19.5388,0.0011,-0.1072,-0.0834,63
1.82,35,9.2031,-1.7111,-12.0267,0.3541,-0.0806,-0.0421,93,1.703,32,-1.1268,0.0319,-19.7351,-0.0104,-0.086,-0.0778,63
1.872,36,9.38,-1.343,-12.1094,0.0354,-0.0047,0.0181,93,1.755,33,-1.165,-0.002,-19.7153,-0.0225,-0.0806,-0.0802,63
1.924,37,9.0846,-2.2009,-12.1863,-0.307,0.0609,0.0519,93,1.807,34,-1.0918,-0.0689,-19.6901,-0.0019,-0.066,-0.0809,63
1.975,38,9.0191,-2.0447,-12.2094,-0.2824,0.0464,0.0276,93,1.858,35,-1.0453,-0.0938,-19.5766,0.0064,-0.0523,-0.0736,63
2.027,39,9.0803,-2.0218,-12.2502,-0.2078,0.026,0.0175,93,1.91,36,-0.9848,-0.2817,-19.4435,0.023,-0.0351,-0.0919,63
2.079,40,9.0009,-2.2768,-12.2905,-0.0636,0.0196,0.0011,93,1.962,37,-1.1109,-0.1408,-19.4892,0.0002,0.0051,-0.1081,63
2.131,41,9.1597,-1.8829,-12.1374,0.1995,0.0126,-0.0215,93,2.014,38,-1.004,-0.0402,-19.5775,0.0486,0.0478,-0.1261,63
2.183,42,9.2845,-1.8695,-12.1933,0.2071,0.0105,-0.0201,93,2.066,39,-0.981,0.0296,-19.7363,0.0682,0.0902,-0.1378,63
2.234,43,9.3341,-1.9572,-11.8745,-0.022,0.0561,0.0001,93,2.117,40,-0.9627,0.0264,-19.8442,0.0372,0.0975,-0.1315,63
2.286,44,9.3577,-1.7964,-11.881,0.0455,0.0747,-0.0041,93,2.169,41,-0.9439,0.1155,-19.9082,0.0344,0.0776,-0.1101,63
2.338,45,9.3857,-1.8377,-11.8182,0.0004,0.0771,0.0081,93,2.221,42,-0.9453,0.0434,-19.7545,0.0593,0.0593,-0.0702,63
2.39,46,9.3528,-1.8958,-11.8498,0.0048,0.0729,-0.0014,93,2.272,43,-0.961,-0.06,-19.5816,0.051,0.0603,-0.0441,63
2.441,47,9.403,-1.8181,-11.7563,0.0223,0.0634,-0.0026,93,2.324,44,-1.1116,-0.0709,-19.4762,-0.027,0.0702,-0.0251,63
2.493,48,9.4498,-1.8462,-11.5649,-0.1158,0.0692,0.0114,93,2.376,45,-1.1527,-0.156,-19.4995,0.0136,0.0924,-0.0226,63
2.545,49,9.4621,-1.8475,-11.656,-0.0581,0.065,0.0058,93,2.428,46,-1.0276,-0.0365,-19.6729,0.0715,0.1011,-0.0302,63
2.597,50,9.397,-1.9469,-11.6627,0.0136,0.0596,0.0022,93,2.48,47,-1.0204,-0.0962,-19.7937,0.0389,0.0796,-0.02,63
2.649,51,9.4021,-1.8349,-11.697,0.0074,0.0526,0.0009,93,2.531,48,-0.9979,-0.1382,-19.8363,0.0468,0.0485,-0.0034,63
2.701,52,9.4267,-1.6614,-11.7326,-0.1009,0.0629,0.0188,93,2.583,49,-0.9564,-0.097,-19.6298,0.041,0.0088,0.0127,63
2.753,53,9.3439,-1.9952,-11.7425,0.0071,0.0596,0.0095,93,2.635,50,-0.9578,-0.1976,-19.5374,0.0303,-0.0019,0.0298,63
2.804,54,9.3513,-2.0684,-11.663,0.0554,0.0612,0.0018,93,2.687,51,-0.9274,-0.1806,-19.6028,0.039,-0.0037,0.0376,63
2.856,55,9.3303,-1.9766,-11.5603,0.1817,0.0223,-0.016,93,2.738,52,-0.8481,-0.1977,-19.7147,0.0376,-0.0083,0.0437,63
2.908,56,9.3657,-2.0321,-11.5362,0.2787,-0.0331,-0.0387,93,2.79,53,-0.8091,-0.1884,-19.7762,0.0292,-0.0209,0.0516,63
2.96,57,9.3788,-1.9546,-11.6129,0.2964,-0.0421,-0.0449,93,2.842,54,-0.7641,-0.174,-19.7015,0.0167,-0.0286,0.0499,63
3.011,58,9.3419,-1.9236,-11.6597,0.2953,-0.0325,-0.0473,93,2.894,55,-0.7462,-0.149,-19.6599,0.0346,-0.0182,0.0333,63
3.063,59,9.3589,-1.7788,-11.619,0.2493,-0.0289,-0.0371,93,2.946,56,-0.6857,-0.1379,-19.5776,0.0212,0.0049,0.0124,63
3.115,60,9.3201,-1.8779,-11.6028,0.1534,-0.0258,-0.0223,93,2.997,57,-0.6932,-0.1379,-19.6012,-0.0057,0.0281,-0.0019,63
3.167,61,9.3416,-1.8878,-11.6361,0.0455,-0.0175,-0.0087,93,3.049,58,-0.696,-0.132,-19.6348,-0.0045,0.0427,-0.0178,63
3.219,62,9.3591,-1.9085,-11.6403,0.04,-0.0101,-0.0036,93,3.101,59,-0.6884,-0.066,-19.6379,-0.0106,0.0539,-0.0405,63
3.27,63,9.4078,-1.8407,-11.5578,-0.007,0.0065,0.0104,93,3.153,60,-0.6453,-0.0756,-19.671,-0.0251,0.0658,-0.0714,63
3.322,64,9.4437,-1.8199,-11.4429,-0.3753,0.0576,0.0685,93,3.205,61,-0.6251,-0.0305,-19.7032,-0.03,0.0692,-0.1088,63
3.374,65,9.3367,-1.8607,-11.4487,-0.1376,0.0308,0.0392,93,3.256,62,-0.6387,-0.0238,-19.7497,-0.0298,0.0597,-0.1404,63
3.426,66,9.3314,-1.9924,-11.507,-0.0929,0.0126,0.0213,93,3.308,63,-0.5648,-0.0248,-19.7075,-0.0241,0.0451,-0.1626,63
3.478,67,9.2995,-1.9588,-11.547,0.0104,-0.0017,0.0017,93,3.36,64,-0.5205,-0.0358,-19.6221,-0.0376,0.039,-0.1677,63
3.529,68,9.2792,-1.9588,-11.5061,0.0954,-0.0312,-0.0141,93,3.412,65,-0.5193,-0.0669,-19.5388,-0.0392,0.0567,-0.1604,63
3.581,69,9.3221,-1.9299,-11.5813,0.1009,-0.0558,-0.0125,93,3.463,66,-0.4715,-0.0867,-19.6201,-0.0394,0.077,-0.1464,63
3.633,70,9.3084,-1.9539,-11.6151,0.1172,-0.0614,-0.017,93,3.515,67,-0.4051,-0.111,-19.6881,-0.0429,0.0758,-0.1326,63
3.684,71,9.3274,-1.9944,-11.6594,0.0841,-0.055,-0.0081,93,3.567,68,-0.3502,-0.0507,-19.8072,-0.0361,0.0636,-0.1018,63
3.736,72,9.3647,-1.691,-11.6678,-0.0175,-0.0276,0.0163,93,3.619,69,-0.35,-0.0843,-19.8123,-0.0581,0.0529,-0.0469,63
3.788,73,9.2955,-1.8582,-11.6792,-0.0122,-0.0175,0.0162,93,3.671,70,-0.3725,-0.128,-19.7329,-0.0611,0.041,0.0024,63
3.84,74,9.2983,-1.9683,-11.6774,-0.0204,-0.0156,0.0175,93,3.722,71,-0.4234,-0.1361,-19.6236,-0.048,0.0392,0.0336,63
3.892,75,9.3351,-1.8337,-11.6815,-0.0078,-0.0069,0.0212,93,3.774,72,-0.4272,-0.0833,-19.5785,-0.0109,0.0478,0.0493,63
3.944,76,9.329,-1.4729,-11.6048,-0.1681,0.0136,0.0467,93,3.826,73,-0.3889,-0.0356,-19.6339,-0.0028,0.0597,0.0595,63
3.995,77,9.2704,-2.0216,-11.7399,-0.1458,-0.034,0.0366,93,3.878,74,-0.3631,0.032,-19.7651,0.0125,0.055,0.0625,63
4.047,78,9.33,-1.7642,-11.8649,-0.1076,-0.0459,0.0271,93,3.929,75,-0.3395,0.0674,-19.7889,0.0207,0.0303,0.0529,63
4.099,79,9.2553,-1.9505,-11.8549,-0.0278,-0.0472,0.0102,93,3.981,76,-0.3431,0.1196,-19.7914,0.0198,0.007,0.0377,63
4.151,80,9.2376,-1.928,-11.8116,0.0412,-0.0387,-0.0013,93,4.033,77,-0.2996,0.1106,-19.7273,0.006,-0.0112,0.025,63
4.202,81,9.2867,-1.8342,-11.7658,0.0367,-0.0379,0.0019,93,4.085,78,-0.2706,0.1133,-19.6585,-0.0131,-0.019,0.0144,63
4.254,82,9.2522,-1.866,-11.802,-0.0144,-0.0239,0.007,93,4.137,79,-0.1933,0.1479,-19.5752,-0.0497,-0.0209,0.0016,63
4.306,83,9.3265,-1.8432,-11.8324,-0.0412,0.0027,0.0174,93,4.188,80,-0.1138,0.1705,-19.655,-0.1237,0.0034,-0.0027,63
4.358,84,9.284,-2.0841,-11.7882,-0.1895,0.0421,0.038,93,4.24,81,-0.0717,0.2126,-19.7054,-0.1228,0.0267,0.0094,63
4.41,85,9.2943,-2.0508,-11.7999,-0.1703,0.0351,0.0339,93,4.292,82,-0.0966,0.2588,-19.7693,-0.1016,0.0425,0.0392,63
4.461,86,9.3336,-2.0419,-11.8075,-0.1663,0.0322,0.0293,93,4.343,83,-0.2217,0.2183,-19.7079,-0.1153,0.0438,0.0746,63
4.513,87,9.2857,-2.0772,-11.803,-0.1237,0.0335,0.0256,93,4.395,84,-0.3805,0.1806,-19.6106,-0.0954,0.032,0.1113,63
4.565,88,9.2939,-2.059,-11.8237,0.0271,0.021,0.0083,93,4.447,85,-0.3789,0.2038,-19.548,-0.0827,0.0235,0.1477,63
4.617,89,9.3265,-1.8972,-11.7415,-0.0213,0.0115,0.0123,93,4.499,86,-0.375,0.2389,-19.7052,-0.0559,0.0249,0.1836,63
4.668,90,9.2754,-2.0648,-11.8182,0.057,-0.0153,-0.0059,93,4.551,87,-0.3001,0.3453,-19.7838,-0.0641,0.0137,0.2077,63
4.72,91,9.3584,-1.9271,-11.8249,0.1066,-0.0185,-0.0098,93,4.602,88,-0.2293,0.3575,-19.8182,-0.0295,-0.0101,0.2188,63
4.772,92,9.2814,-2.0415,-11.7871,0.1017,-0.0127,-0.0092,93,4.654,89,-0.1919,0.4276,-19.7469,-0.0365,-0.0321,0.228,63
4.824,93,9.2983,-1.9867,-11.8374,0.1097,-0.0255,-0.0154,93,4.706,90,-0.1591,0.4297,-19.6445,-0.0489,-0.0417,0.2229,63
4.876,94,9.3508,-1.8873,-11.8808,0.0064,0.0059,0.0067,93,4.758,91,-0.1371,0.4638,-19.4433,-0.0339,-0.0382,0.2065,63
4.927,95,9.3553,-2.0694,-11.7854,-0.1323,0.0727,0.0285,93,4.81,92,-0.1593,0.4616,-19.3593,-0.0894,-0.0063,0.1903,63
4.979,96,9.3437,-2.0038,-11.7636,-0.1171,0.0665,0.0209,93,4.861,93,-0.1354,0.5311,-19.4596,-0.0962,0.0463,0.1701,63
5.031,97,9.2949,-2.1467,-11.7083,-0.0792,0.0463,0.0117,93,4.913,94,-0.147,0.5931,-19.6381,-0.0607,0.0725,0.1469,63
5.083,98,9.3151,-2.0673,-11.6516,-0.0097,0.0228,0.0016,93,4.965,95,-0.1418,0.6083,-19.7555,-0.0735,0.065,0.1268,63
5.135,99,9.3285,-2.0961,-11.6858,0.051,-0.0193,-0.0064,93,5.017,96,-0.1685,0.6395,-19.737,-0.0547,0.0447,0.1007,63
5.186,100,9.297,-2.1851,-11.7784,0.0654,-0.04,-0.0151,93,5.068,97,-0.144,0.6911,-19.6399,-0.0228,0.0293,0.076,63
5.238,101,9.3323,-1.9869,-11.8125,0.084,-0.0383,-0.0104,93,5.12,98,-0.1561,0.6805,-19.6054,-0.026,0.0263,0.0422,63
5.29,102,9.3111,-2.0668,-11.7675,0.0447,-0.0323,-0.0069,93,5.172,99,-0.1284,0.746,-19.6305,-0.0346,0.0234,0.0175,63
5.342,103,9.279,-2.0898,-11.7026,0.0538,-0.0374,-0.0132,93,5.224,100,-0.0391,0.7698,-19.6858,-0.0534,0.005,-0.0044,63
5.393,104,9.2648,-2.0666,-11.7878,0.1379,-0.0494,-0.0229,93,5.276,101,-0.0391,0.7725,-19.6337,-0.076,-0.0132,-0.0228,63
5.445,105,9.286,-1.9295,-11.8788,0.1029,-0.0396,-0.023,93,5.327,102,-0.0881,0.7638,-19.5997,-0.0575,-0.0195,-0.038,63
5.497,106,9.2633,-1.9759,-11.7559,-0.0346,-0.0243,-0.0081,93,5.379,103,-0.0798,0.7838,-19.5809,-0.0494,-0.0164,-0.0398,63
5.549,107,9.3087,-1.8319,-11.7476,0.0047,-0.0295,-0.0131,93,5.431,104,-0.121,0.7184,-19.5383,-0.0574,-0.0089,-0.0332,63
5.601,108,9.3073,-1.7367,-11.7911,-0.0343,-0.0163,-0.0041,93,5.483,105,-0.1627,0.7509,-19.6112,-0.0361,-0.0083,-0.033,63
5.653,109,9.2764,-1.8462,-11.7666,-0.0029,-0.004,-0.0115,93,5.534,106,-0.1755,0.7639,-19.6758,-0.0347,-0.007,-0.024,63
5.704,110,9.2688,-1.9017,-11.7402,0.0539,-0.0028,-0.0187,93,5.586,107,-0.2413,0.7499,-19.6768,-0.0021,-0.0068,-0.0144,63
5.756,111,9.3039,-1.95,-11.7486,0.1038,-0.0128,-0.0245,93,5.638,108,-0.2533,0.7683,-19.627,0.0012,-0.008,-0.0167,63
5.808,112,9.2984,-1.9053,-11.746,0.1485,-0.0129,-0.0257,93,5.69,109,-0.2392,0.7723,-19.5905,0.0041,-0.0106,-0.0253,63
5.86,113,9.3701,-1.8697,-11.7078,0.1979,-0.0253,-0.0281,93,5.742,110,-0.1903,0.8157,-19.6272,0.0144,-0.0037,-0.0346,63
5.912,114,9.302,-1.9307,-11.7678,0.2099,-0.0207,-0.0356,93,5.793,111,-0.1412,0.8412,-19.6275,0.0108,0.002,-0.0412,63
5.963,115,9.3371,-1.9095,-11.7892,0.1879,-0.0279,-0.0338,93,5.845,112,-0.137,0.8495,-19.6419,-0.0032,0.0104,-0.0469,63
6.015,116,9.319,-1.8186,-11.8076,0.1539,-0.0293,-0.0305,93,5.897,113,-0.1946,0.8441,-19.6153,-0.0136,0.0164,-0.0498,63
6.067,117,9.3259,-1.8754,-11.7966,0.1349,-0.042,-0.023,93,5.949,114,-0.199,0.8558,-19.5837,0.0013,0.0127,-0.0592,63
6.119,118,9.3352,-1.9301,-11.791,0.1107,-0.0371,-0.0163,93,6.001,115,-0.1791,0.8658,-19.5715,0.0144,0.0132,-0.0685,63
6.171,119,9.3392,-1.9567,-11.7786,0.0771,-0.0423,-0.0091,93,6.052,116,-0.1547,0.8988,-19.5894,-0.0045,0.0164,-0.0796,63
6.222,120,9.301,-1.8774,-11.8144,0.0861,-0.0349,-0.0016,93,6.104,117,-0.143,0.9341,-19.6372,0.0072,0.021,-0.0983,63
6.274,121,9.284,-1.9424,-11.8365,0.0839,-0.0296,0.0002,93,6.156,118,-0.1181,0.948,-19.6151,-0.0034,0.0224,-0.1113,63
6.326,122,9.3365,-1.9955,-11.8177,0.0566,-0.0143,0.0089,93,6.208,119,-0.1386,0.905,-19.6023,-0.0101,0.0188,-0.1365,63
6.378,123,9.3686,-1.6963,-11.8774,-0.0259,0.0208,0.0293,93,6.26,120,-0.098,1.0174,-19.5726,0.0412,0.0114,-0.1947,63
6.429,124,9.2529,-2.6228,-11.8367,-0.3252,0.0583,0.0675,93,6.311,121,-0.0866,1.004,-19.6079,0.0297,0.0096,-0.2122,63
6.481,125,9.3264,-2.0892,-11.7906,-0.2291,0.0855,0.0666,93,6.363,122,-0.1053,0.9457,-19.5851,0.0241,0.0136,-0.1939,63
6.533,126,9.3056,-2.0293,-11.768,-0.3002,0.1059,0.0926,93,6.415,123,-0.0725,0.8485,-19.5444,0.0148,0.0217,-0.1329,63
6.585,127,9.1803,-2.2882,-11.8812,-0.4596,0.1291,0.1051,93,6.467,124,-0.0488,0.7671,-19.495,-0.044,0.0327,-0.0491,63
6.637,128,9.0728,-2.1505,-11.8613,-0.3345,0.1211,0.0806,93,6.518,125,-0.0234,0.7927,-19.5169,-0.0596,0.0464,0.0433,63
6.688,129,9.0503,-2.1247,-11.7912,-0.2319,0.0885,0.0655,93,6.57,126,0.0642,0.8634,-19.5563,-0.0618,0.0469,0.1214,63
6.74,130,9.1841,-2.1667,-11.5628,-0.3121,0.0615,0.063,93,6.622,127,0.1583,0.9208,-19.5761,-0.029,0.0324,0.1649,63
6.792,131,9.2585,-2.1101,-11.6472,-0.2899,0.0441,0.0548,93,6.674,128,0.1024,0.9823,-19.5981,-0.0318,0.0214,0.2178,63
6.844,132,9.2736,-2.1134,-11.6881,-0.2513,0.0269,0.0433,93,6.726,129,0.0228,1.0288,-19.5948,-0.0488,0.0261,0.2186,63
6.895,133,9.2479,-2.1461,-11.7518,-0.2518,0.0249,0.0331,93,6.777,130,-0.0662,1.1008,-19.6217,-0.0391,0.0245,0.1787,63
6.947,134,9.2248,-2.1933,-11.7832,-0.2044,0.0345,0.0265,93,6.829,131,-0.0831,0.9764,-19.6985,-0.0491,0.0082,0.1772,63
6.999,135,9.2433,-2.2152,-11.7027,-0.1451,0.0272,0.0198,93,6.881,132,-0.1483,0.8992,-19.6903,-0.0032,-0.017,0.1492,63
7.051,136,9.2673,-2.2114,-11.6989,-0.1195,0.0129,0.0147,93,6.932,133,-0.1319,1.0543,-19.5926,0.0477,-0.0402,0.0838,63
7.103,137,9.2493,-2.0679,-11.6366,0.0216,-0.0251,0.003,93,6.984,134,0.0217,1.134,-19.5442,0.0509,-0.0284,0.015,63
7.155,138,9.283,-2.2753,-11.6247,0.0309,-0.0393,0.0042,93,7.036,135,0.1279,1.128,-19.6149,0.0113,-0.0156,-0.031,63
7.206,139,9.1143,-2.2068,-11.704,0.1197,-0.0339,-0.0066,93,7.088,136,0.1869,1.0142,-19.6132,0.0266,-0.0007,-0.0707,63
7.258,140,9.3781,-1.9218,-11.5895,0.1313,-0.0609,-0.0072,93,7.14,137,0.1669,0.8434,-19.5515,0.0232,0.0076,-0.0566,63
7.31,141,9.4313,-1.9844,-11.5645,-0.0001,-0.038,0.014,93,7.191,138,0.1049,0.7753,-19.4864,0.0334,0.0126,-0.0346,63
7.362,142,9.3998,-2.0035,-11.5808,-0.1793,-0.0479,0.0142,93,7.243,139,0.0175,0.8491,-19.4782,0.0316,0.0241,-0.0291,63
7.414,143,9.3749,-1.8879,-11.7667,-0.1837,-0.0443,0.0101,93,7.295,140,0.1078,0.8878,-19.5276,0.0367,0.0189,-0.012,63
7.465,144,9.3608,-1.9893,-11.8828,-0.2098,-0.0311,0.0191,93,7.347,141,0.0442,1.0105,-19.5511,-0.0077,0.0073,-0.0008,63
7.517,145,9.2066,-2.1808,-11.9144,-0.2011,-0.012,0.0174,93,7.399,142,0.0897,0.9183,-19.6162,-0.0013,-0.0095,0.022,63
7.569,146,9.1854,-2.172,-11.9332,-0.1612,-0.0109,-0.0012,93,7.45,143,0.0449,1.0491,-19.5971,0.0076,-0.0177,-0.0081,63
7.621,147,9.0493,-2.288,-12.0215,-0.0839,0.0027,-0.0129,93,7.502,144,0.152,1.0675,-19.5965,0.0267,-0.0185,-0.0502,63
7.673,148,8.4959,-2.8922,-12.1276,0.2229,0.0056,-0.0433,93,7.554,145,0.1563,1.0784,-19.5805,0.0372,0.0019,-0.1025,63
7.724,149,9.0654,-2.3823,-11.8674,0.2174,-0.0204,-0.0599,93,7.606,146,0.1895,0.8797,-19.6464,-0.0113,0.0187,-0.0983,63
7.776,150,9.0447,-2.4431,-11.9511,0.2326,-0.0525,-0.0579,93,7.658,147,0.1282,0.8534,-19.6436,-0.0101,0.0313,-0.0918,63
7.828,151,9.2069,-2.2266,-11.9578,0.0497,-0.0142,-0.0345,93,7.709,148,0.0436,0.8052,-19.5952,-0.005,0.0288,-0.0735,63
7.88,152,9.1898,-2.0701,-11.8379,-0.0303,0.0058,-0.0176,93,7.761,149,-0.0518,0.7829,-19.5437,0.0045,0.0265,-0.0512,63
7.931,153,9.2402,-2.1299,-11.9315,-0.0665,0.0013,-0.0147,93,7.813,150,-0.1382,0.7292,-19.4959,-0.0299,0.0258,-0.0148,63
7.983,154,9.3126,-2.0538,-11.9257,-0.1199,0.0168,-0.0034,93,7.865,151,-0.1649,0.3474,-19.4909,-0.0239,0.0094,0.0711,63
8.035,155,9.0346,-2.4543,-11.966,0.0446,-0.014,-0.0222,93,7.917,152,-0.2594,0.941,-19.3068,-0.0255,0.0229,0.0362,63
8.087,156,9.3066,-2.0026,-11.7977,0.3366,-0.0998,-0.0463,93,7.968,153,0.0466,1.2415,-19.5227,-0.0583,0.0532,-0.0448,63
8.139,157,9.5715,-1.9637,-11.898,0.5432,-0.1744,-0.0688,93,8.02,154,0.1789,1.2451,-19.7919,-0.1042,0.0703,-0.0587,63
8.19,158,9.581,-1.6775,-12.0699,0.3124,-0.1168,-0.0448,93,8.072,155,0.3157,1.1509,-19.7853,-0.099,0.0289,-0.0981,63
8.242,159,9.3782,-1.8374,-11.9756,-0.0293,-0.0123,-0.0036,93,8.124,156,0.1825,1.1653,-19.7254,0.0349,-0.0006,-0.1096,63
8.294,160,9.3407,-1.7669,-11.9196,0.0988,-0.0067,-0.0192,93,8.175,157,0.169,1.1361,-19.4697,0.0582,-0.0132,-0.0984,63
8.346,161,9.2188,-2.11,-11.9023,0.201,-0.0319,-0.0368,93,8.227,158,0.0853,0.9369,-19.472,-0.0348,-0.0035,-0.0471,63
8.398,162,9.2842,-1.9745,-12.0007,0.3232,-0.0528,-0.0649,93,8.279,159,0.239,1.0756,-19.3477,0.0123,-0.0108,-0.0095,63
8.449,163,9.2697,-1.8696,-11.9697,0.335,-0.0518,-0.0656,93,8.331,160,0.1175,1.3826,-19.3934,-0.0206,0.0176,-0.0455,63
8.501,164,9.2659,-1.7871,-11.9736,0.2966,-0.0439,-0.0562,93,8.382,161,0.2218,1.5317,-19.6267,-0.0565,0.0484,-0.058,63
8.553,165,9.2592,-1.8994,-11.9213,0.1755,-0.0187,-0.0345,93,8.434,162,0.2504,1.444,-19.7396,-0.0982,0.0424,-0.0678,63
8.605,166,9.2361,-1.9782,-11.8501,0.1304,-0.0097,-0.0223,93,8.486,163,0.2283,0.9982,-19.7585,-0.0211,-0.0048,-0.0288,63
8.657,167,9.243,-2.0375,-11.857,0.0848,0.0023,-0.0141,93,8.538,164,0.1323,1.0221,-19.4966,0.0337,-0.034,-0.0016,63
8.708,168,9.3052,-1.7965,-11.8977,-0.0031,0.016,0.0082,93,8.59,165,0.1178,1.2065,-19.2946,-0.0034,-0.0388,0.0265,63
8.76,169,9.2668,-2.4026,-11.9157,-0.256,0.0566,0.0484,93,8.641,166,0.1658,1.2637,-19.3092,-0.1714,-0.015,0.0419,63
8.812,170,9.2843,-2.1311,-11.8104,-0.3404,0.0565,0.0562,93,8.693,167,0.134,1.3565,-19.7233,-0.1859,-0.0156,0.0438,63
8.864,171,9.2256,-2.1336,-11.8523,-0.2199,0.0383,0.0369,93,8.745,168,0.133,1.4683,-19.7359,-0.0758,-0.0459,0.0274,63
8.916,172,9.2644,-2.1148,-11.87,-0.1612,0.0287,0.0223,93,8.797,169,0.0726,1.3899,-19.6142,0.0129,-0.0607,0.0162,63
8.967,173,9.2355,-2.147,-11.8517,-0.0598,0.0094,0.0123,93,8.849,170,-0.0122,1.3751,-19.422,0.0416,-0.0282,0.0255,63
9.019,174,9.1867,-2.1077,-11.9088,0.0673,-0.0216,-0.007,93,8.901,171,0.1362,1.3908,-19.15,-0.0552,0.0302,0.0216,63
9.071,175,9.2677,-1.853,-11.9713,0.0534,-0.0206,-0.0027,93,8.952,172,0.0486,1.6616,-19.4055,-0.1003,0.1038,0.0032,63
9.122,176,9.3526,-1.8396,-11.8492,-0.1211,0.0291,0.0298,93,9.004,173,0.2896,1.5767,-19.5646,-0.0617,0.094,0.0126,63
