right_leg_timestamp,right_leg_index,right_leg_accel_x,right_leg_accel_y,right_leg_accel_z,right_leg_gyro_x,right_leg_gyro_y,right_leg_gyro_z,right_leg_battery_percentage,left_leg_timestamp,left_leg_index,left_leg_accel_x,left_leg_accel_y,left_leg_accel_z,left_leg_gyro_x,left_leg_gyro_y,left_leg_gyro_z,left_leg_battery_percentage
0.089,1,9.5352,-1.4637,-10.4818,-0.0479,-0.1199,-0.1565,66,0.883,17,8.9311,0.842,-9.7689,-0.0976,0.027,-0.2128,39
0.14,2,9.5144,-1.4263,-10.5346,-0.0487,-0.1445,-0.134,66,0.935,18,8.9297,0.7552,-9.8499,-0.0834,-0.0029,-0.1682,39
0.192,3,9.5321,-1.3205,-10.6532,-0.0643,-0.1551,-0.1079,66,0.987,19,8.9708,0.8554,-9.8941,-0.0618,-0.0026,-0.1513,39
0.244,4,9.4994,-1.2742,-10.7865,-0.0444,-0.137,-0.0901,66,1.039,20,8.9412,0.9541,-9.8723,-0.046,-0.0026,-0.1326,39
0.296,5,9.5119,-1.2235,-10.879,-0.0164,-0.0983,-0.0922,66,1.09,21,8.9399,1.0098,-9.8739,-0.0448,-0.0129,-0.1008,39
0.348,6,9.5395,-1.1473,-10.9023,-0.0391,-0.0567,-0.0887,66,1.142,22,8.9462,1.0458,-9.8882,-0.0196,-0.0234,-0.0697,39
0.399,7,9.5282,-1.1241,-10.8332,-0.0401,-0.0482,-0.0764,66,1.194,23,8.9293,1.1349,-9.9202,-0.0198,-0.021,-0.063,39
0.451,8,9.5535,-1.0731,-10.8256,-0.0417,-0.0503,-0.0621,66,1.246,24,8.8663,1.1738,-10.0005,-0.0288,-0.0133,-0.0614,39
0.503,9,9.5724,-1.0576,-10.8931,-0.0235,-0.0472,-0.0469,66,1.298,25,8.9324,1.1658,-9.9572,-0.0458,-0.0044,-0.0482,39
0.555,10,9.5794,-1.0766,-10.9351,-0.0493,-0.0345,-0.04,66,1.349,26,8.901,1.1992,-9.8701,-0.0131,-0.0167,0.0028,39
0.607,11,9.6214,-1.0882,-10.8618,-0.0191,-0.027,-0.0286,66,1.402,27,8.8577,1.3527,-9.7722,0.0001,-0.08,0.1122,39
0.659,12,9.5281,-1.0875,-10.8415,-0.0204,-0.0747,-0.0172,66,1.453,28,8.9202,1.1213,-10.1445,-0.0088,-0.1478,0.1788,39
0.71,13,9.5854,-1.0466,-11.4016,-0.0899,-0.1202,0.0365,66,1.505,29,8.9902,0.6925,-10.3746,0.0064,-0.121,0.095,39
0.762,14,9.5769,-1.194,-11.3837,-0.1723,-0.0392,0.0849,66,1.557,30,9.0054,0.6635,-10.4105,0.017,-0.0325,-0.0086,39
0.814,15,9.6561,-1.2036,-11.2459,-0.1626,0.0298,0.0385,66,1.608,31,8.9654,0.902,-10.2888,-0.0271,-0.0009,-0.0733,39
0.866,16,9.7037,-1.2094,-11.1263,-0.134,0.056,0.0106,66,1.66,32,8.9707,0.9991,-10.235,-0.0038,0.0095,-0.0895,39
0.917,17,9.6933,-1.1278,-10.9654,-0.1438,0.0234,0.0055,66,1.712,33,8.9452,1.0387,-10.2076,-0.0233,0.0089,-0.082,39
0.969,18,9.5513,-1.0827,-10.9015,-0.1503,-0.0621,0.0166,66,1.764,34,8.9443,1.1348,-10.1937,-0.0448,0.0043,-0.0686,39
1.021,19,9.4032,-1.1719,-11.3066,-0.0461,-0.1272,0.0106,66,1.816,35,8.947,1.1433,-10.2006,-0.0848,-0.0039,-0.0639,39
1.073,20,9.4332,-1.2657,-11.4244,-0.0629,-0.1181,-0.0277,66,1.867,36,8.982,0.9596,-10.1561,-0.0804,-0.0195,-0.0582,39
1.125,21,9.4195,-1.0507,-11.4408,-0.0356,-0.0884,-0.0491,66,1.919,37,8.9928,0.9169,-10.1663,0.0251,-0.0293,-0.0569,39
1.176,22,9.3946,-1.0301,-11.4748,-0.0359,-0.0525,-0.0438,66,1.971,38,9.0124,1.0393,-10.2714,0.1804,-0.006,-0.0706,39
1.228,23,9.4264,-1.0381,-11.4198,-0.0274,-0.0275,-0.0384,66,2.023,39,9.0407,1.1498,-10.265,0.2177,0.0346,-0.0843,39
1.28,24,9.5249,-1.0262,-11.3458,0.0022,-0.0027,-0.0395,66,2.074,40,8.9493,1.3806,-10.2217,0.2097,0.0652,-0.0593,39
1.332,25,9.4922,-0.964,-11.356,0.0409,-0.0305,-0.0295,66,2.126,41,8.95,1.3431,-10.2036,0.2113,0.0809,-0.0045,39
1.384,26,9.5695,-0.9723,-11.2282,0.0637,-0.1317,0.0187,66,2.178,42,8.9157,1.3608,-10.1568,0.2126,0.0946,0.0535,39
1.435,27,9.6029,-1.3526,-11.3485,0.098,-0.233,0.1258,66,2.23,43,8.9219,1.2953,-10.1,0.1848,0.0895,0.1066,39
1.487,28,9.5341,-1.4802,-11.5627,0.0557,-0.3074,0.1918,66,2.282,44,9.0454,1.2386,-10.034,0.1806,0.0625,0.1642,39
1.539,29,9.3141,-1.1405,-11.5872,0.1859,-0.2697,0.1909,66,2.333,45,9.0161,1.1184,-9.9562,0.149,0.0522,0.2529,39
1.59,30,8.9637,-1.1509,-11.7125,0.2137,-0.1173,0.127,66,2.385,46,9.001,1.0807,-9.8441,0.1339,-0.0289,0.3432,39
1.642,31,8.8259,-0.7179,-11.1555,0.213,0.0497,0.0483,66,2.437,47,9.0219,0.9046,-9.8402,0.1455,-0.1359,0.3916,39
1.694,32,10.069,-0.7918,-11.0501,-0.0124,-0.0546,0.194,66,2.489,48,9.0979,0.6071,-10.174,0.01,-0.2274,0.4057,39
1.746,33,10.8399,-1.6081,-10.7129,-0.1062,-0.0121,0.1868,66,2.54,49,8.9851,0.4112,-10.4305,0.3019,-0.1963,0.2828,39
1.798,34,10.3164,-1.3302,-10.8593,-0.1204,0.127,0.1753,66,2.592,50,8.9776,-0.049,-10.4251,0.6758,-0.0707,0.1842,39
1.849,35,10.0452,-1.8024,-10.8473,-0.0815,0.1746,0.1924,66,2.644,51,8.9123,-0.2285,-10.2754,0.7091,0.0561,0.1147,39
1.902,36,10.0166,-1.65,-10.8616,-0.0792,0.2553,0.1683,66,2.696,52,8.9107,-0.2403,-10.1354,0.2463,0.0923,0.1126,39
1.953,37,9.7858,-1.779,-10.753,-0.043,0.336,0.1321,66,2.748,53,8.7612,-0.8331,-11.1905,0.0373,0.225,0.0791,39
2.005,38,9.6115,-1.778,-10.5184,-0.0565,0.295,0.1052,66,2.799,54,9.0854,-1.2157,-10.8497,0.1298,0.2471,0.02,39
2.057,39,9.5514,-1.7541,-10.3833,-0.0725,0.1988,0.1015,66,2.851,55,9.0535,-0.9303,-10.4579,0.0378,0.2285,-0.0306,39
2.108,40,9.5371,-1.7962,-10.4042,-0.0551,0.13,0.0932,66,2.903,56,8.9766,-0.8327,-10.266,0.0507,0.2004,-0.0576,39
2.16,41,9.5354,-1.8862,-10.4139,-0.043,0.0901,0.0734,66,2.955,57,8.9663,-0.4141,-10.1061,0.0269,0.1682,-0.0726,39
2.212,42,9.5135,-1.9585,-10.3143,-0.0524,0.0562,0.0671,66,3.007,58,8.9963,-0.486,-10.0028,0.028,0.1601,-0.0924,39
2.264,43,9.5438,-1.9386,-10.3942,-0.0467,0.02,0.0621,66,3.058,59,9.0404,-0.1225,-9.8082,0.0402,0.1202,-0.0979,39
2.316,44,9.5482,-1.9628,-10.3829,-0.0318,0.0413,0.0362,66,3.11,60,8.9824,-0.0877,-9.7472,0.0111,0.0732,-0.0842,39
2.368,45,9.4966,-1.9233,-10.3444,-0.0186,0.0489,0.0132,66,3.162,61,9.0645,-0.1336,-9.764,-0.0408,0.0468,-0.0992,39
2.42,46,9.5306,-1.9284,-10.3382,-0.0108,0.034,-0.005,66,3.214,62,9.0889,0.0038,-9.6977,0.0001,0.0496,-0.1103,39
2.471,47,9.4889,-1.947,-10.2871,-0.0067,0.033,-0.0203,66,3.265,63,9.06,0.0525,-9.6294,0.0072,0.047,-0.1039,39
2.523,48,9.477,-1.9043,-10.3267,0.0585,0.0366,-0.0365,66,3.317,64,9.0156,0.1313,-9.6295,-0.0251,0.0284,-0.0954,39
2.575,49,9.4579,-1.8672,-10.1949,0.0286,-0.0303,-0.0222,66,3.369,65,9.0016,0.1514,-9.6041,0.0027,0.0145,-0.091,39
2.626,50,9.4708,-1.8087,-10.1619,-0.0246,-0.1219,0.0024,66,3.421,66,9.0752,0.203,-9.66,-0.0483,0.0016,-0.0948,39
2.678,51,9.5321,-1.8141,-10.3531,-0.0653,-0.196,0.0235,66,3.473,67,9.0874,0.3868,-9.6189,-0.0331,0.0098,-0.1037,39
2.73,52,9.5115,-1.86,-10.5381,-0.1059,-0.2258,0.036,66,3.524,68,9.0251,0.3535,-9.6223,-0.0728,0.0081,-0.1229,39
2.782,53,9.6095,-1.8277,-10.6781,-0.135,-0.2365,0.0438,66,3.576,69,9.0227,0.5015,-9.6203,-0.0808,0.0044,-0.132,39
2.834,54,9.7283,-1.7541,-10.7778,-0.1868,-0.2758,0.0696,66,3.628,70,9.0802,0.3921,-9.5952,-0.078,0.0013,-0.1284,39
2.885,55,9.8081,-1.6785,-10.8885,-0.2077,-0.3509,0.0995,66,3.68,71,9.0282,0.696,-9.5795,-0.0656,0.0021,-0.109,39
2.937,56,9.7903,-1.6901,-11.0343,-0.2041,-0.4296,0.1221,66,3.731,72,9.0042,0.7194,-9.5768,-0.1147,-0.0085,-0.0665,39
2.989,57,9.3953,-1.7331,-11.4314,-0.1365,-0.4524,0.1381,66,3.783,73,8.9998,0.7186,-9.596,-0.1339,-0.0334,-0.0155,39
3.041,58,8.3006,-2.7024,-12.086,-0.0079,-0.3653,0.1245,66,3.835,74,8.9922,0.5714,-9.6568,-0.1499,-0.0334,0.0229,39
3.092,59,8.1355,-2.4173,-12.2796,-0.0725,-0.1182,0.0289,66,3.887,75,9.0177,0.5552,-9.7221,-0.0421,-0.0084,0.0451,39
3.144,60,8.5155,-2.4402,-12.2344,0.2021,0.1712,-0.1398,66,3.938,76,9.0001,0.5073,-9.6844,0.0467,0.0112,0.0516,39
3.196,61,9.4794,-2.0642,-12.2084,0.1702,0.368,-0.2261,66,3.99,77,8.9929,0.5649,-9.6718,0.0383,0.0059,0.0444,39
3.248,62,9.5741,-1.6553,-11.7058,0.1872,0.466,-0.2277,66,4.042,78,9.0004,0.4404,-9.6797,0.038,-0.0037,0.049,39
3.3,63,9.4709,-1.9036,-11.2283,0.0659,0.4382,-0.1816,66,4.094,79,8.9914,0.4122,-9.6715,0.0602,-0.0041,0.052,39
3.351,64,9.5011,-1.5918,-10.9469,0.1512,0.3477,-0.1366,66,4.146,80,9.0004,0.4102,-9.6905,0.0619,-0.0019,0.0521,39
3.403,65,9.4927,-1.6364,-10.7508,0.1453,0.2519,-0.0882,66,4.197,81,9.0224,0.3825,-9.7009,0.0422,0.0029,0.0486,39
3.455,66,9.5243,-1.6325,-10.6719,0.1182,0.1826,-0.0541,66,4.249,82,9.0401,0.3549,-9.6948,0.0451,0.0127,0.0348,39
3.507,67,9.5194,-1.5987,-10.5965,0.0905,0.1435,-0.036,66,4.301,83,9.0196,0.3575,-9.6941,0.0489,0.0247,0.0225,39
3.559,68,9.5042,-1.6166,-10.5105,0.0646,0.1187,-0.0189,66,4.353,84,9.0342,0.3588,-9.6578,0.0443,0.027,0.0169,39
3.61,69,9.519,-1.6126,-10.4716,0.0542,0.1049,-0.0085,66,4.404,85,9.028,0.4142,-9.5875,0.0407,0.0211,0.0195,39
3.662,70,9.5283,-1.6094,-10.4366,0.0289,0.1094,-0.0017,66,4.456,86,9.0535,0.3845,-9.6061,0.0566,0.0201,0.0189,39
3.714,71,9.5207,-1.6602,-10.3815,0.0054,0.1233,-0.0015,66,4.508,87,9.0644,0.3801,-9.6148,0.0453,0.0275,0.0099,39
3.766,72,9.5333,-1.673,-10.2868,0.0025,0.1356,-0.0009,66,4.56,88,9.0592,0.3763,-9.5943,0.0497,0.0397,0.0033,39
3.818,73,9.527,-1.6714,-10.1763,-0.0036,0.1432,0.0002,66,4.612,89,9.0444,0.3911,-9.567,0.0376,0.0466,0.0004,39
3.869,74,9.5036,-1.6689,-10.081,0.0097,0.1246,0.0047,66,4.663,90,9.0558,0.3308,-9.5266,0.0443,0.0482,0.0005,39
3.921,75,9.4961,-1.6703,-10.0116,0.0178,0.0932,0.0123,66,4.715,91,9.0345,0.2968,-9.4718,0.0776,0.0411,-0.0049,39
3.973,76,9.5074,-1.667,-10.005,0.0225,0.065,0.0211,66,4.767,92,8.993,0.3996,-9.4985,0.0968,0.0393,-0.0075,39
4.025,77,9.54,-1.6927,-9.9925,0.0208,0.0528,0.0236,66,4.819,93,9.0236,0.4353,-9.4457,0.082,0.0201,0.0062,39
4.076,78,9.5141,-1.7459,-9.9515,0.0358,0.0428,0.0183,66,4.87,94,9.0264,0.456,-9.4272,0.0528,-0.0073,0.0283,39
4.128,79,9.5246,-1.7224,-9.9109,0.0603,0.0164,0.0113,66,4.922,95,8.9906,0.3974,-9.4419,0.0209,-0.0433,0.0589,39
4.18,80,9.5458,-1.6865,-9.9244,0.0423,0.0011,0.0148,66,4.974,96,9.013,0.3769,-9.4736,0.0497,-0.0755,0.0899,39
4.232,81,9.5527,-1.6852,-9.9333,0.021,0.0011,0.0212,66,5.026,97,9.0175,0.2445,-9.5901,0.0475,-0.0862,0.1001,39
4.284,82,9.5478,-1.6821,-9.9053,0.0125,-0.0038,0.0313,66,5.078,98,9.0248,0.1166,-9.6432,0.056,-0.0808,0.0972,39
4.335,83,9.5319,-1.7005,-9.9067,0.0118,-0.0134,0.0358,66,5.129,99,9.0546,0.1937,-9.6488,0.075,-0.0767,0.0943,39
4.387,84,9.5233,-1.752,-9.8993,0.0103,-0.0233,0.0367,66,5.181,100,9.0593,0.044,-9.6737,0.0911,-0.0762,0.0977,39
4.439,85,9.5231,-1.7491,-9.9185,0.0211,-0.0341,0.0391,66,5.233,101,9.0365,0.0518,-9.6696,0.1122,-0.081,0.1068,39
4.491,86,9.5227,-1.7806,-9.9245,0.0455,-0.0517,0.0417,66,5.285,102,9.187,0.1788,-9.5698,0.1312,-0.1206,0.1479,39
4.542,87,9.5133,-1.777,-9.968,0.0647,-0.0664,0.0484,66,5.336,103,9.6968,0.1521,-9.4134,0.1527,-0.2153,0.2293,39
4.594,88,9.529,-1.7586,-10.0066,0.0777,-0.0736,0.0536,66,5.388,104,10.1064,0.3655,-9.1511,0.1915,-0.301,0.3306,39
4.646,89,9.5012,-1.7873,-10.0667,0.0493,-0.0579,0.0617,66,5.44,105,10.2795,0.178,-9.1642,0.2039,-0.3543,0.4086,39
4.698,90,9.4964,-1.7341,-10.0165,0.057,0.0051,0.047,66,5.492,106,9.9763,0.0038,-9.5518,0.1413,-0.3722,0.4414,39
4.75,91,9.4567,-2.042,-9.8997,-0.0238,0.0313,0.0621,66,5.544,107,9.9494,-0.4309,-10.9863,0.0253,-0.4037,0.4662,39
4.802,92,9.4499,-1.9411,-9.963,-0.0106,0.0322,0.0569,66,5.595,108,10.1171,-1.212,-11.4342,-0.0457,-0.5089,0.5486,39
4.853,93,9.4131,-1.8289,-9.9928,0.0068,0.0659,0.0634,66,5.647,109,10.1309,-1.7208,-11.7735,0.0501,-0.6039,0.6249,39
4.905,94,9.3979,-1.9518,-10.0023,-0.0175,0.077,0.0579,66,5.699,110,10.0506,-1.9378,-11.9706,0.1434,-0.6956,0.6593,39
4.957,95,9.4436,-2.072,-9.9551,0.0022,0.0634,0.0537,66,5.751,111,9.7071,-2.1637,-12.1028,0.1526,-0.7443,0.6421,39
5.009,96,9.4408,-2.0878,-9.8778,-0.0084,0.0613,0.0488,66,5.803,112,9.3652,-2.3283,-12.3339,0.064,-0.7311,0.5906,39
5.06,97,9.484,-1.9336,-9.8841,-0.0368,0.129,0.0324,66,5.854,113,8.8247,-2.5184,-12.5898,-0.0308,-0.6622,0.5268,39
5.112,98,9.4787,-2.0109,-9.8813,-0.2158,0.1483,0.0323,66,5.906,114,8.0384,-2.6455,-12.7682,-0.081,-0.5567,0.4307,39
5.164,99,9.3013,-2.1903,-9.622,-0.2485,0.1405,0.0149,66,5.958,115,7.2945,-2.6798,-12.8663,-0.1072,-0.4538,0.2945,39
5.216,100,9.1298,-2.3073,-9.5403,-0.1815,0.0788,-0.0099,66,6.01,116,6.8331,-2.7752,-12.9574,-0.1566,-0.3567,0.191,39
5.268,101,9.1225,-2.3839,-9.7194,0.0437,-0.0464,-0.0143,66,6.062,117,6.6236,-2.9415,-13.0271,-0.2384,-0.276,0.1259,39
5.319,102,9.4091,-2.0651,-9.737,0.0455,-0.0432,-0.0055,66,6.113,118,6.3274,-2.7772,-13.2124,-0.3224,-0.197,0.1285,39
5.371,103,9.5039,-1.6579,-9.7956,0.1071,-0.0271,-0.0074,66,6.165,119,6.1405,-2.8859,-13.3539,-0.4207,-0.1519,0.1518,39
5.423,104,9.5604,-1.6694,-9.7412,-0.0319,0.0178,-0.0136,66,6.217,120,6.1096,-3.0249,-13.3924,-0.4644,-0.1503,0.1682,39
5.474,105,9.3412,-1.9941,-9.7107,-0.1,0.0149,-0.0254,66,6.268,121,6.1852,-3.1206,-13.699,-0.4451,-0.1528,0.1956,39
5.526,106,9.2662,-2.2112,-9.6528,-0.0377,-0.0292,-0.0413,66,6.32,122,6.627,-3.3122,-13.927,-0.3971,-0.1542,0.2361,39
5.578,107,9.8392,-1.8303,-10.1376,0.2664,-0.1773,-0.0253,66,6.372,123,7.0696,-3.3165,-14.0687,-0.3583,-0.1553,0.2886,39
5.63,108,9.8465,-2.1622,-10.0657,0.2581,-0.2264,0.0025,66,6.424,124,7.1849,-3.2887,-14.1603,-0.3311,-0.1542,0.3199,39
5.682,109,9.7588,-2.0558,-9.9878,0.2239,-0.2315,0.0212,66,6.476,125,7.2788,-3.236,-14.2127,-0.3052,-0.1465,0.3226,39
5.733,110,9.7056,-2.0561,-10.0743,0.236,-0.244,0.0272,66,6.527,126,7.3137,-3.2615,-14.2801,-0.2597,-0.1071,0.2856,39
5.785,111,9.6973,-1.95,-10.2423,0.127,-0.1451,0.0292,66,6.579,127,7.2942,-3.3047,-14.3193,-0.2042,-0.0496,0.206,39
5.837,112,9.6454,-1.9836,-10.3785,-0.0028,-0.0491,0.0192,66,6.631,128,7.3557,-3.4251,-14.4054,-0.1452,-0.0021,0.1322,39
5.889,113,9.6411,-1.9577,-10.3808,0.0124,-0.0087,0.0054,66,6.683,129,7.3855,-3.4436,-14.4362,-0.0698,0.0286,0.0777,39
5.941,114,9.5463,-2.0584,-10.2282,-0.0274,0.0154,0.0159,66,6.734,130,7.4992,-3.403,-14.4258,-0.0054,0.0524,0.0213,39
5.992,115,9.5389,-2.0496,-10.1795,-0.0885,0.0401,0.0347,66,6.786,131,7.3845,-3.4093,-14.4162,0.0067,0.0743,-0.035,39
6.044,116,9.6173,-1.8599,-10.253,-0.241,0.1003,0.059,66,6.838,132,7.2538,-3.4092,-14.485,0.0067,0.076,-0.0858,39
6.096,117,9.5458,-2.0349,-10.1427,-0.3011,0.092,0.07,66,6.89,133,7.1193,-3.3375,-14.5902,-0.0037,0.0585,-0.1159,39
6.148,118,9.521,-2.088,-10.1323,-0.3491,0.0869,0.0685,66,6.942,134,7.1108,-3.2578,-14.6028,-0.0059,0.0232,-0.1185,39
6.2,119,9.4484,-2.1653,-10.1293,-0.3547,0.0848,0.0601,66,6.993,135,7.1085,-3.179,-14.6267,-0.0431,-0.0104,-0.0964,39
6.251,120,9.4042,-2.2626,-10.1199,-0.3522,0.0654,0.0421,66,7.045,136,7.1388,-3.2038,-14.5265,-0.0707,-0.0329,-0.0591,39
6.303,121,9.4854,-2.2922,-9.8706,-0.3789,0.0585,0.0385,66,7.097,137,7.108,-3.174,-14.5537,-0.092,-0.0259,-0.0277,39
6.355,122,9.494,-2.3484,-9.9031,-0.3164,0.0289,0.0195,66,7.149,138,7.1767,-3.1109,-14.5713,-0.1003,-0.0069,0.0012,39
6.407,123,9.4685,-2.3405,-10.1062,-0.1834,-0.0023,-0.0069,66,7.201,139,7.2103,-3.133,-14.6087,-0.134,0.0027,0.0306,39
6.459,124,9.495,-2.4349,-10.0157,-0.162,0.0352,-0.0076,66,7.252,140,7.2388,-3.0884,-14.6656,-0.1469,-0.0019,0.0378,39
6.51,125,9.4677,-2.3514,-10.0378,-0.1452,0.0194,-0.0062,66,7.304,141,7.2233,-3.0733,-14.6095,-0.1506,-0.0053,0.037,39
6.562,126,9.4808,-2.3569,-10.0877,-0.1047,0.0107,-0.0146,66,7.356,142,7.1975,-3.0728,-14.5191,-0.1298,-0.0111,0.0257,39
6.614,127,9.4875,-2.3109,-10.0383,-0.0754,0.0253,-0.026,66,7.408,143,7.2752,-3.0894,-14.5661,-0.0747,-0.0174,-0.0023,39
6.666,128,9.2547,-2.6087,-9.886,0.0615,0.0085,-0.0405,66,7.459,144,7.4048,-3.1254,-14.6099,-0.0499,-0.0009,-0.0062,39
6.717,129,9.5311,-1.8706,-10.4554,0.4251,-0.162,-0.0356,66,7.511,145,7.4076,-3.0123,-14.6763,-0.0175,0.0189,0.014,39
6.769,130,9.7594,-2.6728,-10.1735,0.3706,-0.17,-0.0194,66,7.563,146,7.2935,-2.8712,-14.7195,0.0617,0.0273,-0.0096,39
6.821,131,9.7791,-2.3852,-10.0652,0.3546,-0.1702,-0.0215,66,7.615,147,7.2552,-2.8241,-14.733,0.0626,0.0159,-0.0486,39
6.873,132,9.8492,-2.2363,-9.9614,0.4815,-0.1761,-0.0187,66,7.667,148,7.3459,-2.9454,-14.7628,0.0403,0.0097,-0.032,39
6.925,133,9.635,-2.1046,-10.0523,0.3761,-0.0997,-0.0074,66,7.718,149,7.3425,-2.9938,-14.8005,0.0166,-0.0079,0.0102,39
6.976,134,9.661,-1.8519,-10.0291,0.2663,-0.0698,0.0074,66,7.77,150,7.3497,-2.9341,-14.7894,0.0413,-0.0193,0.0452,39
7.028,135,9.6153,-1.8879,-10.0128,0.2347,-0.0594,0.0163,66,7.822,151,7.3706,-2.8702,-14.638,0.0228,-0.0321,0.0654,39
7.08,136,9.6069,-1.6902,-10.2037,-0.0203,0.0117,0.0297,66,7.874,152,7.2483,-2.8376,-14.5589,-0.0417,-0.0273,0.0589,39
7.132,137,9.5664,-1.8544,-10.1642,-0.1562,0.058,0.0338,66,7.925,153,7.1997,-2.9148,-14.5039,-0.0514,-0.0125,0.0366,39
7.184,138,9.5332,-2.0727,-10.1508,-0.2357,0.0833,0.0366,66,7.977,154,7.259,-3.0098,-14.5836,-0.0237,-0.0097,0.0058,39
7.235,139,9.3247,-2.3865,-10.0357,-0.2483,0.0859,0.0311,66,8.029,155,7.3851,-3.0001,-14.6773,-0.0154,-0.0104,-0.0071,39
7.287,140,9.5989,-2.1252,-10.0305,-0.1816,0.0613,0.0237,66,8.081,156,7.4496,-3.0519,-14.6885,-0.028,-0.0237,-0.0024,39
7.339,141,9.5705,-2.0918,-9.9927,-0.1563,0.0636,0.028,66,8.133,157,7.3472,-3.0337,-14.6721,-0.0475,-0.033,0.0033,39
7.391,142,9.513,-2.2264,-9.9324,-0.1667,0.0453,0.0365,66,8.184,158,7.1571,-2.9655,-14.638,-0.0426,-0.0267,-0.0057,39
7.443,143,9.4997,-2.2764,-9.9413,-0.1608,0.0202,0.0322,66,8.236,159,7.0814,-2.9637,-14.626,-0.0274,-0.0231,-0.0281,39
7.494,144,9.3725,-2.4586,-9.7977,-0.1561,0.0304,0.0194,66,8.288,160,7.2014,-3.05,-14.6529,-0.0342,-0.0207,-0.0313,39
7.546,145,9.7867,-1.9934,-9.8532,-0.0537,-0.0391,0.0022,66,8.34,161,7.2456,-3.0597,-14.7697,-0.0075,-0.0181,-0.0242,39
7.598,146,9.6152,-2.0612,-9.923,0.0305,-0.0251,-0.0073,66,8.391,162,7.3106,-2.9937,-14.8311,0.0636,-0.0162,-0.0287,39
7.65,147,9.429,-2.3505,-9.8578,0.0598,-0.0595,-0.0015,66,8.443,163,7.3387,-2.9349,-14.8219,0.0294,-0.0077,-0.0122,39
7.702,148,10.2741,-1.7663,-9.9974,0.2278,-0.1443,-0.0019,66,8.495,164,7.36,-2.9995,-14.7037,-0.0039,0.014,0.0083,39
7.753,149,10.0253,-1.8634,-10.053,0.2223,-0.102,-0.0008,66,8.547,165,7.2747,-3.0345,-14.6423,0.0249,0.0198,-0.0012,39
7.805,150,9.7176,-2.1234,-9.999,0.1583,-0.0761,-0.0,66,8.598,166,7.2571,-3.0113,-14.763,0.0959,0.0299,-0.0357,39
7.857,151,9.3043,-2.4562,-9.8595,0.2917,-0.1002,-0.0038,66,8.651,167,7.2975,-2.9818,-14.8724,0.0873,0.039,-0.0247,39
7.909,152,9.5919,-1.591,-10.1009,0.3546,-0.1011,-0.0121,66,8.702,168,7.2853,-2.9865,-14.9321,0.0562,0.0256,0.0041,39
7.961,153,9.6048,-1.7222,-10.2137,0.1913,-0.0486,0.0043,66,8.754,169,7.1942,-2.8743,-14.8502,0.0395,-0.0026,0.0144,39
8.012,154,9.5195,-2.0481,-10.2435,-0.0088,0.0268,0.0171,66,8.806,170,7.1327,-2.8432,-14.699,0.0101,-0.0242,0.0187,39
8.064,155,9.4122,-2.0801,-10.2276,-0.0654,0.0422,0.0062,66,8.857,171,7.1212,-2.8544,-14.6403,-0.0291,-0.0222,0.0122,39
8.116,156,9.3476,-2.1699,-10.2026,-0.0699,0.0394,-0.0049,66,8.909,172,7.2546,-2.9334,-14.6647,0.0012,-0.0195,-0.0116,39
8.168,157,9.4376,-2.0899,-10.2408,-0.0378,0.0383,-0.0195,66,8.961,173,7.4465,-3.0426,-14.8256,0.013,-0.0123,-0.018,39
8.22,158,9.223,-2.3669,-9.9574,0.0925,0.0244,-0.0214,66,9.013,174,7.5156,-3.0316,-14.9407,-0.0205,-0.0237,0.0212,39
8.271,159,9.4618,-1.5314,-10.0471,0.1793,0.0184,-0.0129,66,9.065,175,7.3841,-3.0319,-14.9578,-0.0582,-0.0612,0.0692,39
8.323,160,9.5072,-1.7502,-10.0216,0.1533,0.0032,-0.0043,66,9.116,176,7.2753,-2.9616,-14.8333,-0.1021,-0.0889,0.1017,39
8.375,161,9.5357,-1.8272,-10.1398,0.0268,0.0275,-0.0018,66,9.168,177,7.2029,-2.9829,-14.7196,-0.1168,-0.0877,0.1164,39
8.427,162,9.5203,-1.995,-10.0831,-0.0611,0.0412,0.0037,66,9.22,178,7.1655,-2.9766,-14.7145,-0.1201,-0.0706,0.1103,39
8.478,163,9.4548,-2.0871,-10.0813,-0.1218,0.0592,0.0003,66,9.272,179,7.209,-3.0607,-14.786,-0.1076,-0.0569,0.0895,39
8.53,164,9.3934,-2.0827,-10.0378,-0.1019,0.0396,-0.0021,66,9.323,180,7.2195,-3.0448,-14.8481,-0.0843,-0.036,0.0712,39
8.582,165,9.4177,-2.1011,-10.1032,-0.0999,0.0246,0.0015,66,9.375,181,7.1476,-3.0759,-14.8655,-0.0786,-0.0254,0.0554,39
8.634,166,9.457,-2.1462,-10.0916,-0.0644,0.0264,-0.0008,66,9.427,182,7.0555,-3.1153,-15.0538,-0.0613,-0.0237,0.0322,39
8.686,167,9.3981,-2.2761,-10.0203,-0.0576,0.0152,0.0003,66,9.479,183,7.0476,-3.1816,-15.1586,-0.026,-0.0336,0.0332,39
8.737,168,9.4006,-2.2977,-9.9643,0.0292,-0.0146,0.0031,66,9.531,184,6.9601,-3.09,-15.1408,-0.016,-0.0434,0.0561,39
8.789,169,9.4191,-1.9589,-10.0758,0.0163,-0.0093,0.0075,66,9.582,185,6.9887,-3.0515,-14.9878,-0.0093,-0.0429,0.0648,39
8.841,170,9.5202,-1.8852,-10.046,0.013,-0.0075,0.0111,66,9.634,186,6.9853,-3.0884,-14.9484,-0.0549,-0.0215,0.0661,39
8.893,171,9.5027,-1.9274,-10.0444,-0.0169,0.0031,0.0093,66,9.686,187,6.9938,-3.143,-14.9974,-0.0502,0.0091,0.0626,39
8.944,172,9.4442,-2.0087,-10.0859,-0.0464,0.0093,0.0063,66,9.738,188,6.946,-3.1361,-15.055,-0.0434,0.0235,0.0581,39
8.996,173,9.416,-2.0831,-10.1189,-0.0507,0.0097,0.0042,66,9.789,189,6.8701,-3.1243,-15.1072,-0.0288,0.0224,0.0372,39
9.048,174,9.4196,-2.1131,-10.0777,-0.0426,0.0092,0.0021,66,9.841,190,6.949,-3.2082,-15.175,-0.0362,0.0151,0.0223,39
9.1,175,9.5004,-2.0802,-10.0373,-0.0195,-0.007,0.0013,66,9.893,191,6.9416,-3.2154,-15.2043,-0.0314,-0.0053,0.0154,39
9.152,176,9.4617,-2.0628,-10.0537,-0.0033,-0.0149,0.0005,66,9.945,192,6.9642,-3.2483,-15.1353,-0.0176,-0.0207,0.0152,39
9.204,177,9.4569,-2.0208,-10.0928,0.0124,-0.0128,-0.0023,66,9.997,193,6.9191,-3.2574,-15.0651,-0.0278,-0.0217,0.0218,39
9.255,178,9.4774,-2.0349,-10.0827,-0.0059,0.0002,-0.0012,66,10.048,194,6.9799,-3.2094,-15.0572,-0.0093,-0.0049,0.0268,39
9.307,179,9.4617,-2.1154,-10.066,-0.0023,0.0039,-0.0027,66,10.1,195,6.9512,-3.134,-15.088,-0.0072,0.0086,0.0232,39
9.359,180,9.4602,-2.1185,-10.0528,-0.0297,0.0143,-0.0009,66,10.152,196,6.9324,-3.0961,-15.1049,-0.008,0.0067,0.0039,39
9.411,181,9.4169,-2.1826,-10.0413,-0.0504,0.0193,-0.0029,66,10.204,197,6.9053,-3.0918,-15.1328,-0.0104,0.0037,-0.0161,39
9.463,182,9.3631,-2.1889,-10.0614,-0.0394,0.0197,-0.0049,66,10.256,198,6.9286,-3.1472,-15.1202,-0.0141,0.0049,-0.0186,39
9.514,183,9.3444,-2.1655,-10.0689,-0.0115,0.0178,-0.008,66,10.307,199,6.8876,-3.0783,-15.1368,-0.0086,0.0046,-0.0086,39
9.566,184,9.3077,-2.1364,-10.0743,-0.0046,0.012,-0.0032,66,10.359,200,6.8792,-2.9281,-15.0337,0.0099,-0.002,-0.0374,39
9.618,185,9.3623,-2.1498,-10.0854,0.0121,0.0077,-0.0039,66,10.411,201,6.9569,-2.9574,-14.9491,0.0033,0.0178,-0.0771,39
9.67,186,9.4322,-2.0905,-10.1009,0.0039,0.012,-0.0036,66,10.463,202,7.0204,-3.0947,-15.0165,-0.0398,0.0427,-0.0721,39
9.722,187,9.4567,-2.0761,-10.0954,-0.0216,0.0185,-0.0,66,10.514,203,7.1027,-3.1804,-15.1217,-0.028,0.0541,-0.05,39
9.773,188,9.4464,-2.0446,-10.1129,-0.0394,0.0244,-0.0016,66,10.566,204,7.1281,-3.2001,-15.1203,-0.0153,0.0524,-0.0156,39
9.825,189,9.4734,-2.0517,-10.1116,-0.0694,0.0404,0.0022,66,10.618,205,7.0523,-3.132,-15.1295,-0.0313,0.0377,0.0162,39
9.877,190,9.4803,-2.0589,-10.0344,-0.0738,0.0496,0.0055,66,10.67,206,6.938,-3.0402,-15.1021,-0.0206,0.0173,0.022,39
9.929,191,9.4374,-2.1082,-10.0511,-0.0605,0.0326,0.0054,66,10.722,207,6.8932,-2.9888,-15.0465,-0.0127,-0.0017,0.0105,39
9.98,192,9.423,-2.2012,-10.0056,-0.0582,0.0184,0.003,66,10.773,208,6.9309,-3.0271,-15.0318,-0.0293,-0.008,0.0048,39
10.032,193,9.5037,-2.1361,-9.9966,-0.0485,0.0112,0.0016,66,10.825,209,6.9695,-2.9711,-15.0953,-0.0203,-0.0112,0.0016,39
10.084,194,9.4721,-2.1355,-10.0012,-0.0309,0.0068,-0.0004,66,10.877,210,7.079,-3.0226,-15.0742,-0.0033,-0.0113,-0.012,39
10.136,195,9.4987,-2.081,-10.0642,0.0395,-0.0141,-0.0051,66,10.928,211,7.1188,-3.0028,-15.1,-0.0279,-0.0042,-0.0104,39
10.187,196,9.5255,-2.0878,-10.0686,0.047,-0.0176,-0.0035,66,10.98,212,7.0944,-2.9877,-15.1425,-0.0142,-0.008,-0.0115,39
10.239,197,9.4639,-2.0064,-10.0627,0.0849,-0.0123,-0.0038,66,11.032,213,7.0476,-2.9711,-15.1188,-0.007,-0.0209,-0.0135,39
10.291,198,9.5279,-1.9391,-10.0255,0.0889,-0.0209,-0.0033,66,11.084,214,7.0259,-2.989,-15.1344,-0.0055,-0.0323,-0.0085,39
10.343,199,9.5198,-1.9152,-10.0761,0.0519,0.0016,-0.0014,66,11.136,215,7.0145,-2.9839,-15.1617,-0.0124,-0.0347,0.0034,39
10.394,200,9.5606,-1.96,-10.057,0.041,0.0038,-0.0021,66,11.187,216,6.9718,-3.0126,-15.1945,-0.0125,-0.0428,0.0196,39
10.446,201,9.5166,-1.949,-10.0159,-0.0119,0.017,-0.0004,66,11.239,217,6.904,-2.9593,-15.1917,-0.001,-0.0617,0.0219,39
10.498,202,9.4498,-2.0706,-9.9503,-0.0542,0.0182,0.0047,66,11.291,218,6.9091,-2.9492,-15.1586,-0.0034,-0.0778,0.0111,39
10.55,203,9.4046,-2.0527,-9.9963,-0.0249,0.006,0.0022,66,11.343,219,6.9978,-2.9698,-15.1426,-0.0116,-0.0735,0.006,39
10.602,204,9.4243,-2.0741,-10.0041,-0.0332,0.0133,0.0029,66,11.394,220,7.041,-2.9933,-15.13,-0.0124,-0.0592,0.0014,39
10.654,205,9.4646,-2.0693,-9.953,-0.044,0.0196,0.0059,66,11.446,221,7.0111,-3.0044,-15.23,-0.0111,-0.0361,0.0004,39
10.706,206,9.4388,-2.0789,-9.9505,-0.0336,0.0169,0.0053,66,11.498,222,6.9484,-2.9815,-15.2739,0.0022,-0.0289,0.0019,39
10.757,207,9.4179,-2.101,-9.9338,-0.0227,0.0166,0.0068,66,11.55,223,6.9056,-2.9497,-15.2457,0.0007,-0.0257,-0.0006,39
10.809,208,9.3778,-2.162,-9.9382,-0.0061,0.0098,0.0074,66,11.602,224,6.8806,-2.9546,-15.2931,0.0127,-0.0242,-0.0084,39
10.861,209,9.3892,-2.1491,-9.9122,0.0132,-0.0004,0.0098,66,11.653,225,6.89,-3.0149,-15.2779,0.0175,-0.027,-0.0129,39
10.912,210,9.4347,-2.053,-9.9781,0.0232,-0.0043,0.0097,66,11.705,226,6.9362,-3.047,-15.2207,0.0144,-0.0179,-0.0034,39
10.964,211,9.4539,-2.0314,-9.9712,0.026,-0.0024,0.0104,66,11.757,227,6.8937,-3.01,-15.2807,0.0321,0.0016,0.0113,39
11.016,212,9.454,-2.0737,-9.9631,-0.0084,0.0049,0.013,66,11.809,228,6.9017,-2.9808,-15.3104,0.0314,0.0099,0.02,39
11.068,213,9.4455,-2.1156,-9.9661,-0.0043,0.0007,0.0142,66,11.861,229,6.8777,-2.9877,-15.4038,0.0189,-0.0017,0.0255,39
11.12,214,9.4792,-2.0982,-9.9502,-0.0129,0.0079,0.0127,66,11.912,230,6.8273,-2.9159,-15.4273,0.0284,-0.0283,0.0158,39
11.171,215,9.4724,-2.094,-9.9503,-0.0295,0.0106,0.0122,66,11.964,231,6.792,-2.9878,-15.2833,0.0098,-0.0551,-0.0034,39
11.223,216,9.4724,-2.0712,-9.9182,-0.017,0.0088,0.011,66,12.016,232,6.8059,-3.0358,-15.1881,-0.0009,-0.0437,-0.0187,39
11.275,217,9.4805,-2.1577,-9.9213,-0.0244,0.0169,0.0088,66,12.068,233,6.8976,-3.2073,-15.2491,-0.0061,-0.0224,-0.017,39
11.327,218,9.4159,-2.174,-9.875,-0.0024,0.0084,0.0052,66,12.119,234,6.9595,-3.1858,-15.3505,-0.0032,-0.0079,0.0106,39
11.378,219,9.4018,-2.1681,-9.895,0.0001,0.0011,0.0039,66,12.171,235,6.9171,-3.2301,-15.3927,-0.0129,-0.009,0.0323,39
11.43,220,9.4344,-2.1205,-9.9005,-0.0082,-0.0055,0.0073,66,12.223,236,6.8112,-3.0641,-15.3921,-0.0325,-0.0159,0.0453,39
11.482,221,9.4189,-2.1555,-9.886,0.0085,-0.0121,0.0072,66,12.275,237,6.7324,-3.0269,-15.4332,-0.0189,-0.0248,0.0365,39
11.534,222,9.4011,-2.1283,-9.8959,0.0301,-0.0222,0.004,66,12.327,238,6.7158,-2.9358,-15.4277,-0.0069,-0.0342,0.0097,39
11.586,223,9.4132,-2.1446,-9.902,0.0491,-0.0386,0.0026,66,12.378,239,6.7283,-2.928,-15.4336,-0.0225,-0.0365,-0.0077,39
11.637,224,9.4377,-2.1132,-9.9317,0.0541,-0.0391,-0.0002,66,12.43,240,6.7645,-2.9855,-15.506,-0.0409,-0.0389,-0.0116,39
11.689,225,9.4168,-2.1172,-9.9666,0.0441,-0.0312,-0.0027,66,12.482,241,6.7485,-3.0467,-15.5606,-0.0409,-0.054,0.0,39
11.741,226,9.4245,-2.0685,-9.9922,0.0372,-0.0222,-0.0026,66,12.534,242,6.6939,-3.0458,-15.5894,-0.0494,-0.0764,0.0195,39
11.793,227,9.433,-2.0907,-9.9757,0.0245,-0.0186,-0.0041,66,12.585,243,6.6352,-2.9464,-15.5655,-0.0414,-0.0938,0.0295,39
11.845,228,9.4305,-2.096,-9.9691,0.0234,-0.0135,-0.002,66,12.637,244,6.5765,-2.8539,-15.363,-0.0398,-0.0827,0.0126,39
11.896,229,9.4495,-2.0987,-9.9765,0.0002,-0.0073,0.0013,66,12.689,245,6.5962,-2.9263,-15.3341,-0.0345,-0.0472,-0.0079,39
11.948,230,9.4755,-2.0815,-9.9279,-0.0309,0.0015,0.0007,66,12.741,246,6.6352,-3.0355,-15.5247,-0.0506,-0.0155,-0.0245,39
12.0,231,9.4663,-2.0518,-9.9426,-0.0107,-0.0002,-0.0008,66,12.793,247,6.7691,-3.1294,-15.6384,0.0099,-0.0012,-0.0251,39
12.052,232,9.3747,-2.1356,-9.9127,0.0289,-0.0034,-0.0001,66,12.844,248,6.7778,-3.2057,-15.6582,0.0245,-0.0035,-0.0027,39
12.104,233,9.5138,-2.1171,-9.9312,0.0026,-0.013,0.0075,66,12.896,249,6.7391,-3.0972,-15.598,0.0567,-0.0069,0.0119,39
12.155,234,9.4825,-2.1212,-9.9385,0.0211,-0.0128,0.0109,66,12.948,250,6.7146,-3.0262,-15.5956,0.0754,-0.0029,0.002,39
12.207,235,9.4539,-2.1495,-9.9441,0.0491,-0.0165,0.0121,66,13.0,251,6.6777,-2.9775,-15.6574,0.0687,-0.0056,-0.0088,39
12.259,236,9.5451,-2.0146,-10.0102,0.0886,-0.0291,0.0105,66,13.052,252,6.6242,-2.9555,-15.7458,0.0498,-0.0184,-0.0084,39
12.311,237,9.5501,-1.9313,-10.0244,0.0892,-0.0251,0.0111,66,13.103,253,6.5299,-2.9424,-15.738,0.0188,-0.0505,0.0046,39
12.363,238,9.5373,-1.9278,-10.0808,0.0412,-0.0126,0.0129,66,13.155,254,6.4717,-2.916,-15.5388,0.0094,-0.072,0.0146,39
12.414,239,9.4567,-2.1158,-10.031,-0.0034,-0.0047,0.0111,66,13.207,255,6.5472,-2.8924,-15.4433,0.0178,-0.058,0.0078,39
12.466,240,9.429,-2.1359,-10.005,-0.0396,0.0002,0.0082,66,13.259,256,6.6254,-3.0316,-15.6367,-0.0093,-0.0455,0.0048,39
12.518,241,9.4342,-2.1241,-10.0142,-0.012,-0.0039,0.0039,66,13.311,257,6.6964,-3.0368,-15.7081,0.0031,-0.0495,0.0002,39
12.57,242,9.4336,-2.0724,-10.0336,-0.0004,-0.0005,0.0078,66,13.362,258,6.6742,-3.0669,-15.6389,0.0135,-0.0424,0.0011,39
12.621,243,9.4254,-2.1064,-10.0245,-0.011,0.0016,0.0063,66,13.414,259,6.6232,-3.0521,-15.6138,0.0132,-0.0232,0.003,39
12.673,244,9.4226,-2.0992,-10.0109,-0.0198,0.0052,0.007,66,13.466,260,6.5619,-3.0507,-15.6751,0.0193,-0.0121,0.006,39
12.725,245,9.4584,-2.0755,-10.0254,-0.0238,0.0042,0.0067,66,13.517,261,6.5133,-3.054,-15.6808,0.0139,-0.0147,0.0087,39
12.777,246,9.4361,-2.0674,-10.0188,-0.0355,0.0066,0.0051,66,13.569,262,6.5042,-3.0645,-15.7173,0.0114,-0.0174,0.0042,39
12.829,247,9.3977,-2.0997,-10.0108,-0.037,0.0074,0.0021,66,13.621,263,6.5565,-3.1049,-15.7096,0.0071,-0.0197,0.0008,39
12.88,248,9.3667,-2.1329,-9.9681,-0.0073,-0.0052,0.0015,66,13.673,264,6.5834,-3.1343,-15.6989,0.0048,-0.0127,0.0034,39
12.932,249,9.4272,-2.1032,-9.9959,-0.0045,-0.0059,0.0024,66,13.725,265,6.5856,-3.1475,-15.6788,0.0206,0.0013,0.0039,39
12.984,250,9.3977,-2.1476,-9.9907,0.0078,-0.0082,0.0027,66,13.776,266,6.5529,-3.1562,-15.6717,0.0183,0.0167,0.0118,39
13.036,251,9.4091,-2.1609,-9.9857,0.0201,-0.0121,0.0022,66,13.828,267,6.5431,-3.1697,-15.7076,0.0258,0.0253,0.0228,39
13.088,252,9.3875,-2.1828,-9.9693,0.0388,-0.0124,-0.0022,66,13.88,268,6.502,-3.1189,-15.727,0.0504,0.0295,0.0263,39
13.139,253,9.3919,-2.1264,-9.9941,0.0624,-0.0207,-0.0047,66,13.932,269,6.5057,-3.1261,-15.7007,0.0654,0.0258,0.0214,39
13.191,254,9.373,-2.1149,-10.0373,0.0766,-0.0195,-0.0034,66,13.984,270,6.5249,-3.1369,-15.6394,0.0418,0.0239,0.019,39
13.243,255,9.3932,-2.133,-10.0573,0.0898,-0.0208,-0.0038,66,14.035,271,6.5211,-3.1622,-15.7024,0.0313,0.0256,0.029,39
13.295,256,9.3885,-2.1246,-10.0621,0.0672,-0.0162,-0.005,66,14.087,272,6.5614,-3.1522,-15.704,0.0399,0.0222,0.0335,39
13.346,257,9.426,-2.0766,-10.0755,0.0564,-0.0119,-0.0033,66,14.139,273,6.5789,-3.1777,-15.6271,0.0121,0.0141,0.0436,39
13.398,258,9.4824,-1.9689,-10.1296,-0.0028,0.009,-0.0023,66,14.191,274,6.586,-3.1828,-15.5111,0.0015,0.0198,0.0403,39
13.45,259,9.4179,-2.1811,-10.0231,-0.071,0.022,0.0007,66,14.243,275,6.539,-3.1957,-15.5148,-0.0039,0.0407,0.0176,39
13.502,260,9.3789,-2.1469,-10.0099,-0.0794,0.023,-0.0032,66,14.294,276,6.5792,-3.2272,-15.5072,0.0187,0.0524,-0.0036,39
13.554,261,9.4012,-2.1243,-10.0006,-0.0449,0.0146,-0.0048,66,14.346,277,6.6019,-3.3078,-15.5836,-0.0111,0.0493,0.0014,39
13.606,262,9.4451,-2.071,-10.0188,-0.0246,0.0147,-0.0038,66,14.398,278,6.6244,-3.338,-15.6304,0.0006,0.033,0.0116,39
13.657,263,9.4741,-2.0537,-9.9988,-0.0085,0.0127,-0.0042,66,14.45,279,6.5774,-3.3381,-15.5955,0.0006,0.0153,0.023,39
13.709,264,9.4752,-2.0323,-10.0253,-0.0198,0.0116,-0.003,66,14.502,280,6.5702,-3.2862,-15.5198,-0.0097,0.0047,0.0259,39
13.761,265,9.4535,-2.1029,-9.9197,-0.0551,0.0148,-0.0015,66,14.554,281,6.5436,-3.3017,-15.4941,-0.0228,0.0062,0.0254,39
