right_leg_timestamp,right_leg_index,right_leg_accel_x,right_leg_accel_y,right_leg_accel_z,right_leg_gyro_x,right_leg_gyro_y,right_leg_gyro_z,right_leg_battery_percentage,left_leg_timestamp,left_leg_index,left_leg_accel_x,left_leg_accel_y,left_leg_accel_z,left_leg_gyro_x,left_leg_gyro_y,left_leg_gyro_z,left_leg_battery_percentage
0.892,17,12.3528,-0.5459,-16.391,0.3358,-1.4512,-0.1348,72,0.135,2,8.6323,0.3575,-11.3264,0.1097,0.4314,-0.2363,39
0.943,18,11.8795,-0.5491,-17.2981,-0.2323,-1.7325,-0.0866,72,0.187,3,8.7473,0.4618,-11.3661,0.2598,0.3761,-0.2029,39
0.995,19,10.7335,-0.2881,-17.4843,-0.3974,-1.9379,-0.1032,72,0.239,4,8.579,1.0068,-11.2083,0.236,0.3045,-0.1376,39
1.047,20,9.1532,-0.1232,-17.304,-0.4817,-2.0877,-0.0764,72,0.291,5,8.5368,1.5173,-11.003,0.1677,0.2425,-0.077,39
1.099,21,7.1898,-0.2961,-16.7377,-0.6292,-2.1971,0.0131,72,0.342,6,8.3608,1.6448,-10.9833,-0.3458,0.1425,-0.0194,39
1.151,22,5.573,0.1123,-15.1242,-0.6269,-2.277,0.1473,72,0.394,7,8.6785,1.4254,-10.7051,-0.345,0.0796,-0.0104,39
1.203,23,4.2333,0.7497,-13.4371,-0.7431,-1.812,0.2143,72,0.446,8,8.7749,1.2437,-10.8493,-0.2201,0.08,-0.0205,39
1.254,24,2.9266,0.8504,-13.8563,-0.6058,-1.0649,0.2317,72,0.498,9,8.7749,1.2394,-10.8307,-0.0936,0.1433,-0.047,39
1.306,25,1.8039,1.0275,-15.4216,-0.4184,-0.411,0.2057,72,0.55,10,8.7526,1.0086,-10.6754,-0.0017,0.2124,-0.0642,39
1.358,26,1.5269,1.3495,-16.7196,-0.2739,-0.0199,0.1924,72,0.601,11,8.7148,1.2783,-10.4762,-0.0005,0.1713,-0.0489,39
1.41,27,1.1795,1.6112,-18.2173,-0.2666,0.1126,0.1421,72,0.653,12,8.7217,1.5197,-10.3641,-0.0326,0.0785,-0.0409,39
1.461,28,0.418,1.2746,-19.1143,-0.1369,-0.0151,0.1231,72,0.705,13,8.7974,1.4156,-10.4041,-0.2774,-0.0226,0.0069,39
1.513,29,0.7608,1.7152,-18.16,-0.0253,-0.0767,0.1144,72,0.757,14,8.9341,1.1445,-10.4255,-0.3209,-0.074,0.0092,39
1.565,30,0.9652,1.8977,-18.0567,0.0773,0.0494,0.024,72,0.809,15,8.8791,1.1717,-10.4442,-0.3114,-0.0829,-0.0113,39
1.617,31,0.9137,1.9931,-18.4547,0.1161,0.233,-0.0581,72,0.86,16,8.9657,1.0203,-10.514,-0.2244,-0.0625,-0.0412,39
1.669,32,1.0036,2.232,-19.0994,0.1384,0.2651,-0.1001,72,0.912,17,9.1955,0.796,-10.3406,0.0712,0.0142,-0.0935,39
1.72,33,1.032,2.328,-19.6861,0.1154,0.2296,-0.1012,72,0.964,18,9.2472,1.2614,-10.4197,0.3149,0.0699,-0.0888,39
1.772,34,1.2686,2.3335,-19.8064,0.0298,0.1708,-0.0631,72,1.016,19,9.1715,1.3983,-10.5076,0.502,0.1111,-0.0597,39
1.824,35,1.1628,2.3888,-19.5511,-0.028,0.1264,-0.0452,72,1.068,20,8.8953,1.6467,-10.4251,0.5647,0.1521,-0.0272,39
1.876,36,0.9693,2.1952,-19.2021,-0.0479,0.1039,-0.0683,72,1.12,21,8.694,2.1981,-10.138,0.3653,0.1065,-0.0071,39
1.928,37,0.8229,1.9961,-19.1612,-0.0377,0.118,-0.1275,72,1.171,22,9.4404,1.1885,-10.0128,0.0683,-0.0567,0.0327,39
1.979,38,1.0484,1.9865,-19.448,-0.0211,0.138,-0.1602,72,1.223,23,9.4838,1.1536,-10.21,-0.1224,-0.136,0.0371,39
2.031,39,1.1046,2.0171,-19.788,0.0439,0.12,-0.1345,72,1.275,24,9.2468,1.3851,-10.3582,-0.1007,-0.1374,0.0261,39
2.083,40,1.0637,2.0582,-19.7827,0.016,0.0936,-0.1041,72,1.327,25,9.168,1.3053,-10.4769,-0.1217,-0.129,0.0191,39
2.134,41,0.9947,2.2571,-19.4963,0.006,0.0701,-0.0797,72,1.378,26,9.264,1.3883,-10.3426,-0.0985,-0.0663,-0.0026,39
2.186,42,0.987,2.2761,-19.2382,0.0118,0.0593,-0.0422,72,1.43,27,9.1957,1.396,-10.4757,0.0111,-0.0261,-0.0092,39
2.238,43,1.0692,2.1196,-19.2918,-0.0241,0.0737,-0.0162,72,1.482,28,9.0699,1.5709,-10.4278,0.0372,-0.009,-0.0107,39
2.29,44,1.1207,2.0328,-19.4579,-0.0055,0.0652,-0.039,72,1.534,29,9.0472,1.5453,-10.4741,0.0444,-0.0151,-0.0051,39
2.342,45,1.1524,2.0083,-19.5136,0.0284,0.0317,-0.0697,72,1.586,30,9.0751,1.4211,-10.5107,0.0699,-0.0011,-0.003,39
2.393,46,1.179,2.0107,-19.5112,0.0352,0.0116,-0.0871,72,1.637,31,9.0147,1.7204,-10.3894,0.1517,0.006,0.0049,39
2.445,47,1.1818,2.0659,-19.3942,0.0522,0.0004,-0.093,72,1.689,32,8.8226,1.8081,-10.3458,0.0849,-0.0145,0.0135,39
2.497,48,1.1237,2.0111,-19.2321,0.0501,0.0006,-0.0864,72,1.741,33,8.3837,2.439,-10.3306,-0.2503,-0.086,0.0327,39
2.549,49,0.9907,1.8027,-19.1698,0.0412,0.0301,-0.0901,72,1.793,34,8.6592,1.8964,-10.3978,-0.4773,-0.2008,0.0775,39
2.601,50,1.1124,1.5829,-19.4205,0.0329,0.0715,-0.0933,72,1.844,35,8.8044,1.7785,-10.6806,-0.4549,-0.2489,0.0601,39
2.652,51,1.2838,1.5403,-19.7335,0.0412,0.0599,-0.0806,72,1.896,36,8.8123,1.472,-10.9339,-0.3826,-0.1998,0.0369,39
2.704,52,1.2473,1.8927,-19.6971,0.0916,0.0067,-0.111,72,1.948,37,8.851,1.2425,-10.9145,-0.2846,-0.1282,-0.0045,39
2.756,53,1.1754,2.0052,-19.4858,0.1288,-0.0239,-0.1645,72,2.0,38,8.7994,1.5448,-10.8991,-0.1446,-0.0725,-0.0394,39
2.808,54,1.1933,2.0948,-19.3442,0.074,0.0049,-0.1766,72,2.052,39,8.8518,1.358,-10.976,-0.0274,-0.0313,-0.066,39
2.86,55,1.1475,2.0897,-19.3947,0.0622,0.0496,-0.1657,72,2.104,40,8.7688,1.0021,-11.2215,0.3882,0.1211,-0.0954,39
2.912,56,1.2008,1.9343,-19.6424,0.0328,0.0616,-0.1275,72,2.155,41,8.6759,1.3183,-11.0496,0.4401,0.1403,-0.084,39
2.963,57,1.2654,1.8675,-19.7356,0.0243,0.0228,-0.0859,72,2.207,42,8.562,1.8726,-10.7428,0.3027,0.0498,-0.0504,39
3.015,58,1.2082,1.8938,-19.4302,0.0211,-0.0135,-0.051,72,2.259,43,8.4458,2.2894,-10.7894,0.0448,-0.0345,-0.0265,39
3.067,59,0.9951,1.852,-19.3841,0.0209,0.0042,-0.0403,72,2.311,44,8.9164,1.2279,-10.7867,-0.1484,-0.11,0.0274,39
3.119,60,1.2424,1.94,-19.5183,0.0234,0.0496,-0.0375,72,2.362,45,8.8042,1.172,-10.9207,0.0068,0.0023,-0.0172,39
3.17,61,1.3334,2.1411,-19.7118,0.0243,0.0965,-0.0055,72,2.414,46,8.8434,1.4899,-11.1433,0.3578,0.0888,-0.0617,39
3.222,62,1.2475,2.2484,-19.8017,-0.0104,0.0781,0.0213,72,2.466,47,8.8648,1.5263,-11.1061,0.5277,0.1789,-0.0543,39
3.274,63,1.1681,2.25,-19.6007,-0.0506,0.0208,0.0081,72,2.518,48,8.5847,1.7854,-10.7637,0.5119,0.1621,-0.0283,39
3.326,64,1.1983,2.0758,-19.3216,-0.1026,-0.0134,-0.0383,72,2.569,49,8.5461,1.7338,-10.6909,0.4168,0.0788,-0.0019,39
3.377,65,1.3074,1.8304,-19.252,-0.0814,-0.0189,-0.0902,72,2.621,50,8.5718,2.0518,-10.7074,0.2507,0.0315,0.0056,39
3.429,66,1.4009,1.6296,-19.1856,-0.0428,0.0093,-0.0943,72,2.673,51,8.1301,2.1063,-10.7788,-0.2089,-0.0561,0.0515,39
3.481,67,1.3543,1.6038,-19.2282,0.0257,0.0713,-0.0354,72,2.725,52,8.4964,2.0541,-10.7586,-0.1058,-0.0417,0.0216,39
3.533,68,1.4072,1.7574,-19.497,0.0411,0.1034,0.0424,72,2.777,53,8.4233,2.0004,-10.9188,-0.0978,-0.037,0.0204,39
3.585,69,1.3459,1.9748,-19.6025,0.058,0.0873,0.0655,72,2.828,54,8.7059,1.4118,-10.8779,-0.0171,0.0287,0.0086,39
3.636,70,1.2799,2.1382,-19.5103,0.0386,0.0523,0.0334,72,2.88,55,8.757,1.4938,-10.8192,0.0698,0.0268,0.0069,39
3.688,71,1.4513,2.1633,-19.425,-0.0051,0.0356,-0.0005,72,2.932,56,8.7943,1.4737,-10.8171,0.1326,0.0301,0.0091,39
3.74,72,1.4113,2.0241,-19.3499,-0.007,0.0287,-0.0129,72,2.984,57,8.7058,1.8042,-10.878,0.0901,0.0397,0.0131,39
3.792,73,1.4236,1.7667,-19.2975,-0.0294,0.0248,-0.0055,72,3.035,58,8.5425,2.5819,-10.6971,-0.0655,0.0486,-0.0039,39
3.844,74,1.3068,1.6055,-19.2653,-0.014,0.0173,0.0322,72,3.087,59,8.2809,1.9257,-10.8984,-0.7249,-0.0639,0.0423,39
3.895,75,1.528,1.6148,-19.3953,0.1107,0.0425,0.0511,72,3.139,60,8.5366,1.8432,-10.5708,-0.4413,-0.0699,-0.0164,39
3.947,76,1.772,1.8244,-19.6739,0.1051,0.0759,0.144,72,3.191,61,8.6381,1.598,-10.9716,-0.2589,-0.0556,0.0016,39
3.999,77,1.8399,1.938,-19.7113,0.095,0.0513,0.1817,72,3.243,62,8.6229,1.6329,-10.9493,-0.2455,-0.0294,0.0196,39
4.051,78,1.5533,2.0624,-19.3672,0.0641,0.021,0.1083,72,3.294,63,8.694,1.5241,-10.6777,-0.1171,0.0455,0.0172,39
4.103,79,1.6578,1.9636,-19.1815,-0.011,0.0331,0.0156,72,3.346,64,8.7338,1.5096,-10.6612,-0.0052,0.0236,0.0142,39
4.155,80,1.7052,1.7056,-19.2724,0.0178,0.0531,-0.058,72,3.398,65,8.7417,1.6211,-10.6908,0.0372,0.0069,0.0055,39
4.206,81,1.6318,1.4379,-19.452,0.0458,0.043,-0.1035,72,3.45,66,8.7477,1.713,-10.7584,-0.0332,0.0039,0.0219,39
4.258,82,1.5397,1.3199,-19.6503,0.134,-0.026,-0.1243,72,3.502,67,8.6109,1.6862,-10.7084,-0.1862,-0.0136,0.0143,39
4.31,83,1.4745,1.3027,-19.6131,0.1717,-0.11,-0.1185,72,3.553,68,8.6922,1.4683,-10.6017,-0.2469,-0.0607,0.0171,39
4.362,84,1.5622,1.4404,-19.4563,0.1926,-0.1512,-0.1037,72,3.605,69,8.6779,1.4879,-10.727,-0.1879,-0.068,0.0023,39
4.413,85,1.6132,1.5912,-19.3122,0.1637,-0.1117,-0.084,72,3.657,70,8.7146,1.4249,-10.7945,-0.1219,-0.0313,-0.012,39
4.465,86,1.5714,1.7804,-19.3393,0.1342,-0.0433,-0.0668,72,3.709,71,8.8018,1.3707,-10.6888,0.0696,0.0666,-0.0504,39
4.517,87,1.5607,1.7078,-19.6007,0.0555,0.0144,-0.0645,72,3.761,72,8.8346,1.3774,-10.7376,0.1918,0.0823,-0.0439,39
4.569,88,1.5583,1.6203,-19.7173,0.009,0.0128,-0.0579,72,3.812,73,8.7878,1.5122,-10.7135,0.1412,0.0506,-0.0171,39
4.621,89,1.4093,1.5243,-19.6683,-0.0085,-0.0229,-0.0126,72,3.864,74,8.7815,1.5467,-10.6687,0.1128,0.0289,-0.0053,39
4.672,90,1.3696,1.4359,-19.4934,-0.0523,-0.0466,0.0229,72,3.916,75,8.6858,1.6361,-10.7652,-0.0291,-0.0506,0.0074,39
4.724,91,1.3769,1.3372,-19.3824,-0.0408,-0.0382,0.0152,72,3.968,76,8.7516,1.562,-10.7479,-0.1505,-0.1075,0.0319,39
4.776,92,1.4521,1.3157,-19.3708,-0.0106,-0.0027,-0.0088,72,4.019,77,8.7904,1.5579,-10.8319,-0.1869,-0.1105,0.0382,39
4.828,93,1.4623,1.4325,-19.5292,-0.0141,0.0257,-0.018,72,4.071,78,8.8271,1.3138,-10.8828,-0.0759,-0.0509,0.0047,39
4.879,94,1.3763,1.4577,-19.6538,0.0117,0.0103,-0.0274,72,4.123,79,8.6753,0.9274,-11.0356,0.1587,0.125,-0.0441,39
4.931,95,1.5121,1.5431,-19.6635,-0.0276,-0.0022,-0.0345,72,4.175,80,8.7497,1.1296,-10.9158,0.288,0.1423,-0.0317,39
4.983,96,1.5238,1.5958,-19.5926,-0.0268,-0.0127,-0.0362,72,4.226,81,8.6846,1.5331,-10.7656,0.3073,0.1147,-0.0215,39
5.035,97,1.4013,1.5552,-19.4081,-0.0413,-0.0233,-0.029,72,4.278,82,8.5209,2.0356,-10.5982,0.2493,0.0966,-0.0204,39
5.087,98,1.25,1.5506,-19.2283,-0.0618,-0.045,-0.0367,72,4.33,83,8.2661,2.219,-10.3817,-0.0694,0.0089,-0.0257,39
5.138,99,1.3291,1.3845,-19.3441,-0.0635,-0.0339,-0.0403,72,4.382,84,8.5461,1.896,-10.4541,-0.1035,-0.1294,-0.0189,39
5.19,100,1.5627,1.4053,-19.5646,-0.0825,-0.0043,0.0039,72,4.433,85,8.652,1.7902,-10.7781,-0.1009,-0.1568,-0.003,39
5.242,101,1.5776,1.5479,-19.6415,-0.0391,0.0235,0.0497,72,4.485,86,8.6831,1.6032,-10.9456,-0.0953,-0.0854,-0.0021,39
5.294,102,1.4005,1.7866,-19.6054,-0.0274,0.0353,0.0573,72,4.537,87,8.6843,1.6809,-10.9347,-0.0044,0.0061,-0.0062,39
5.346,103,1.4089,1.8935,-19.5586,-0.0604,0.0339,0.0154,72,4.589,88,8.6866,1.7164,-10.8912,0.1088,0.0475,-0.0003,39
5.397,104,1.3168,1.8058,-19.4507,-0.0543,0.024,-0.0361,72,4.641,89,8.6849,1.6667,-10.8701,0.0887,0.0488,0.0153,39
5.449,105,1.2652,1.6616,-19.3611,-0.0421,0.014,-0.0638,72,4.692,90,8.6968,1.83,-10.8565,0.0137,0.0162,0.0239,39
5.501,106,1.2174,1.5234,-19.4422,-0.005,-0.0001,-0.0712,72,4.744,91,8.7568,1.5544,-10.8355,-0.0104,0.0033,0.0313,39
5.553,107,1.2587,1.5266,-19.5339,0.0405,-0.0199,-0.0628,72,4.796,92,8.7929,1.5382,-10.8571,-0.0442,-0.0369,0.0347,39
5.605,108,1.3253,1.6461,-19.5075,0.028,-0.0291,-0.036,72,4.848,93,8.8113,1.4584,-10.9365,-0.0126,-0.0051,0.0307,39
5.656,109,1.2874,1.721,-19.5092,0.0523,-0.0383,-0.0329,72,4.9,94,8.7944,1.453,-10.8973,-0.0177,0.0317,0.0225,39
5.708,110,1.3476,1.6779,-19.4529,0.0268,-0.0302,-0.0467,72,4.951,95,8.75,1.4502,-10.7956,-0.0592,0.0475,0.0208,39
5.76,111,1.5442,1.7315,-19.4363,-0.0092,0.0153,-0.0339,72,5.003,96,8.7885,1.3596,-10.8087,-0.0623,0.0463,0.0156,39
5.812,112,1.4844,1.6946,-19.5794,-0.0151,0.0554,-0.003,72,5.055,97,8.999,1.4161,-10.5115,0.0473,0.1737,-0.0343,39
5.864,113,1.4069,1.6276,-19.6433,-0.0137,0.0501,0.0181,72,5.107,98,8.8879,1.4703,-10.546,0.0796,0.181,-0.0348,39
5.915,114,1.3535,1.6182,-19.4953,-0.0017,0.0268,0.0223,72,5.159,99,8.8491,1.4979,-10.5099,0.0351,0.1107,-0.0228,39
5.967,115,1.3749,1.595,-19.3361,0.0107,0.0197,0.0265,72,5.21,100,8.7783,1.7034,-10.4809,0.0034,0.0449,-0.0093,39
6.019,116,1.3617,1.5627,-19.2871,0.0063,0.0456,0.0293,72,5.262,101,8.9057,1.4339,-10.5096,-0.1275,-0.0134,0.012,39
6.071,117,1.3373,1.5525,-19.4267,-0.0097,0.077,0.0379,72,5.314,102,8.9374,1.3819,-10.565,-0.1497,-0.0238,0.0136,39
6.122,118,1.4137,1.6687,-19.6435,0.0058,0.0591,0.0545,72,5.366,103,8.8864,1.5069,-10.574,-0.086,0.0027,0.003,39
6.174,119,1.5173,1.7611,-19.6679,0.0009,0.0215,0.0537,72,5.417,104,8.9109,1.4396,-10.5743,-0.045,0.0232,-0.0023,39
6.226,120,1.5485,1.7668,-19.5001,-0.0411,0.0019,0.0466,72,5.469,105,8.8976,1.5149,-10.574,-0.0101,0.0189,-0.0058,39
6.278,121,1.6379,1.7188,-19.3707,-0.0319,0.0019,0.0242,72,5.521,106,8.8646,1.5562,-10.5198,-0.0236,-0.0007,0.005,39
6.33,122,1.588,1.5293,-19.3633,-0.0287,0.0223,0.0001,72,5.573,107,8.8134,1.7031,-10.5113,-0.0613,-0.0321,0.0159,39
6.381,123,1.5925,1.4775,-19.3918,-0.0505,0.0398,0.0005,72,5.625,108,8.8547,1.4419,-10.5445,-0.103,-0.036,0.0249,39
6.433,124,1.549,1.5644,-19.5225,-0.021,0.0325,0.0146,72,5.676,109,8.9946,1.4046,-10.529,-0.039,0.0045,-0.0003,39
6.485,125,1.6062,1.7167,-19.5496,0.0073,-0.0031,-0.0026,72,5.728,110,8.9596,1.471,-10.4866,0.1054,0.0783,-0.0189,39
6.537,126,1.6762,1.7916,-19.4392,0.0039,-0.024,-0.0354,72,5.78,111,8.9632,1.5136,-10.4394,0.0891,0.0599,-0.0167,39
6.589,127,1.6869,1.8487,-19.2751,0.0001,-0.0134,-0.048,72,5.832,112,8.9909,1.3595,-10.4757,0.1196,0.0516,-0.0205,39
6.64,128,1.6102,1.8131,-19.2093,-0.0255,0.0264,-0.051,72,5.883,113,8.9383,1.4808,-10.4896,0.1065,0.0347,-0.015,39
6.692,129,1.5511,1.7946,-19.3908,-0.0254,0.05,-0.0786,72,5.935,114,8.8824,1.5003,-10.4472,0.1378,0.0551,-0.0152,39
6.744,130,1.4865,1.791,-19.5171,0.0037,0.0221,-0.1077,72,5.987,115,8.8903,1.5251,-10.3791,0.1109,0.0472,-0.0131,39
6.796,131,1.5061,1.7844,-19.5243,-0.0353,-0.004,-0.0993,72,6.039,116,8.988,1.4236,-10.3334,0.1049,0.0419,-0.0166,39
6.848,132,1.5705,1.8595,-19.4621,-0.0298,-0.0152,-0.0854,72,6.091,117,8.9958,1.4272,-10.4,0.1016,0.0336,-0.0154,39
6.899,133,1.581,1.9446,-19.4235,-0.0153,-0.0145,-0.0611,72,6.142,118,8.9607,1.4827,-10.4046,0.0925,0.0358,-0.0112,39
6.951,134,1.5862,2.0236,-19.4123,0.0103,-0.0196,-0.0508,72,6.194,119,8.8627,1.5862,-10.355,0.0873,0.0315,-0.011,39
7.003,135,1.5375,2.0586,-19.3766,-0.0462,-0.0165,-0.0467,72,6.246,120,8.6736,1.7754,-10.2289,0.0072,-0.01,-0.0106,39
7.055,136,1.4299,2.0389,-19.3669,-0.0606,-0.014,-0.0226,72,6.298,121,8.8118,1.5145,-10.2918,-0.0637,-0.0667,0.0115,39
7.106,137,1.4383,1.9625,-19.4761,-0.0577,-0.0173,0.0402,72,6.35,122,8.8621,1.5077,-10.3753,-0.1002,-0.0941,0.0187,39
7.158,138,1.4916,1.8863,-19.5281,-0.0959,-0.0134,0.1236,72,6.402,123,8.8774,1.4,-10.4818,-0.1659,-0.1147,0.0349,39
7.21,139,1.4662,1.9258,-19.5124,-0.0555,-0.0217,0.1825,72,6.453,124,8.8569,1.4551,-10.5048,-0.1822,-0.123,0.044,39
7.262,140,1.4488,1.9778,-19.4449,-0.0551,-0.0312,0.2084,72,6.505,125,8.8663,1.4359,-10.5747,-0.169,-0.1262,0.0441,39
7.313,141,1.4755,1.987,-19.4376,-0.0648,-0.031,0.2053,72,6.557,126,8.9562,1.3046,-10.7362,-0.1141,-0.1106,0.0297,39
7.365,142,1.4941,1.9788,-19.5679,-0.0201,-0.049,0.1789,72,6.609,127,8.9229,1.4939,-10.7984,-0.0896,-0.0769,0.0247,39
7.417,143,1.5006,1.9499,-19.5622,-0.0266,-0.0778,0.1505,72,6.66,128,8.8897,1.5024,-10.7238,-0.1055,-0.0571,0.0285,39
7.469,144,1.471,1.9866,-19.4746,-0.0391,-0.0876,0.1279,72,6.712,129,8.8785,1.4829,-10.7246,-0.1054,-0.0527,0.0293,39
7.521,145,1.505,1.975,-19.4128,-0.0303,-0.0826,0.099,72,6.764,130,8.8801,1.3316,-10.8211,-0.0824,-0.0364,0.0186,39
7.572,146,1.4304,1.9157,-19.3846,-0.0256,-0.072,0.0739,72,6.816,131,8.851,1.3696,-10.7958,-0.0729,-0.0167,0.0072,39
7.624,147,1.4235,1.9444,-19.3277,-0.0227,-0.0601,0.0535,72,6.868,132,8.8342,1.3737,-10.7733,-0.034,0.0022,0.0006,39
7.676,148,1.4436,2.0304,-19.3594,0.0028,-0.0526,0.0339,72,6.919,133,8.8573,1.2648,-10.796,0.0041,0.0147,-0.011,39
7.728,149,1.4559,1.985,-19.3641,-0.0004,-0.0407,0.0222,72,6.971,134,8.792,1.7545,-10.7256,0.0722,0.0244,-0.0218,39
7.779,150,1.4385,1.9608,-19.3594,0.0117,-0.0195,0.0166,72,7.023,135,8.8352,1.6098,-10.7467,-0.0154,0.0173,-0.0066,39
7.831,151,1.3391,1.9358,-19.4882,0.0616,-0.0031,0.007,72,7.074,136,8.8309,1.5335,-10.6667,-0.0366,0.0159,-0.0014,39
7.883,152,1.3246,1.8619,-19.4503,0.0483,-0.0024,0.0048,72,7.126,137,8.8337,1.4016,-10.6867,-0.0403,0.0032,0.0026,39
7.935,153,1.3361,1.8719,-19.4206,0.0083,0.0037,0.0351,72,7.178,138,8.8643,1.3271,-10.7407,-0.0127,-0.0055,-0.0134,39
7.986,154,1.3399,2.0476,-19.4167,0.0362,0.0083,0.0614,72,7.23,139,8.7334,1.39,-10.5899,0.1776,0.1058,-0.0655,39
8.038,155,1.3652,2.1146,-19.5324,0.0325,0.0015,0.0592,72,7.282,140,8.783,1.5281,-10.8218,0.262,0.1522,-0.0666,39
8.09,156,1.4165,2.129,-19.6971,0.0205,-0.0372,0.031,72,7.333,141,8.7647,1.5294,-10.6606,0.1814,0.1526,-0.0437,39
8.142,157,1.3567,1.9992,-19.9539,0.0827,-0.1121,-0.0037,72,7.385,142,8.6724,1.5949,-10.5431,0.0504,0.0849,-0.0153,39
8.194,158,1.222,1.9089,-19.8371,0.0732,-0.2043,0.0115,72,7.437,143,8.768,1.4111,-10.4551,-0.0696,0.0119,0.0124,39
8.245,159,1.098,1.9188,-19.5646,0.0685,-0.2469,0.0416,72,7.489,144,8.8784,1.4879,-10.6059,-0.1328,-0.0169,0.0321,39
8.297,160,1.0044,1.9435,-19.2851,0.0905,-0.2319,0.034,72,7.54,145,8.8786,1.3817,-10.5686,-0.114,-0.0038,0.0424,39
8.349,161,0.867,1.8909,-19.0188,0.0227,-0.1563,0.0289,72,7.592,146,8.8428,1.3172,-10.5115,-0.1234,-0.0027,0.0473,39
8.401,162,0.8019,1.7006,-19.0218,0.0136,-0.0537,0.0056,72,7.644,147,8.8847,1.3334,-10.4923,-0.1424,-0.0034,0.0404,39
8.452,163,0.8009,1.5265,-19.3037,0.0232,0.0262,-0.0023,72,7.696,148,8.8564,1.3646,-10.488,-0.1333,0.0059,0.0305,39
8.504,164,0.8406,1.4453,-19.5849,0.0199,0.0523,0.0198,72,7.748,149,8.9127,1.2674,-10.5302,-0.0982,0.0473,0.005,39
8.556,165,0.7942,1.4854,-19.6664,0.0401,0.0254,0.0459,72,7.799,150,8.9579,1.3029,-10.6092,-0.0599,0.1019,-0.035,39
8.608,166,0.8583,1.6362,-19.5595,0.0451,-0.0024,0.0453,72,7.851,151,8.9306,1.3665,-10.1447,-0.011,0.1194,-0.0422,39
8.659,167,1.0294,1.8118,-19.4617,0.0233,0.0008,0.0109,72,7.903,152,8.9352,1.4816,-10.1414,0.021,0.0898,-0.0338,39
8.711,168,1.1119,1.877,-19.4597,0.0049,0.0301,-0.0303,72,7.955,153,8.9057,1.4675,-10.1552,-0.0069,0.0578,-0.0142,39
8.763,169,1.1052,1.7803,-19.5283,-0.0337,0.0587,-0.0776,72,8.007,154,8.8776,1.5586,-10.0991,-0.024,0.04,-0.0037,39
8.815,170,1.0998,1.7007,-19.5711,-0.0234,0.0583,-0.0959,72,8.058,155,8.8615,1.5609,-10.0278,-0.0905,0.0005,0.0201,39
8.867,171,1.1533,1.6655,-19.6202,-0.0132,0.0564,-0.0712,72,8.11,156,8.868,1.571,-10.0622,-0.0957,-0.0116,0.0248,39
8.918,172,1.0745,1.6607,-19.5624,-0.0433,0.0577,-0.0399,72,8.162,157,8.8614,1.5841,-10.0391,-0.049,0.0005,0.0202,39
8.97,173,1.032,1.6438,-19.5421,-0.0146,0.0475,-0.0365,72,8.214,158,8.9146,1.4877,-10.0429,-0.0164,-0.0032,0.007,39
9.022,174,1.054,1.5929,-19.5306,-0.0491,0.0445,-0.0236,72,8.266,159,8.8761,1.588,-10.123,-0.0035,-0.0004,-0.0002,39
9.074,175,1.0662,1.6355,-19.5435,-0.0087,0.0408,-0.022,72,8.317,160,8.8733,1.5206,-10.1181,-0.0104,-0.0016,-0.0023,39
9.125,176,1.209,1.7456,-19.5005,-0.0504,0.0578,-0.0105,72,8.369,161,8.8598,1.4651,-10.1282,-0.003,-0.0079,-0.0021,39
9.177,177,1.2462,1.8501,-19.6271,-0.0741,0.0798,-0.0007,72,8.421,162,8.8798,1.425,-10.2016,0.0099,-0.0108,-0.0036,39
9.229,178,1.2646,1.9215,-19.6598,-0.0626,0.0625,-0.0072,72,8.473,163,8.871,1.3693,-10.1998,0.007,-0.0052,-0.0099,39
9.281,179,1.2021,1.9307,-19.5748,-0.0618,0.0385,-0.0071,72,8.524,164,8.8947,1.3649,-10.1915,0.0131,-0.0129,-0.0142,39
9.332,180,1.2367,1.9622,-19.4802,-0.0611,0.0212,-0.0175,72,8.576,165,8.862,1.6511,-10.153,0.0578,-0.0117,-0.0162,39
9.384,181,1.1969,1.9265,-19.4216,-0.0486,0.0164,-0.0364,72,8.628,166,8.87,1.5959,-10.2176,0.0615,-0.0103,-0.0159,39
9.436,182,1.2122,1.9703,-19.4204,-0.0539,0.0157,-0.0341,72,8.68,167,8.8735,1.5168,-10.1848,0.0546,-0.0036,-0.0198,39
9.488,183,1.2162,2.0312,-19.5085,-0.0269,0.001,-0.0362,72,8.732,168,9.0334,1.4346,-10.097,0.1269,0.0478,-0.0431,39
9.539,184,1.2621,1.9837,-19.541,-0.0415,-0.0152,-0.0517,72,8.783,169,8.9044,1.5845,-10.164,0.1932,0.1067,-0.0514,39
9.591,185,1.295,2.0324,-19.4874,-0.0204,-0.0357,-0.076,72,8.835,170,8.8067,1.642,-10.1246,0.1755,0.0702,-0.038,39
9.643,186,1.3279,2.2298,-19.3579,-0.0492,-0.0361,-0.0917,72,8.887,171,8.903,1.5237,-10.1559,0.1836,0.0585,-0.0354,39
9.695,187,1.2931,2.292,-19.3415,-0.0776,-0.0016,-0.1259,72,8.939,172,8.8986,1.5714,-10.1164,0.195,0.0524,-0.0344,39
9.746,188,1.2172,2.2645,-19.4285,-0.0829,0.0261,-0.1755,72,8.99,173,8.8728,1.5431,-10.1487,0.1866,0.0321,-0.0263,39
9.798,189,1.1796,2.2013,-19.5076,-0.099,0.0209,-0.2005,72,9.042,174,8.8454,1.6486,-10.162,0.1583,0.0188,-0.0208,39
9.85,190,1.1293,2.1602,-19.5173,-0.0839,0.0015,-0.195,72,9.094,175,8.8257,1.6958,-10.1582,0.1564,0.0135,-0.0163,39
9.902,191,1.1045,2.1389,-19.3879,-0.0677,-0.0102,-0.1659,72,9.146,176,8.8079,1.7302,-10.1166,0.1066,-0.0074,-0.0116,39
13.702,192,1.161,2.2478,-19.3529,-0.0561,0.0355,-0.1411,72,9.198,177,8.9221,1.4445,-10.2358,0.0621,-0.0299,-0.002,39
13.754,193,1.1789,2.172,-19.4046,-0.0441,0.0636,-0.1249,72,9.249,178,8.8935,1.5641,-10.2746,0.0639,-0.0279,0.0011,39
13.805,194,1.1942,2.1089,-19.4308,-0.0352,0.0588,-0.0987,72,9.301,179,8.8299,1.5835,-10.2481,0.0778,-0.0174,0.0051,39
13.857,195,1.2397,2.0585,-19.3243,-0.024,0.0409,-0.0791,72,9.353,180,8.8708,1.5441,-10.2857,0.0316,-0.03,0.0068,39
13.909,196,1.2418,1.9772,-19.1784,-0.0173,0.0398,-0.0458,72,9.405,181,8.7337,1.7714,-10.2877,-0.0551,-0.0529,-0.0011,39
15.352,197,1.1601,2.1447,-19.2842,-0.0244,0.0563,-0.0273,72,9.457,182,8.8344,1.5074,-10.3535,-0.0067,-0.024,0.0004,39
15.404,198,0.9868,1.9428,-19.5364,-0.0911,0.0426,-0.0277,72,9.508,183,8.7987,1.5836,-10.3755,-0.0286,-0.0154,0.0016,39
15.455,199,0.9682,1.8734,-19.5376,-0.0505,0.0068,-0.0227,72,9.56,184,8.7495,1.5874,-10.3979,-0.1078,-0.0402,0.0056,39
15.507,200,0.9577,1.769,-19.5329,-0.0865,-0.0089,0.0206,72,9.612,185,8.9472,1.4662,-10.3908,-0.1826,-0.0625,0.0217,39
15.559,201,0.9437,1.7845,-19.5058,-0.0523,-0.0171,0.0696,72,9.663,186,8.8871,1.4136,-10.4396,-0.127,-0.0068,0.0023,39
15.611,202,0.9233,1.9413,-19.4664,-0.0107,-0.0152,0.0862,72,9.715,187,8.9355,1.2018,-10.4519,-0.0182,0.0284,0.0065,39
15.662,203,0.8675,1.9089,-19.5548,0.0004,-0.0039,0.0734,72,9.767,188,8.8853,1.4686,-10.4763,0.1417,0.0643,0.0066,39
15.714,204,0.8423,2.0319,-19.5914,0.0314,-0.0127,0.0545,72,9.819,189,8.7981,1.7408,-10.357,0.2007,0.0621,0.0132,39
15.766,205,0.74,1.8404,-19.7815,-0.0215,-0.0352,0.0395,72,9.871,190,8.5153,1.9353,-10.3408,0.081,0.0305,0.0014,39
15.818,206,0.5109,2.0569,-20.0925,-0.0098,-0.1206,0.0238,72,9.922,191,9.1291,0.9724,-10.8013,-0.1671,-0.0919,0.0236,39
15.869,207,0.7852,2.1067,-19.6223,0.0509,-0.1642,0.0023,72,9.974,192,9.1418,0.9553,-10.6765,-0.2166,-0.0514,0.0091,39
15.921,208,0.7294,1.8427,-19.4538,-0.0,-0.1448,0.0027,72,10.026,193,8.9952,1.2579,-10.6318,-0.1327,-0.0459,0.0201,39
15.973,209,0.6843,1.8139,-19.1557,0.0075,-0.0975,0.0069,72,10.078,194,8.9759,1.3219,-10.529,-0.0761,-0.01,0.0185,39
16.025,210,0.4583,1.7462,-19.3883,0.0041,-0.0439,0.008,72,10.129,195,9.0289,1.3655,-10.4424,0.0379,0.0321,0.0176,39
16.076,211,0.5086,1.8234,-19.5255,0.0226,-0.0287,-0.0095,72,10.181,196,8.9858,1.4633,-10.3066,0.1279,0.0395,0.0279,39
18.352,212,0.7285,1.8394,-19.4323,0.0187,-0.0174,-0.0216,72,10.233,197,8.8968,1.5891,-10.3178,0.14,0.0194,0.0336,39
18.404,213,0.8959,1.8447,-19.4545,-0.0004,0.009,-0.009,72,10.285,198,8.7946,1.8152,-10.21,0.0197,-0.0021,0.0155,39
18.455,214,0.9873,1.8024,-19.5928,-0.0173,0.0184,0.0165,72,10.337,199,8.8534,1.8455,-10.0567,-0.0824,-0.0103,0.0019,39
18.507,215,1.0973,1.7844,-19.6535,-0.0204,-0.002,0.0292,72,10.388,200,8.7325,1.9779,-10.0296,-0.1087,-0.0294,-0.006,39
18.559,216,1.2405,1.854,-19.5843,-0.0203,-0.0191,0.0181,72,10.44,201,8.9615,1.6649,-10.0402,-0.0508,-0.0029,0.002,39
18.611,217,1.3036,1.8755,-19.5137,-0.019,-0.0237,-0.0089,72,10.492,202,8.9028,1.5528,-10.0543,-0.0739,-0.0012,0.001,39
18.662,218,1.2598,1.7711,-19.483,-0.0294,-0.0196,-0.0182,72,10.544,203,8.8899,1.6776,-10.1883,-0.1489,-0.0358,0.0128,39
18.714,219,1.2237,1.7538,-19.5264,-0.002,-0.0281,0.0089,72,10.595,204,8.8989,1.5629,-10.1992,-0.2173,-0.0373,0.0116,39
18.766,220,1.2094,1.6608,-19.4538,-0.0059,-0.028,0.059,72,10.647,205,8.8161,1.3963,-10.208,-0.1768,-0.0065,-0.0099,39
18.818,221,1.1552,1.703,-19.3581,0.0087,-0.0245,0.0813,72,10.699,206,8.9236,1.2588,-10.2685,-0.0663,0.048,-0.021,39
18.87,222,1.1757,1.7858,-19.311,0.0197,-0.0073,0.0927,72,10.751,207,8.9494,1.4231,-10.2134,0.0287,0.07,-0.026,39
18.921,223,1.1911,1.7634,-19.4918,0.0168,0.002,0.0869,72,10.803,208,8.9987,1.4919,-10.1055,0.0865,0.0957,-0.01,39
18.973,224,1.2611,1.7829,-19.607,0.0111,-0.0031,0.0824,72,10.854,209,8.9198,1.623,-9.9418,0.1142,0.0796,-0.0002,39
19.025,225,1.3139,1.9104,-19.6367,-0.0031,-0.0074,0.0692,72,10.906,210,8.8391,1.7262,-9.9832,0.094,0.0505,0.0023,39
19.076,226,1.3487,2.0256,-19.6698,-0.0153,-0.0093,0.029,72,10.958,211,8.632,2.1748,-9.7081,-0.018,0.0056,-0.003,39
19.128,227,1.4063,2.0617,-19.6021,-0.0417,-0.0181,-0.0202,72,11.01,212,9.1677,1.3104,-10.056,-0.1439,-0.0882,0.0137,39
19.18,228,1.2937,1.9351,-19.4333,-0.0666,-0.039,-0.0577,72,11.061,213,9.187,1.2178,-10.2274,-0.1198,-0.0832,0.0107,39
19.232,229,1.1363,1.75,-19.2276,-0.057,-0.048,-0.0856,72,11.113,214,9.1224,1.292,-10.3362,-0.0582,-0.0454,0.0203,39
19.284,230,1.1191,1.7181,-19.2251,0.011,-0.0333,-0.1083,72,11.165,215,9.0519,1.3703,-10.2772,0.027,0.0023,0.025,39
19.335,231,1.2669,1.7337,-19.3953,0.0097,-0.0038,-0.0862,72,11.217,216,8.9533,1.5206,-10.1865,0.0971,0.0052,0.0274,39
19.387,232,1.3505,1.8787,-19.556,0.0421,-0.0005,-0.0674,72,11.269,217,8.793,1.7675,-10.03,0.1004,-0.0152,0.0228,39
19.439,233,1.2774,1.8872,-19.5303,0.0347,-0.0161,-0.0696,72,11.32,218,8.6493,1.768,-10.2448,-0.0402,-0.075,0.0097,39
19.491,234,1.1782,1.8943,-19.4046,0.0252,-0.0171,-0.0789,72,11.372,219,8.8246,1.6667,-10.1934,-0.0943,-0.1025,0.0195,39
19.542,235,1.2011,1.8335,-19.3501,0.0363,0.0021,-0.083,72,11.424,220,8.8724,1.6322,-10.2787,-0.0506,-0.0588,0.0013,39
19.594,236,1.1926,1.7377,-19.4106,0.0491,0.0139,-0.0806,72,11.476,221,8.8545,1.4541,-10.2702,0.0069,0.0163,-0.0126,39
20.102,237,1.115,1.5041,-19.5741,0.0696,0.0485,0.0025,72,11.527,222,8.9243,1.5098,-10.2493,0.0605,0.0491,-0.0157,39
20.154,238,1.303,1.5164,-19.8404,0.0839,0.0604,0.1029,72,11.579,223,8.9419,1.5035,-10.2683,0.1556,0.0617,-0.01,39
20.206,239,1.4168,1.6837,-19.9088,0.0907,0.016,0.1613,72,11.631,224,8.949,1.4719,-10.2674,0.2009,0.0456,-0.0029,39
20.257,240,1.3027,1.8062,-19.6852,0.0388,-0.0213,0.1782,72,11.683,225,8.8672,1.5818,-10.2298,0.2382,0.0405,0.0112,39
20.309,241,1.2221,1.7892,-19.422,0.021,-0.017,0.14,72,11.734,226,8.6994,1.9406,-10.1218,0.1744,0.0336,0.0058,39
20.603,242,1.2419,1.8593,-19.4521,0.0179,-0.0336,0.1106,72,11.786,227,8.2655,2.1125,-10.0999,-0.1085,-0.0129,-0.0198,39
20.654,243,1.3004,1.8983,-19.5016,-0.0016,-0.032,0.0682,72,11.838,228,8.5983,1.7161,-10.2538,-0.1361,-0.0525,-0.0266,39
20.706,244,1.3761,1.865,-19.5726,-0.0354,-0.0179,0.0276,72,11.89,229,8.7319,1.6602,-10.2519,-0.1298,-0.0311,-0.0255,39
20.758,245,1.3687,1.7898,-19.6331,-0.0455,-0.0242,-0.0099,72,11.941,230,8.844,1.5208,-10.2074,-0.0441,0.003,-0.015,39
20.81,246,1.2658,1.7,-19.55,-0.0592,-0.051,-0.0415,72,11.993,231,8.8528,1.5675,-10.2594,-0.0214,0.0167,0.0018,39
20.862,247,1.1273,1.6001,-19.3674,-0.064,-0.0708,-0.0614,72,12.045,232,8.7332,1.7369,-10.1788,-0.0303,0.0118,0.0072,39
20.913,248,1.0798,1.4867,-19.3194,-0.0214,-0.0681,-0.0676,72,12.097,233,8.7553,1.6195,-10.1724,-0.1325,-0.0356,0.0121,39
20.965,249,1.122,1.4531,-19.2041,-0.0253,-0.0461,-0.0473,72,12.149,234,8.8034,1.5673,-10.153,-0.1854,-0.0696,0.0229,39
21.017,250,1.0416,1.7161,-19.2115,-0.0627,-0.0296,-0.0262,72,12.201,235,8.8466,1.4577,-10.2085,-0.1516,-0.0573,0.0231,39
21.069,251,0.8619,1.2756,-19.5234,-0.0418,-0.0805,-0.0529,72,12.252,236,8.8742,1.3688,-10.2316,-0.1075,-0.017,0.0098,39
21.12,252,0.9047,1.6635,-19.194,0.0281,-0.0954,-0.05,72,12.304,237,8.8458,1.3887,-10.1682,-0.0868,-0.0096,-0.0043,39
21.172,253,0.7817,1.4934,-19.2335,-0.0792,-0.0537,-0.0305,72,12.356,238,8.8583,1.2031,-10.2702,0.0189,0.0583,-0.0232,39
21.224,254,0.9681,1.768,-19.3907,0.0247,-0.0095,-0.0218,72,12.408,239,8.8763,1.3119,-10.364,0.0865,0.0688,-0.0204,39
21.276,255,1.061,1.6797,-19.7433,0.0095,0.0042,-0.0125,72,12.46,240,8.9019,1.4827,-10.3134,0.1549,0.0679,-0.0121,39
21.327,256,1.0653,1.77,-19.6872,-0.0089,-0.0194,0.0019,72,12.511,241,8.8599,1.5816,-10.2839,0.2021,0.0689,0.0002,39
21.379,257,0.8894,1.7725,-19.4791,-0.0162,-0.0327,0.0005,72,12.563,242,8.7992,1.7081,-10.197,0.209,0.0726,0.0147,39
21.431,258,0.8003,1.714,-19.248,0.0007,-0.0278,-0.0127,72,12.615,243,8.8376,1.5604,-10.1786,0.1628,0.0619,0.02,39
21.483,259,0.7275,1.5448,-19.2228,0.0121,-0.0095,-0.0124,72,12.667,244,8.7951,1.5671,-10.1892,0.0983,0.0301,0.0169,39
21.534,260,0.7294,1.5245,-19.4066,0.0037,-0.0029,0.0067,72,12.719,245,8.9563,1.3201,-10.3094,0.0392,0.0328,0.0199,39
21.586,261,0.7124,1.4915,-19.835,0.0088,-0.0498,0.0505,72,12.77,246,8.9325,1.3498,-10.1993,0.0249,0.026,0.0166,39
21.638,262,0.7335,1.5691,-19.9162,0.0586,-0.1068,0.0968,72,12.822,247,8.9374,1.2949,-10.2535,0.0077,-0.0051,0.0202,39
21.69,263,0.809,1.6931,-19.6951,0.0771,-0.1306,0.1352,72,12.874,248,8.9577,1.3492,-10.2304,0.0043,-0.0124,0.0236,39
21.741,264,0.8466,1.761,-19.5508,0.0526,-0.103,0.1496,72,12.926,249,8.937,1.431,-10.1275,-0.0153,-0.0121,0.0215,39
21.793,265,0.8297,1.7827,-19.6101,0.0622,-0.0549,0.119,72,12.977,250,8.9614,1.3988,-10.1396,-0.0185,-0.0146,0.0223,39
21.845,266,0.8851,1.8203,-19.5805,0.0337,-0.0154,0.0771,72,13.029,251,8.9464,1.3914,-10.1522,-0.0236,-0.0102,0.0243,39
21.897,267,0.7697,1.6791,-19.4686,0.0176,0.0326,0.0534,72,13.081,252,8.8776,1.5987,-10.0746,-0.1069,-0.0277,0.0413,39
21.949,268,0.6289,1.4466,-19.4664,0.0137,0.0838,0.043,72,13.133,253,8.6348,2.0758,-9.9407,-0.3069,-0.053,0.0257,39
22.001,269,0.5636,1.4234,-19.4926,0.024,0.0878,0.0517,72,13.185,254,8.7366,1.682,-10.0369,-0.3696,-0.0866,0.0216,39
22.052,270,0.6442,1.4017,-19.7162,0.0487,0.0465,0.0516,72,13.236,255,8.8549,1.3588,-10.1708,-0.3561,-0.1077,0.0226,39
22.104,271,0.8369,1.4703,-19.676,0.0627,0.0132,0.0582,72,13.288,256,8.8973,1.2421,-10.2427,-0.22,-0.0785,0.0108,39
