right_leg_timestamp,right_leg_index,right_leg_accel_x,right_leg_accel_y,right_leg_accel_z,right_leg_gyro_x,right_leg_gyro_y,right_leg_gyro_z,right_leg_battery_percentage,left_leg_timestamp,left_leg_index,left_leg_accel_x,left_leg_accel_y,left_leg_accel_z,left_leg_gyro_x,left_leg_gyro_y,left_leg_gyro_z,left_leg_battery_percentage
0.112,2,-3.0741,3.3013,-16.7086,0.5495,0.3108,-0.6278,86,0.147,2,8.3636,2.3968,-12.1139,-0.1859,0.1445,-0.1836,52
0.164,3,-1.5478,3.8275,-16.9111,0.6612,0.6432,-0.8331,86,0.199,3,8.2554,2.8387,-11.8365,-0.1055,0.058,-0.114,52
0.216,4,-1.3,3.4244,-17.3439,0.5827,1.1088,-1.1919,86,0.251,4,8.3807,2.122,-11.9735,0.0178,0.0124,-0.0539,52
0.268,5,-1.0352,3.8326,-18.293,0.5069,1.4876,-1.4755,86,0.303,5,8.3371,2.6112,-12.1917,0.323,0.0184,-0.0613,52
0.319,6,-1.1828,3.2703,-18.0019,-0.3053,1.7641,-1.0362,86,0.354,6,8.5137,2.3679,-12.1776,0.35,-0.0094,0.0084,52
0.371,7,0.1491,2.6529,-17.3841,-0.898,1.9659,-0.2225,86,0.406,7,8.0349,3.2287,-12.4502,0.3106,-0.0288,0.1072,52
0.423,8,1.2592,1.7661,-19.5028,0.0211,2.1131,0.092,86,0.458,8,8.2476,2.5775,-12.7344,0.0164,-0.0074,0.2011,52
0.475,9,3.9148,2.2895,-22.2389,-0.0047,2.1336,0.3048,86,0.51,9,8.2553,2.2953,-12.3869,0.1488,0.0774,0.1659,52
0.527,10,2.9269,3.0081,-23.0242,0.1819,1.3511,0.286,86,0.561,10,8.2235,2.0039,-12.0285,0.2863,0.1207,0.1071,52
0.578,11,2.7191,3.1931,-22.9636,-0.2813,0.5661,0.3668,86,0.613,11,8.3626,1.8133,-12.0576,0.3079,0.0553,0.0595,52
0.63,12,3.7697,2.8572,-22.3509,-0.0088,-0.1747,0.1463,86,0.665,12,8.3638,1.5918,-12.2576,0.093,0.0212,0.0185,52
0.682,13,4.3448,2.8962,-21.1589,0.1814,-0.8009,-0.0402,86,0.717,13,8.1403,2.4399,-12.2076,-0.0778,-0.0488,0.0192,52
0.734,14,4.4475,2.0484,-20.2464,0.0928,-1.2578,-0.1966,86,0.769,14,8.2544,2.3679,-12.3283,-0.2756,-0.1408,0.171,52
0.786,15,4.6281,1.335,-19.222,-0.039,-1.4834,-0.2611,86,0.82,15,8.4553,1.9119,-12.7546,-0.5157,-0.0388,0.1864,52
0.837,16,3.6737,1.1575,-18.2253,-0.0886,-1.3016,-0.198,86,0.872,16,8.5235,1.6513,-12.4172,-0.3609,0.1358,0.1287,52
0.889,17,2.5859,1.6293,-16.578,-0.4949,-0.8587,0.3855,86,0.924,17,8.2731,1.7701,-12.0632,-0.1355,0.1285,0.1586,52
0.941,18,3.4952,3.1576,-14.5989,-1.0339,0.0245,0.946,86,0.976,18,8.4195,1.4013,-12.092,0.0325,0.0707,0.2274,52
0.993,19,5.3732,3.2297,-13.0492,-1.3727,0.6962,1.3682,86,1.027,19,8.4778,1.2439,-12.1613,0.3449,0.1665,0.256,52
1.044,20,6.8522,3.1515,-12.6907,-1.1496,1.1865,1.6763,86,1.079,20,8.4419,1.2834,-12.0086,0.4293,0.276,0.2789,52
1.096,21,8.8917,2.5085,-15.4409,-0.5899,1.5443,1.8755,86,1.131,21,8.3306,1.0494,-11.7936,0.4319,0.2836,0.2963,52
1.148,22,9.4465,7.1827,-19.2744,0.246,0.9743,1.4088,86,1.183,22,8.3519,0.9832,-11.5179,0.3855,0.187,0.2943,52
1.2,23,4.7794,5.2666,-22.0722,-0.4957,0.9481,1.1338,86,1.235,23,8.3451,0.5751,-11.5815,0.2935,0.0994,0.2687,52
1.252,24,6.5188,4.2787,-18.4774,0.2464,1.0524,1.106,86,1.286,24,8.4013,0.3989,-11.6729,0.1274,0.0547,0.2114,52
1.304,25,6.9144,2.3321,-16.4148,-0.1126,0.9411,1.0528,86,1.338,25,8.6039,0.3588,-11.6609,0.1182,0.0682,0.1005,52
1.355,26,7.4679,1.4694,-14.7998,0.0134,0.6173,0.84,86,1.39,26,8.7474,0.4633,-11.4614,0.015,0.0203,0.0174,52
1.407,27,7.984,0.7714,-14.0607,0.1709,0.2741,0.5626,86,1.442,27,8.704,0.3208,-11.5486,0.0035,-0.0307,-0.0668,52
1.459,28,8.4655,0.6377,-13.689,0.216,0.0955,0.3574,86,1.493,28,8.7051,0.6457,-11.5257,-0.0373,-0.0884,-0.1345,52
1.511,29,8.6699,0.3,-13.3768,0.1256,0.0398,0.2009,86,1.545,29,8.7015,0.6037,-11.7084,-0.0228,-0.1136,-0.1831,52
1.563,30,9.0319,0.3482,-13.2218,0.1324,0.0643,0.0826,86,1.597,30,8.7447,0.8648,-11.7894,0.0545,-0.1346,-0.2715,52
1.614,31,9.1814,0.143,-12.9516,0.0058,0.1575,0.0287,86,1.649,31,8.8322,0.8249,-11.9184,0.1824,-0.1526,-0.3275,52
1.666,32,9.3584,0.0422,-12.6049,-0.1161,0.2065,-0.0279,86,1.701,32,8.8597,0.9588,-12.1628,0.1891,-0.1131,-0.329,52
1.718,33,9.4116,0.1482,-12.1545,-0.4127,0.1335,-0.1176,86,1.752,33,8.8872,0.7923,-12.0378,0.2862,-0.0424,-0.3447,52
1.77,34,9.5493,-0.0229,-12.0149,-0.5582,-0.115,-0.253,86,1.804,34,8.9461,0.7589,-12.1045,0.5202,-0.0457,-0.3524,52
1.821,35,9.5519,0.331,-14.2704,-0.7804,-0.5003,-0.3223,86,1.856,35,8.6057,1.6561,-12.2726,0.7953,-0.0112,-0.3602,52
1.873,36,9.4508,0.5775,-15.5279,-0.8511,-1.0333,-0.4449,86,1.908,36,8.5447,2.0043,-12.313,0.8462,0.017,-0.325,52
1.925,37,8.991,1.2797,-15.8201,-0.8308,-1.4275,-0.5556,86,1.96,37,8.5728,2.0928,-12.3332,0.7787,0.0459,-0.2717,52
1.977,38,8.6525,1.7702,-15.6561,-0.778,-1.7153,-0.6521,86,2.011,38,8.2884,2.9403,-12.3894,0.352,0.0239,-0.1567,52
2.029,39,8.4006,2.4632,-15.5803,-0.7007,-1.8577,-0.7354,86,2.063,39,8.1987,2.4168,-12.4644,-0.4141,-0.0699,0.0481,52
2.08,40,8.0648,2.7655,-16.0547,-0.6658,-1.8837,-0.765,86,2.115,40,8.329,1.7712,-12.3725,-0.4101,-0.2044,0.1296,52
2.132,41,7.5932,2.8267,-16.1703,-0.5746,-1.8882,-0.6886,86,2.166,41,8.7245,1.3542,-12.5419,-0.5198,-0.2988,0.174,52
2.184,42,7.0889,2.9747,-15.9302,-0.5861,-1.7968,-0.6254,86,2.218,42,8.9327,0.8718,-12.7725,-0.5119,-0.2455,0.0943,52
2.236,43,6.0217,2.984,-16.2619,-0.5512,-1.654,-0.6045,86,2.27,43,8.7327,1.2985,-12.7149,-0.3778,-0.1088,-0.0291,52
2.288,44,5.0262,2.8347,-16.31,-0.3386,-1.5098,-0.5687,86,2.322,44,8.6843,1.3544,-12.4786,-0.3061,-0.0439,-0.081,52
2.339,45,4.2854,2.8495,-17.2612,-0.3012,-1.317,-0.5323,86,2.374,45,8.604,1.6357,-12.5645,-0.1647,-0.0457,-0.0957,52
2.391,46,3.7502,2.6732,-17.7597,-0.1659,-1.1258,-0.5204,86,2.425,46,8.6835,1.4607,-12.7317,0.0738,-0.0629,-0.0867,52
2.443,47,3.0875,2.854,-17.9061,0.0416,-0.9475,-0.4606,86,2.477,47,8.5461,1.9993,-12.7837,0.2448,0.0111,-0.0956,52
2.495,48,2.5117,3.1702,-17.9472,0.1585,-0.7997,-0.2709,86,2.529,48,8.375,2.2407,-12.6854,0.1603,0.0657,-0.0578,52
2.547,49,2.184,3.6498,-18.0005,0.1565,-0.6602,-0.0008,86,2.581,49,8.1485,2.2812,-12.6251,0.0052,0.0353,-0.019,52
2.599,50,2.2314,4.0021,-17.748,0.0561,-0.4826,0.2936,86,2.632,50,8.1951,2.4303,-12.6078,0.0403,0.0099,-0.0314,52
2.65,51,2.2932,4.4863,-17.9893,-0.0113,-0.2792,0.471,86,2.684,51,8.2796,2.2134,-12.7151,0.0149,0.0153,-0.0278,52
2.702,52,2.2814,5.0104,-18.2466,-0.0229,-0.1629,0.4994,86,2.736,52,8.3714,2.185,-12.7184,-0.0063,0.053,-0.0267,52
2.754,53,1.9243,5.1244,-18.4157,-0.1277,-0.139,0.4292,86,2.788,53,8.355,2.3292,-12.6209,-0.0538,0.0847,-0.0254,52
2.806,54,1.4706,4.9609,-18.5486,-0.1423,-0.1307,0.2738,86,2.84,54,8.318,2.1459,-12.5482,-0.1016,0.0958,-0.0275,52
2.858,55,1.0932,4.7192,-18.7053,-0.1218,-0.0929,0.093,86,2.891,55,8.401,1.9446,-12.4738,-0.0077,0.0982,-0.0595,52
2.909,56,0.924,4.4533,-18.6779,-0.0318,-0.0449,-0.0491,86,2.943,56,8.507,1.7389,-12.4561,0.0971,0.1112,-0.0829,52
2.961,57,0.9924,4.3392,-18.8263,0.0316,-0.0105,-0.1227,86,2.995,57,8.4307,2.1083,-12.4339,0.2067,0.1142,-0.0814,52
3.013,58,1.1475,4.1188,-18.824,0.0575,-0.0217,-0.1338,86,3.047,58,8.3621,2.4474,-12.2901,0.2053,0.1407,-0.0656,52
3.065,59,1.1549,3.8666,-18.8315,0.0342,-0.0323,-0.0817,86,3.099,59,8.3598,2.3447,-12.1038,-0.0451,0.0968,-0.0153,52
3.117,60,1.304,3.7917,-18.9114,0.0153,-0.0378,-0.0052,86,3.15,60,8.4495,2.1472,-12.0802,0.0288,-0.0071,0.0203,52
3.168,61,1.5035,3.8662,-18.8008,0.0781,-0.0372,0.0805,86,3.202,61,8.405,2.1776,-12.3546,0.0436,-0.0586,0.0456,52
3.22,62,1.7407,4.1153,-18.6867,0.0569,-0.0417,0.1743,86,3.254,62,8.4479,2.168,-12.3601,0.0054,-0.0461,0.0696,52
3.272,63,1.8715,4.2318,-18.6095,0.0135,-0.0473,0.2295,86,3.306,63,8.4218,2.238,-12.3498,-0.022,-0.0243,0.1001,52
3.324,64,1.6357,4.3122,-18.6415,-0.029,-0.0435,0.221,86,3.358,64,8.2914,2.4037,-12.3436,-0.2264,-0.0109,0.1157,52
3.375,65,1.5012,4.4695,-18.5521,-0.0978,-0.0463,0.2172,86,3.409,65,8.4228,2.1089,-12.1908,-0.1871,-0.0237,0.0929,52
3.427,66,1.6484,4.5228,-18.6479,-0.0531,-0.0253,0.1483,86,3.461,66,8.4897,1.9602,-12.3248,-0.2022,-0.0474,0.0902,52
3.479,67,1.5121,4.3293,-18.8289,0.0004,0.0022,0.0793,86,3.513,67,8.5514,1.9001,-12.3093,-0.1784,-0.0074,0.0569,52
3.531,68,0.9037,4.6149,-18.981,-0.0332,-0.0495,-0.1133,86,3.565,68,8.5468,1.8749,-12.3063,-0.208,0.0182,0.0167,52
3.583,69,0.4859,4.5832,-19.56,0.2288,-0.1873,-0.2674,86,3.616,69,8.4864,1.9826,-12.1392,-0.1545,0.017,-0.0147,52
3.634,70,0.0302,4.0908,-19.6189,0.0014,-0.2815,-0.3841,86,3.668,70,8.4771,1.9376,-12.183,-0.1279,-0.0243,-0.0074,52
3.686,71,0.1113,4.0324,-19.4365,0.2468,-0.3293,-0.5106,86,3.72,71,8.4963,1.8284,-12.2998,-0.0158,0.0084,-0.044,52
3.738,72,0.4783,3.7649,-19.148,0.143,-0.3235,-0.4983,86,3.772,72,8.513,1.9349,-12.2309,0.097,0.0498,-0.0669,52
3.79,73,0.9201,3.4471,-18.779,0.1551,-0.2856,-0.4109,86,3.824,73,8.4176,2.27,-12.0381,0.1074,0.0451,-0.0496,52
3.842,74,1.1477,3.3029,-18.4789,0.0297,-0.2201,-0.2291,86,3.875,74,8.3949,2.3498,-12.0349,0.0189,-0.0074,-0.0053,52
3.893,75,1.2425,3.2478,-18.4002,-0.0357,-0.0959,-0.0282,86,3.927,75,8.452,2.0934,-12.1274,0.0066,-0.0443,0.0021,52
3.945,76,1.1779,3.5271,-18.5341,-0.0557,0.0284,0.1047,86,3.979,76,8.4647,1.9758,-12.179,-0.0222,-0.0428,-0.0189,52
3.997,77,0.9499,4.0207,-18.7824,-0.0906,0.0989,0.1811,86,4.031,77,8.4523,1.9627,-12.0936,-0.0313,-0.0753,-0.025,52
4.049,78,0.6969,4.1993,-18.921,-0.1461,0.1156,0.1899,86,4.082,78,8.3905,2.0622,-12.2755,-0.0359,-0.107,-0.0241,52
4.101,79,0.5373,4.2088,-19.0459,-0.1171,0.1257,0.1038,86,4.134,79,8.4412,1.9724,-12.3316,-0.0025,-0.0908,-0.0713,52
4.152,80,0.5799,4.0912,-19.05,-0.0663,0.1518,-0.0012,86,4.186,80,8.3634,2.0933,-12.3668,0.0399,-0.1003,-0.0709,52
4.204,81,0.6757,4.0667,-19.0623,0.0172,0.1299,-0.0591,86,4.238,81,8.1761,2.2063,-12.4572,0.0721,-0.1024,-0.0417,52
4.256,82,0.7413,4.0106,-19.043,-0.0828,0.0944,-0.0278,86,4.29,82,8.2312,2.1671,-12.5712,0.0832,-0.1084,0.0019,52
4.308,83,0.6534,3.9874,-18.9683,-0.0956,0.0866,-0.0052,86,4.341,83,8.3196,2.1243,-12.5589,0.1417,-0.0776,-0.0025,52
4.359,84,0.5828,4.008,-18.9287,-0.0493,0.0911,0.0071,86,4.393,84,8.1336,2.2155,-12.6906,0.1642,-0.0812,0.0073,52
4.411,85,0.843,4.1204,-18.8327,-0.031,0.0917,0.0587,86,4.445,85,8.2535,2.0908,-12.7369,0.0805,-0.0712,0.0231,52
4.463,86,1.055,4.1457,-18.5595,-0.1032,0.099,0.1663,86,4.496,86,8.1249,2.4162,-12.8235,-0.0116,-0.0549,0.0374,52
4.515,87,1.1741,4.153,-18.4259,-0.1499,0.1436,0.2561,86,4.549,87,8.3998,1.7714,-12.7537,-0.0891,-0.0265,0.0416,52
4.567,88,1.2472,4.2213,-18.4258,-0.1263,0.1788,0.2745,86,4.6,88,8.434,1.8911,-12.8182,0.0047,-0.0233,0.0192,52
4.619,89,1.2571,4.3111,-18.496,-0.1013,0.2201,0.227,86,4.652,89,8.3878,1.8013,-12.8206,0.1042,0.021,-0.0012,52
4.67,90,1.1255,4.4953,-18.6036,-0.025,0.2595,0.1618,86,4.704,90,8.3543,1.9455,-12.6964,0.246,0.0316,-0.0307,52
4.722,91,1.3425,4.6245,-18.6676,0.0177,0.2539,0.1155,86,4.755,91,8.2367,2.0728,-12.8466,0.2209,0.0497,-0.0388,52
4.774,92,1.727,4.6335,-18.7302,0.0573,0.2562,0.0408,86,4.807,92,8.3153,1.7215,-12.7294,0.1737,0.0404,-0.032,52
4.826,93,1.9462,4.4675,-18.6429,0.1161,0.2558,-0.0285,86,4.859,93,8.3045,1.8072,-12.8405,0.1707,0.0078,-0.024,52
4.877,94,2.0696,4.5044,-18.5383,0.1206,0.2639,-0.0472,86,4.911,94,8.3203,1.8784,-12.8587,0.1711,0.036,-0.0127,52
4.929,95,2.1179,4.5528,-18.5612,-0.0233,0.2718,-0.0349,86,4.963,95,8.1764,2.3025,-12.7586,0.1082,0.0302,0.0219,52
4.981,96,1.822,4.4118,-18.5499,0.0048,0.2993,-0.0922,86,5.014,96,8.0747,1.9859,-12.8159,-0.2928,-0.0265,0.1176,52
5.033,97,1.8442,4.3957,-18.6948,0.025,0.3088,-0.1666,86,5.066,97,8.1787,1.7378,-12.8146,-0.3906,-0.079,0.1523,52
5.085,98,2.1712,4.413,-18.8052,0.1336,0.2897,-0.234,86,5.118,98,8.2656,1.6207,-12.8972,-0.3794,-0.0724,0.104,52
5.136,99,2.0763,4.4076,-18.7545,0.1603,0.2341,-0.2534,86,5.17,99,8.2669,1.492,-12.7618,-0.3152,-0.0581,0.0323,52
5.188,100,1.8837,4.1436,-18.6954,0.0501,0.1504,-0.2232,86,5.222,100,8.2736,1.647,-12.7079,-0.2204,-0.0709,-0.0372,52
5.24,101,1.812,3.7531,-18.8122,0.0205,0.093,-0.2194,86,5.273,101,8.4289,1.3766,-12.7298,-0.1669,-0.01,-0.1241,52
5.292,102,2.1333,3.4752,-18.9508,0.0797,0.0573,-0.2371,86,5.325,102,8.2982,2.048,-12.6128,-0.0027,0.0028,-0.1484,52
5.343,103,2.2494,3.2116,-18.9617,0.1476,0.0192,-0.2522,86,5.377,103,8.2945,1.9263,-12.6411,0.1014,-0.031,-0.0954,52
5.395,104,2.1652,3.159,-18.8047,0.2073,-0.0054,-0.217,86,5.429,104,8.1854,2.1051,-12.8388,0.2761,-0.0082,-0.0694,52
5.447,105,2.2143,3.0392,-18.6949,0.2413,-0.0051,-0.0925,86,5.48,105,8.0874,2.3601,-12.8242,0.3618,0.0421,-0.0671,52
5.499,106,2.3894,3.269,-18.6344,0.2014,0.0311,0.119,86,5.532,106,8.0632,2.4086,-12.8879,0.3548,0.0604,-0.0473,52
5.551,107,2.6535,3.6275,-18.5853,0.1129,0.0483,0.3361,86,5.584,107,8.1119,2.4083,-12.7634,0.304,0.0621,-0.0143,52
5.603,108,2.9312,4.1759,-18.5373,-0.0107,0.0566,0.512,86,5.636,108,8.1128,2.3766,-12.8015,0.1403,0.058,0.0252,52
5.655,109,3.0297,4.519,-18.4071,-0.1679,0.0564,0.5987,86,5.687,109,8.0492,2.5117,-12.8488,-0.1638,0.0521,0.0731,52
5.706,110,2.9758,4.6846,-18.3321,-0.1735,0.0791,0.5363,86,5.739,110,8.2908,1.9544,-12.6961,-0.1828,0.0232,0.0809,52
5.758,111,2.9307,4.5662,-18.3401,-0.1504,0.1205,0.3816,86,5.791,111,8.2762,1.9029,-12.7685,-0.3244,-0.0108,0.0763,52
5.81,112,2.9301,4.3372,-18.347,-0.0642,0.138,0.2057,86,5.843,112,8.3472,2.0123,-12.6283,-0.1847,0.0128,0.0111,52
5.862,113,2.9866,4.0691,-18.4468,-0.0082,0.1282,0.0452,86,5.895,113,8.2574,2.0455,-12.7034,-0.0792,0.0184,-0.0068,52
5.914,114,2.9911,3.786,-18.4866,0.0431,0.135,-0.0627,86,5.946,114,8.2255,2.3064,-12.7171,0.0299,0.0193,-0.0199,52
5.965,115,3.0235,3.4559,-18.5854,0.0815,0.1405,-0.1042,86,5.998,115,8.3638,2.075,-12.8039,0.0567,0.0627,-0.042,52
6.017,116,3.1153,3.2341,-18.6204,0.0748,0.1404,-0.1166,86,6.05,116,8.2917,2.2036,-12.5373,0.0766,0.0683,-0.0356,52
6.069,117,3.2238,3.2412,-18.5636,0.1323,0.1154,-0.0929,86,6.102,117,8.2669,2.1404,-12.5737,0.0313,0.0783,-0.0272,52
6.121,118,3.3095,3.3055,-18.4533,0.15,0.0917,-0.029,86,6.154,118,8.2167,2.3537,-12.5667,-0.0093,0.088,-0.0032,52
6.172,119,3.4827,3.5728,-18.333,0.0965,0.0953,0.0157,86,6.206,119,8.3476,1.5329,-12.262,-0.1256,0.109,-0.0087,52
6.224,120,3.4395,3.7662,-18.1458,0.1151,0.1367,-0.0258,86,6.257,120,8.3446,1.7826,-12.2342,-0.0874,-0.0192,0.0266,52
6.276,121,3.4796,3.5646,-18.1343,0.2299,0.252,-0.1283,86,6.309,121,8.4668,1.7656,-12.4911,-0.0193,0.0118,-0.0135,52
6.328,122,3.7779,3.719,-18.4072,0.2938,0.3345,-0.1912,86,6.361,122,8.3925,2.045,-12.258,0.0664,0.0363,-0.0393,52
6.38,123,3.4244,3.6289,-18.8817,0.2134,0.2398,-0.1929,86,6.413,123,8.3141,2.0502,-12.3176,0.0391,-0.0102,0.0048,52
6.431,124,3.2958,3.5189,-18.9472,0.2766,0.1034,-0.2643,86,6.464,124,8.3764,2.0713,-12.5386,0.0314,-0.0102,-0.0059,52
6.483,125,3.4968,3.2537,-18.8486,0.2952,0.0559,-0.3077,86,6.516,125,8.4826,1.9725,-12.158,0.123,0.0308,-0.014,52
6.535,126,3.7194,3.1918,-18.6637,0.3104,0.0008,-0.329,86,6.568,126,8.3007,2.1486,-12.5293,0.2153,-0.0307,0.0199,52
6.587,127,3.8558,3.1263,-18.4685,0.1625,-0.0832,-0.2717,86,6.62,127,8.3629,1.8381,-12.5728,0.2811,0.0612,-0.0112,52
6.638,128,3.8914,3.1946,-18.3013,-0.0551,-0.0951,-0.1804,86,6.672,128,8.2365,2.1644,-12.8773,0.246,0.1048,0.0147,52
6.69,129,3.3759,3.2157,-18.3737,-0.0986,-0.0145,-0.057,86,6.723,129,8.1044,2.3474,-12.4055,0.5182,0.1445,-0.0124,52
6.742,130,3.0027,3.4643,-18.6487,-0.1788,0.0457,0.0581,86,6.775,130,8.1753,1.6981,-12.446,0.0978,0.0559,0.0361,52
6.794,131,3.015,3.6702,-18.9368,-0.283,0.0245,0.1188,86,6.827,131,8.2643,1.8528,-12.346,-0.2615,-0.0072,0.0829,52
6.846,132,2.4597,3.6692,-19.0474,-0.181,0.0385,0.051,86,6.879,132,8.3752,1.3607,-12.4602,-0.3871,-0.0472,0.0997,52
6.898,133,2.5131,4.0522,-19.2381,0.0676,0.0655,-0.0481,86,6.93,133,8.4176,1.5327,-12.423,-0.3507,-0.0162,0.0634,52
6.949,134,3.0568,3.9647,-19.3835,-0.0511,-0.1111,-0.1534,86,6.982,134,8.343,1.7954,-12.2673,-0.2633,-0.0362,0.0629,52
7.001,135,3.5103,2.8279,-19.0297,-0.1336,-0.3818,-0.3043,86,7.034,135,8.5248,1.7565,-12.2987,-0.2294,-0.052,0.0735,52
7.053,136,3.43,2.2886,-18.3091,0.0067,-0.4819,-0.3764,86,7.086,136,8.6007,1.6904,-12.3682,-0.1768,-0.0128,0.0245,52
7.105,137,3.5332,2.3226,-17.6642,0.0445,-0.391,-0.1735,86,7.138,137,8.5164,1.7867,-12.2327,-0.1089,0.0333,-0.0215,52
7.157,138,3.7685,2.5067,-17.4619,-0.1828,-0.2309,0.1588,86,7.189,138,8.5111,1.7652,-12.0848,-0.0885,-0.0173,-0.0064,52
7.208,139,3.395,2.6051,-17.65,-0.3473,-0.0744,0.3848,86,7.241,139,8.5394,1.7013,-12.3659,-0.0837,0.0027,-0.0209,52
7.26,140,2.9454,3.0338,-18.2574,-0.1641,0.076,0.4931,86,7.293,140,8.5485,1.5844,-12.2641,0.0809,0.0484,-0.0504,52
7.312,141,2.769,3.4897,-18.9,-0.1442,0.1,0.5396,86,7.344,141,8.4772,1.7543,-12.3574,0.3952,0.0673,-0.0847,52
7.364,142,2.8311,3.8922,-19.0795,-0.172,-0.0142,0.5205,86,7.396,142,8.3767,2.0769,-12.3382,0.5142,0.112,-0.1063,52
7.416,143,3.1344,3.9484,-18.9035,-0.2008,-0.1029,0.4913,86,7.448,143,8.4279,1.9776,-12.3598,0.6496,0.1322,-0.1125,52
7.467,144,3.2846,4.0908,-18.6004,-0.1984,-0.1075,0.4707,86,7.5,144,8.4237,2.1768,-12.2514,0.6729,0.1522,-0.1253,52
7.519,145,3.5531,4.194,-18.2474,-0.2451,-0.0984,0.5026,86,7.552,145,8.5556,1.8518,-12.1072,0.7099,0.1307,-0.1186,52
7.571,146,3.9152,4.1561,-17.8377,-0.3701,-0.0853,0.5028,86,7.603,146,8.4296,2.0451,-12.281,0.718,0.1231,-0.1057,52
7.623,147,4.0035,4.1124,-17.4689,-0.3484,-0.0263,0.435,86,7.655,147,8.2008,2.7505,-12.4084,0.5402,0.1068,-0.0774,52
7.674,148,4.2199,4.2014,-17.2467,-0.2126,0.0849,0.3644,86,7.707,148,8.4887,1.9938,-12.2833,0.4664,0.1081,-0.0485,52
7.726,149,4.3608,4.1811,-17.214,-0.1563,0.1894,0.3061,86,7.759,149,8.5833,2.161,-12.2488,0.3124,0.0711,-0.0232,52
7.778,150,4.5055,4.2759,-17.3154,-0.0658,0.2593,0.2074,86,7.811,150,8.6052,1.9067,-12.2712,0.2744,0.0834,-0.0209,52
7.83,151,4.4988,4.2492,-17.2743,-0.0358,0.3237,0.1224,86,7.862,151,8.513,2.1035,-12.2101,0.2022,0.0851,0.0042,52
7.882,152,4.5125,4.1401,-17.416,0.0941,0.4132,0.01,86,7.915,152,8.4734,2.0551,-12.1528,0.0449,0.0466,0.0513,52
7.933,153,4.5371,4.2999,-17.6414,0.1517,0.4483,-0.0793,86,7.966,153,8.4866,2.1109,-12.2072,0.0884,0.0422,0.0596,52
7.985,154,4.5955,4.0979,-17.914,0.2302,0.4437,-0.1759,86,8.018,154,8.369,2.6618,-12.2158,-0.1357,0.0285,0.1225,52
8.037,155,4.4462,4.0475,-18.0613,0.2499,0.4028,-0.2435,86,8.07,155,8.4596,2.3066,-11.9754,-0.3769,-0.0392,0.188,52
8.089,156,4.3704,3.8699,-18.0146,0.242,0.3595,-0.2663,86,8.121,156,8.552,0.9712,-12.243,-0.8448,-0.1148,0.2252,52
8.141,157,4.426,3.591,-18.1276,0.2647,0.3096,-0.2686,86,8.174,157,8.666,1.7597,-12.1639,-0.7664,-0.1419,0.1708,52
8.192,158,4.3952,3.5019,-18.2102,0.2591,0.2324,-0.2603,86,8.225,158,8.6158,1.2288,-11.9359,-0.6215,-0.1683,0.1779,52
8.244,159,4.3104,3.3817,-18.1363,0.1633,0.1279,-0.2132,86,8.277,159,8.5359,1.3441,-12.0547,-0.6275,-0.234,0.1765,52
8.296,160,4.4526,3.1526,-18.1594,0.1097,0.02,-0.1905,86,8.329,160,8.5185,0.9252,-12.253,-0.4775,-0.2533,0.1015,52
8.348,161,4.637,3.0062,-18.3031,0.1809,-0.052,-0.1972,86,8.38,161,8.5383,1.0183,-12.3605,-0.3973,-0.2403,0.0647,52
8.4,162,4.5046,3.0783,-18.2848,0.1678,-0.1145,-0.1479,86,8.432,162,8.4423,1.1744,-12.4795,-0.2994,-0.2058,0.0027,52
8.451,163,4.2769,3.0394,-18.0238,0.0037,-0.1604,-0.021,86,8.484,163,8.4095,1.6766,-12.5518,-0.2468,-0.1585,-0.0478,52
8.503,164,4.3513,2.8622,-18.1345,0.0446,-0.1695,0.0465,86,8.536,164,8.4395,1.6048,-12.6231,-0.2327,-0.1239,-0.0435,52
8.555,165,4.3005,3.1157,-18.377,0.1544,-0.1732,0.0418,86,8.588,165,8.4438,1.7415,-12.6757,-0.2169,-0.0619,-0.0419,52
8.607,166,4.0137,3.2405,-18.4725,0.0947,-0.2147,0.077,86,8.639,166,8.3918,1.7578,-12.5904,-0.192,-0.0086,-0.0456,52
8.659,167,3.9417,3.1997,-18.5602,0.1312,-0.265,0.1342,86,8.691,167,8.3555,1.9068,-12.4551,-0.1365,-0.0166,-0.0465,52
8.71,168,3.9918,3.2345,-18.5271,0.1739,-0.2858,0.2036,86,8.743,168,8.3893,1.8297,-12.5516,-0.1072,-0.0128,-0.0517,52
8.762,169,4.1671,3.3562,-18.2563,0.0775,-0.2631,0.3357,86,8.795,169,8.3702,1.9971,-12.5647,-0.1101,0.0074,-0.0562,52
8.814,170,4.2998,3.5574,-17.9563,-0.0759,-0.2121,0.4765,86,8.847,170,8.4194,2.0022,-12.4735,-0.0257,0.0334,-0.0726,52
8.866,171,4.3267,3.5989,-17.8287,-0.2224,-0.1657,0.5521,86,8.899,171,8.3519,2.1511,-12.4016,0.0173,-0.0027,-0.039,52
8.918,172,4.4551,3.6833,-17.8701,-0.2396,-0.1052,0.5356,86,8.951,172,8.4241,1.9623,-12.5357,0.0026,-0.0184,-0.0251,52
8.969,173,4.5359,3.5508,-17.971,-0.2242,-0.0571,0.4578,86,9.003,173,8.5795,1.6587,-12.3863,0.2169,-0.0084,-0.0688,52
9.021,174,4.4954,3.6542,-17.977,-0.1938,-0.0383,0.3742,86,9.054,174,8.5374,1.5762,-12.6685,0.4249,0.0021,-0.092,52
9.073,175,4.5655,3.6667,-17.8015,-0.1828,-0.0263,0.3179,86,9.106,175,8.5395,1.4155,-12.6525,0.789,0.0708,-0.1249,52
9.125,176,4.662,3.4931,-17.6533,-0.232,0.023,0.2739,86,9.158,176,8.3524,2.0428,-12.6878,0.9438,0.1759,-0.1467,52
9.177,177,4.5469,3.2691,-17.7324,-0.2422,0.1027,0.2388,86,9.21,177,8.0402,2.7648,-12.5404,0.7238,0.1719,-0.0976,52
9.228,178,4.8059,3.3266,-17.7047,-0.1708,0.162,0.2626,86,9.261,178,8.1749,2.0017,-12.5736,0.5776,0.1124,-0.041,52
9.28,179,5.2265,3.4299,-17.5872,-0.0478,0.1863,0.2549,86,9.313,179,8.2245,2.0326,-12.6201,0.5067,0.111,-0.0404,52
9.332,180,5.4996,3.8449,-17.4045,-0.1449,0.1921,0.2171,86,9.365,180,8.3,2.0964,-12.7293,0.3771,0.1261,-0.0345,52
9.384,181,5.5736,3.869,-17.1724,-0.1934,0.189,0.1161,86,9.417,181,8.4037,1.5993,-12.6788,0.191,0.136,-0.0088,52
9.436,182,5.3596,3.9685,-17.0373,-0.1746,0.2244,0.0032,86,9.469,182,8.4208,2.1212,-12.4518,-0.0379,0.0772,0.008,52
9.487,183,5.177,3.714,-17.2163,-0.2639,0.3182,-0.0318,86,9.52,183,8.4172,1.9059,-12.51,-0.5001,-0.0413,0.1045,52
9.539,184,5.1317,3.4892,-17.5152,-0.07,0.3759,-0.138,86,9.572,184,8.6016,1.3588,-12.5531,-0.5476,-0.0897,0.1347,52
9.591,185,5.01,3.4959,-17.8034,0.0787,0.3518,-0.2638,86,9.624,185,8.5808,1.1796,-12.5741,-0.5089,-0.0701,0.0927,52
9.642,186,4.9244,3.3154,-17.8326,0.1154,0.2734,-0.3207,86,9.675,186,8.4839,1.7103,-12.4696,-0.3867,-0.055,0.0406,52
9.694,187,4.8735,3.092,-17.8679,0.1758,0.2115,-0.3287,86,9.727,187,8.4441,1.5526,-12.5025,-0.3298,-0.0493,0.0296,52
9.746,188,4.787,2.9561,-17.9736,0.2098,0.1587,-0.2956,86,9.779,188,8.4745,1.6457,-12.5041,-0.298,-0.0242,-0.0038,52
9.798,189,4.8355,2.8874,-17.9792,0.1754,0.1002,-0.1913,86,9.831,189,8.4832,1.6932,-12.3957,-0.2463,-0.0123,-0.0313,52
9.85,190,4.9633,2.8705,-17.9621,0.1631,0.0274,-0.0599,86,9.883,190,8.46,1.8496,-12.4397,-0.2635,-0.0266,-0.0056,52
9.901,191,5.0387,3.0546,-17.8388,0.1093,-0.0433,0.045,86,9.934,191,8.4557,1.938,-12.4011,-0.2779,-0.0211,0.02,52
9.954,192,5.0949,3.2786,-17.6106,0.0345,-0.091,0.1464,86,9.986,192,8.4889,1.8029,-12.4367,-0.3885,0.0048,0.0319,52
10.006,193,5.1611,3.3912,-17.473,-0.0229,-0.1096,0.2174,86,10.038,193,8.4757,1.9304,-12.1516,-0.3364,-0.0057,0.0097,52
10.057,194,5.2808,3.3754,-17.3819,-0.0771,-0.1081,0.2417,86,10.09,194,8.5492,1.9969,-12.2456,-0.086,-0.0338,-0.03,52
10.109,195,5.5005,3.3683,-17.2946,-0.0482,-0.0949,0.2434,86,10.141,195,8.5803,1.8737,-12.4266,0.1706,-0.0444,-0.054,52
10.161,196,5.6187,3.3345,-17.2178,-0.0679,-0.0926,0.2316,86,10.193,196,8.4444,2.1488,-12.4658,0.4167,0.0027,-0.0721,52
10.213,197,5.607,3.3473,-17.1947,-0.0525,-0.0872,0.1818,86,10.245,197,8.3155,2.6549,-12.3563,0.3517,0.0242,-0.0568,52
10.264,198,5.5778,3.4634,-17.1904,-0.0292,-0.061,0.1438,86,10.297,198,8.2418,2.6073,-12.2857,0.1018,-0.0053,-0.0174,52
10.316,199,5.7431,3.5004,-17.1214,-0.113,-0.0128,0.179,86,10.349,199,8.2906,2.2146,-12.3379,-0.0473,-0.0757,0.036,52
10.368,200,5.8993,3.5072,-17.0075,-0.1333,0.0433,0.1814,86,10.4,200,8.4084,1.8766,-12.4966,-0.1308,-0.1005,0.0538,52
10.42,201,5.7487,3.6383,-16.9631,-0.1328,0.0612,0.0866,86,10.452,201,8.4798,1.835,-12.5279,-0.0682,-0.0334,-0.0047,52
10.472,202,5.5942,3.6107,-16.9852,-0.0818,0.0628,-0.0599,86,10.504,202,8.4913,1.847,-12.4894,0.0443,0.0018,-0.0263,52
10.523,203,5.4208,3.4894,-17.1567,0.1053,0.0924,-0.2112,86,10.556,203,8.4729,1.9622,-12.4316,0.1418,0.0116,-0.0348,52
10.575,204,5.2394,3.4339,-17.4205,0.2237,0.1293,-0.2915,86,10.608,204,8.3676,2.1001,-12.5676,0.0909,-0.0015,-0.0032,52
10.627,205,5.298,3.0992,-17.6013,0.3081,0.1385,-0.2887,86,10.659,205,8.3065,2.0484,-12.5526,0.022,0.0197,0.0194,52
10.678,206,5.5304,3.1578,-17.5184,0.3413,0.1037,-0.2403,86,10.711,206,8.3409,1.8285,-12.4571,-0.0593,-0.0042,0.0453,52
10.73,207,5.6495,3.2628,-17.3459,0.0207,0.0765,-0.1259,86,10.763,207,8.3573,1.8844,-12.4677,0.0054,-0.0073,0.0263,52
10.782,208,5.6028,3.3339,-17.3271,-0.1206,0.0422,-0.067,86,10.815,208,8.4427,1.8043,-12.4732,0.0688,0.0055,0.0037,52
10.834,209,5.3981,3.4398,-17.1832,-0.0993,0.0411,-0.0846,86,10.867,209,8.5337,1.6611,-12.4581,0.1758,0.0111,-0.0126,52
10.886,210,5.2448,3.4429,-17.1856,0.0153,0.0662,-0.1235,86,10.918,210,8.4644,1.5413,-12.5669,0.3194,0.0335,-0.0388,52
10.937,211,5.316,3.4993,-17.2352,0.0493,0.1075,-0.1142,86,10.97,211,8.4149,1.9193,-12.5513,0.4866,0.0366,-0.0444,52
10.989,212,5.5162,3.4928,-17.208,-0.0086,0.1416,-0.0703,86,11.022,212,8.2286,2.2369,-12.6481,0.5262,0.0614,-0.0258,52
11.041,213,5.6686,3.4803,-17.169,-0.0265,0.1447,-0.0403,86,11.074,213,8.2362,2.3517,-12.6272,0.3276,0.0678,0.0378,52
11.093,214,5.727,3.6832,-17.0094,-0.1102,0.1345,0.0077,86,11.125,214,8.0181,2.5924,-12.6201,-0.1635,0.017,0.1454,52
11.145,215,5.8554,3.8515,-16.7498,-0.1727,0.1354,0.0268,86,11.177,215,8.3376,1.6547,-12.563,-0.3391,-0.0554,0.1997,52
11.196,216,5.9398,4.212,-16.6075,-0.1208,0.1693,-0.0277,86,11.229,216,8.4779,1.5776,-12.5406,-0.4788,-0.0955,0.1861,52
11.248,217,5.9105,4.4018,-16.7399,-0.0325,0.189,-0.1524,86,11.281,217,8.5355,1.5405,-12.5048,-0.402,-0.1035,0.1167,52
11.3,218,5.6519,4.2321,-16.9102,0.0666,0.141,-0.3191,86,11.333,218,8.5079,1.4806,-12.492,-0.375,-0.1225,0.0934,52
11.352,219,5.2642,3.8537,-17.196,0.0736,0.0797,-0.4434,86,11.384,219,8.4907,1.4096,-12.5832,-0.3525,-0.166,0.0143,52
11.404,220,5.0842,3.2246,-17.5228,0.1875,0.0263,-0.5045,86,11.436,220,8.4212,1.5838,-12.6942,-0.4214,-0.1601,-0.0291,52
11.456,221,5.1339,2.87,-17.8018,0.3829,-0.0169,-0.5319,86,11.488,221,8.4477,1.827,-12.6925,-0.4593,-0.1676,-0.0515,52
11.507,222,5.1016,2.9614,-17.9296,0.452,-0.1338,-0.4873,86,11.54,222,8.3133,1.8388,-12.7321,-0.4612,-0.1539,-0.0658,52
11.559,223,5.0664,2.9192,-17.9917,0.3434,-0.2775,-0.4205,86,11.591,223,8.276,1.9459,-12.7405,-0.4265,-0.1794,-0.0326,52
11.611,224,5.0719,2.9277,-18.0081,0.295,-0.3874,-0.3109,86,11.643,224,8.3135,1.9883,-12.8094,-0.4052,-0.1735,-0.0135,52
11.663,225,5.0078,2.9913,-17.903,0.2163,-0.4442,-0.1331,86,11.695,225,8.2148,1.9838,-12.968,-0.323,-0.1473,0.019,52
11.714,226,4.9462,3.0394,-17.562,0.185,-0.4771,0.0534,86,11.747,226,8.2774,1.9974,-13.0115,-0.2354,-0.0616,0.0232,52
11.766,227,4.7112,3.7918,-17.3198,0.2278,-0.4232,0.2023,86,11.799,227,8.2623,1.9481,-12.9704,-0.1218,0.0247,0.0081,52
11.818,228,4.4785,4.6911,-17.467,0.1461,-0.2964,0.2977,86,11.85,228,8.2683,2.0977,-12.8147,0.0129,0.0755,-0.053,52
11.87,229,4.1484,5.55,-17.9373,0.1096,-0.2102,0.2595,86,11.902,229,8.1362,2.0261,-12.9527,0.1105,0.05,-0.0873,52
11.922,230,3.9185,5.5748,-18.4338,0.0565,-0.1758,0.0962,86,11.954,230,8.2939,1.9512,-12.9613,0.0966,0.0661,-0.1639,52
11.973,231,3.6761,5.1425,-18.5711,0.0806,-0.1693,-0.0753,86,12.006,231,8.3432,2.2668,-12.7976,0.0665,0.1121,-0.2176,52
12.025,232,3.7275,4.7055,-18.6262,0.0928,-0.1941,-0.1571,86,12.058,232,8.3047,2.0972,-12.6631,0.1871,0.1563,-0.2491,52
12.077,233,3.748,3.9604,-18.7884,-0.046,-0.272,-0.2547,86,12.109,233,8.2993,2.5026,-12.5741,0.276,0.0512,-0.1431,52
12.129,234,3.5146,2.6258,-18.829,0.1494,-0.3201,-0.4348,86,12.161,234,8.314,2.3711,-12.8398,0.352,0.0154,-0.0702,52
12.18,235,3.6638,2.0073,-18.688,0.5142,-0.318,-0.4351,86,12.213,235,8.3017,2.3552,-12.9936,0.5068,0.0872,-0.0502,52
12.232,236,4.05,2.0942,-18.2086,0.4146,-0.2715,-0.0507,86,12.265,236,8.0061,2.8731,-12.8958,0.5157,0.164,-0.0323,52
12.284,237,4.3627,2.2667,-17.6056,0.1068,-0.2079,0.4027,86,12.316,237,8.0376,2.6961,-12.7574,0.3296,0.17,0.0357,52
12.336,238,4.754,2.4045,-17.5951,-0.1719,-0.1094,0.7182,86,12.368,238,8.2079,2.1282,-12.8424,0.359,0.1848,0.0199,52
12.388,239,4.9211,3.3767,-17.503,-0.2153,0.0419,0.8891,86,12.42,239,8.2741,2.1285,-12.6156,0.4405,0.1684,-0.0123,52
12.439,240,4.8603,4.3673,-17.4997,-0.2959,0.158,0.8919,86,12.472,240,8.2564,1.9729,-12.6443,0.4449,0.1094,-0.0082,52
12.491,241,5.0112,4.2245,-17.5958,-0.2527,0.1919,0.7314,86,12.523,241,8.345,1.8668,-12.686,0.4959,0.1225,-0.0421,52
12.543,242,4.8772,4.0174,-17.7867,-0.4287,0.1847,0.5213,86,12.575,242,8.1826,2.4944,-12.6464,0.4793,0.1392,-0.0385,52
12.595,243,4.5104,3.9616,-17.6687,-0.5742,0.2042,0.3375,86,12.627,243,8.0751,2.7156,-12.5143,0.1839,0.0838,0.0165,52
12.647,244,4.2991,3.843,-17.8326,-0.2661,0.2355,0.1239,86,12.679,244,8.2824,1.2711,-12.567,-0.2405,-0.0451,0.1157,52
12.698,245,4.4479,3.8853,-18.1601,0.112,0.2461,-0.0829,86,12.731,245,8.3644,1.5172,-12.6841,-0.2855,-0.09,0.1052,52
12.75,246,4.4474,3.8912,-18.3367,0.0994,0.2262,-0.2085,86,12.782,246,8.5753,1.2246,-12.7309,-0.2567,-0.0462,0.0465,52
12.802,247,4.3497,3.7929,-18.1151,0.0629,0.1592,-0.3112,86,12.834,247,8.5989,1.4639,-12.638,-0.1871,-0.0074,0.0124,52
12.854,248,4.1485,3.3155,-17.9717,0.0068,0.1062,-0.3689,86,12.886,248,8.5149,1.4471,-12.6225,-0.1627,-0.0185,0.0363,52
12.906,249,3.9357,2.901,-18.1647,0.0002,0.1113,-0.3576,86,12.938,249,8.4198,1.6087,-12.6445,-0.1272,-0.0368,0.048,52
12.958,250,3.9178,2.6938,-18.5942,0.0185,0.1207,-0.2791,86,12.989,250,8.4516,1.2346,-12.589,-0.0048,-0.0516,0.0141,52
13.009,251,4.1064,2.6796,-18.6673,0.072,0.048,-0.1242,86,13.041,251,8.3825,1.6748,-12.6505,0.1464,-0.0426,-0.0132,52
13.061,252,4.2525,2.8861,-18.3575,0.0159,-0.0234,0.0568,86,13.093,252,8.3907,1.7388,-12.9418,0.1752,0.0623,0.0078,52
13.113,253,4.4019,2.8478,-17.8149,-0.0816,-0.0624,0.2235,86,13.145,253,8.3393,2.0919,-12.8066,0.246,0.1957,0.058,52
13.165,254,4.4531,3.1236,-17.4894,-0.158,-0.0439,0.3527,86,13.197,254,8.2466,2.3701,-12.4721,0.1861,0.2426,0.1164,52
13.216,255,4.716,3.6309,-17.4401,-0.244,0.0525,0.5104,86,13.248,255,7.8878,3.4155,-11.855,-0.028,0.0664,0.2313,52
13.268,256,5.2462,4.0567,-17.7007,-0.2921,0.1311,0.6663,86,13.3,256,8.531,0.6368,-12.4855,-0.6245,-0.1974,0.3546,52
13.32,257,5.6812,4.6084,-17.391,-0.4676,0.1784,0.7471,86,13.352,257,8.6552,1.1019,-12.896,-0.3727,-0.2122,0.2314,52
13.372,258,5.8204,4.7622,-16.6634,-0.7123,0.1802,0.7227,86,13.404,258,8.7252,1.0442,-13.0749,-0.3039,-0.0662,0.1189,52
13.424,259,5.4174,4.6286,-16.0179,-0.7431,0.1592,0.4921,86,13.456,259,8.5706,1.5571,-12.6615,-0.3132,0.039,0.0664,52
13.476,260,5.3601,4.0483,-16.0082,-0.4269,0.1803,0.119,86,13.507,260,8.3544,1.5695,-12.0099,-0.1808,-0.0736,0.0671,52
13.527,261,5.4386,3.9898,-17.0627,0.1322,0.2677,-0.2235,86,13.559,261,8.2553,1.0847,-12.122,-0.1802,-0.2828,0.0731,52
13.579,262,5.4463,4.3803,-17.7174,0.3087,0.2838,-0.3343,86,13.611,262,8.289,1.2601,-12.8227,-0.1902,-0.2756,-0.0201,52
13.631,263,5.3301,4.1757,-17.8208,0.3665,0.1935,-0.4036,86,13.663,263,8.2464,1.6415,-13.033,-0.1749,-0.1432,-0.0274,52
13.683,264,4.9049,4.1232,-17.6469,0.3762,0.0181,-0.5124,86,13.714,264,8.3756,1.4556,-12.9909,-0.126,0.0261,-0.0317,52
13.734,265,4.6539,3.8253,-17.4699,0.2377,-0.1365,-0.5985,86,13.766,265,8.3986,1.5718,-12.7606,-0.0988,0.1145,-0.0627,52
13.786,266,4.5738,3.5694,-17.9938,0.3658,-0.2617,-0.7055,86,13.818,266,7.9875,0.9661,-12.9278,-0.1081,0.1363,-0.1084,52
13.838,267,4.1332,3.8438,-18.4757,0.6064,-0.3002,-0.7057,86,13.87,267,8.2888,1.5716,-12.7676,-0.1447,0.1771,-0.2233,52
13.89,268,3.6878,4.8538,-18.8432,0.3572,-0.2432,-0.3588,86,13.922,268,8.317,1.6082,-12.7238,-0.2128,0.1578,-0.292,52
13.942,269,3.7814,4.5762,-18.7978,0.0241,-0.2387,-0.122,86,13.973,269,8.1396,2.6065,-12.1428,-0.2073,0.0554,-0.2181,52
13.993,270,3.7129,3.413,-18.4988,0.0225,-0.3989,-0.2487,86,14.025,270,8.2679,2.5101,-12.5155,-0.1806,-0.0989,-0.0807,52
14.045,271,3.8466,2.9649,-18.4501,0.2553,-0.506,-0.3724,86,14.077,271,8.3713,2.1862,-12.4854,0.0621,-0.0064,-0.1744,52
14.097,272,3.9234,3.6522,-18.1821,0.228,-0.5502,-0.2043,86,14.129,272,8.292,2.3641,-12.4965,0.293,0.0079,-0.2285,52
14.149,273,3.9684,3.6687,-17.7519,-0.164,-0.5278,0.0832,86,14.181,273,8.5135,2.5557,-12.2953,0.539,-0.0687,-0.1851,52
14.201,274,3.9236,3.5027,-17.2663,-0.2045,-0.4023,0.2843,86,14.232,274,8.7358,2.2311,-12.3837,0.652,0.0163,-0.177,52
14.252,275,3.9967,3.7108,-17.0735,-0.2108,-0.2244,0.3933,86,14.284,275,8.2467,2.6571,-13.0464,0.811,0.0408,-0.0858,52
14.304,276,3.8626,3.8725,-17.0824,-0.2256,-0.1002,0.4602,86,14.336,276,7.9283,2.7973,-13.2404,0.866,0.1857,-0.1064,52
14.356,277,4.0732,4.6895,-17.5339,-0.1701,-0.0107,0.5159,86,14.388,277,8.0723,2.2083,-13.2031,1.1123,0.1729,-0.1359,52
14.408,278,4.0446,5.3113,-17.7021,-0.3404,0.04,0.5483,86,14.439,278,7.7875,3.411,-13.2136,0.9463,0.1269,-0.085,52
14.46,279,3.9477,5.674,-17.8036,-0.2885,0.0718,0.5085,86,14.491,279,8.1911,1.9227,-12.8668,0.886,0.109,-0.0799,52
14.511,280,4.0669,6.1313,-17.9028,-0.3463,0.0845,0.4382,86,14.543,280,7.7648,2.6612,-13.3126,0.5707,0.0029,-0.0268,52
14.563,281,4.2437,5.8575,-17.5466,-0.5673,0.0206,0.2883,86,14.595,281,8.8939,0.6601,-12.8095,0.3983,0.0048,-0.0477,52
14.615,282,4.4493,4.679,-17.9465,-0.1439,-0.0655,-0.0454,86,14.647,282,8.5938,1.5138,-13.1583,0.3829,-0.0744,-0.0935,52
14.667,283,4.2975,4.1595,-17.8138,0.1018,-0.2358,-0.2204,86,14.698,283,9.0034,0.8137,-13.1078,0.1723,-0.036,-0.1523,52
14.719,284,3.8048,2.9463,-17.7258,-0.1917,-0.3228,-0.2675,86,14.75,284,8.7977,1.4172,-13.2696,-0.0425,0.0164,-0.2339,52
14.77,285,3.1538,1.9754,-17.4087,0.5366,-0.2734,-0.1209,86,14.802,285,8.1877,2.0885,-13.1685,-0.311,0.0823,-0.2618,52
14.822,286,2.6511,2.0483,-17.792,0.3511,-0.0547,0.2515,86,14.854,286,7.7188,2.8712,-12.804,-0.6685,-0.0478,-0.214,52
14.874,287,3.1137,0.59,-17.8594,0.917,0.1585,0.502,86,14.906,287,7.3475,3.3166,-12.5886,-1.165,-0.2325,-0.1164,52
14.926,288,3.3605,0.6467,-16.7973,1.2439,0.5732,0.7658,86,14.957,288,8.2739,2.0928,-12.0223,-0.8835,-0.5923,-0.0437,52
14.977,289,4.3668,0.2036,-15.2224,1.3987,1.0967,1.2146,86,15.009,289,8.0319,2.0138,-13.4846,-0.6057,-0.389,-0.1525,52
15.029,290,7.8031,1.519,-14.7736,1.1535,1.4788,1.4927,86,15.061,290,8.2953,2.3157,-12.9545,-0.4468,-0.0723,-0.2092,52
15.081,291,7.8615,1.8256,-18.7873,0.4984,1.0175,1.5241,86,15.112,291,8.027,2.7298,-12.5953,-0.4866,-0.0503,-0.2218,52
