right_leg_timestamp,right_leg_index,right_leg_accel_x,right_leg_accel_y,right_leg_accel_z,right_leg_gyro_x,right_leg_gyro_y,right_leg_gyro_z,right_leg_battery_percentage,left_leg_timestamp,left_leg_index,left_leg_accel_x,left_leg_accel_y,left_leg_accel_z,left_leg_gyro_x,left_leg_gyro_y,left_leg_gyro_z,left_leg_battery_percentage
0.093,1,9.2974,-2.4871,-8.7547,0.0184,-0.0408,-0.0202,88,0.129,2,-3.6921,-7.1889,-15.8825,0.0072,-0.0068,-0.1307,52
0.144,2,9.2587,-2.422,-8.573,0.0294,0.0224,-0.0051,88,0.181,3,-3.7881,-7.2422,-15.9546,-0.0111,-0.0142,-0.1219,52
0.196,3,9.3323,-2.3798,-8.5305,0.007,0.0196,0.0064,88,0.232,4,-3.9932,-7.2315,-16.0279,-0.0297,-0.0457,-0.136,52
0.248,4,9.2903,-2.3155,-8.6039,0.0029,0.0905,0.0265,88,0.284,5,-4.0436,-7.2079,-16.0858,-0.0604,-0.0907,-0.1525,52
0.3,5,9.3116,-2.3698,-8.5799,-0.0097,0.0646,0.0246,88,0.336,6,-3.9317,-7.0387,-16.0193,-0.0625,-0.1387,-0.1557,52
0.352,6,9.344,-2.2585,-8.5222,-0.0097,0.0596,0.0266,88,0.388,7,-3.8136,-7.0867,-15.9451,-0.0886,-0.1766,-0.1043,52
0.403,7,9.3107,-2.308,-8.4691,-0.0335,0.0082,0.0091,88,0.44,8,-3.7356,-7.1612,-15.8931,-0.0777,-0.1954,-0.0609,52
0.455,8,9.2674,-2.4145,-8.4838,-0.0297,0.0072,0.0061,88,0.491,9,-3.7593,-7.388,-16.0075,-0.1627,-0.1527,-0.0375,52
0.507,9,9.1921,-2.4589,-8.3836,-0.0031,0.0235,0.0057,88,0.543,10,-3.6945,-7.4105,-16.027,-0.0843,-0.1105,-0.0622,52
0.559,10,9.2408,-2.4001,-8.4371,0.0175,-0.017,0.0089,88,0.595,11,-3.5716,-7.4977,-16.042,0.0488,-0.0713,-0.079,52
0.611,11,9.1984,-2.4276,-8.3842,0.0122,-0.0333,0.0026,88,0.647,12,-3.5702,-7.4234,-15.9103,0.1316,-0.0606,-0.0952,52
0.662,12,9.2562,-2.4124,-8.5238,0.0171,-0.0708,-0.0071,88,0.698,13,-3.6031,-7.4963,-15.9089,0.1487,-0.0105,-0.0953,52
0.714,13,9.2761,-2.308,-8.4967,0.0509,-0.1209,-0.0077,88,0.75,14,-3.6215,-7.5642,-15.837,0.1938,0.0095,-0.1129,52
0.766,14,9.2844,-2.332,-8.5242,0.0386,-0.1354,0.0028,88,0.802,15,-3.6636,-7.4804,-15.8601,0.152,0.0369,-0.1181,52
0.818,15,9.2875,-2.3723,-8.6061,0.0312,-0.1141,0.0112,88,0.854,16,-3.6547,-7.4739,-15.9205,0.1282,0.0424,-0.1246,52
0.87,16,9.3031,-2.3086,-8.6531,0.0408,-0.0884,0.0148,88,0.906,17,-3.7274,-7.388,-15.9196,0.0708,0.0561,-0.112,52
0.921,17,9.3544,-2.2967,-8.695,0.0133,-0.0344,0.02,88,0.957,18,-3.796,-7.3912,-15.8644,0.0445,0.0795,-0.0758,52
0.973,18,8.9911,-2.2402,-8.8494,-0.0038,0.1522,0.0537,88,1.009,19,-3.7491,-7.4494,-15.7645,0.0069,0.1126,-0.0118,52
1.025,19,9.0798,-2.3297,-8.7502,-0.0187,0.1411,0.0488,88,1.061,20,-3.6163,-7.2308,-15.5599,-0.0681,0.1183,0.07,52
1.076,20,9.1247,-2.3787,-8.6529,-0.0287,0.1315,0.0341,88,1.113,21,-3.5752,-7.2015,-15.4956,-0.1389,0.0337,0.1572,52
1.128,21,9.1262,-2.4233,-8.5819,-0.0357,0.0928,0.0235,88,1.165,22,-3.5632,-7.3225,-15.6025,-0.0231,-0.0487,0.1954,52
1.18,22,9.1096,-2.4625,-8.5086,-0.0425,0.0588,0.0219,88,1.216,23,-3.6005,-7.3923,-15.6703,-0.0427,-0.0898,0.2112,52
1.232,23,9.1445,-2.4824,-8.4779,-0.0631,-0.0058,0.0052,88,1.268,24,-3.7077,-7.4059,-15.7951,-0.0424,-0.1059,0.1861,52
1.284,24,9.2267,-2.4313,-8.5809,-0.0712,-0.0463,-0.0075,88,1.32,25,-3.7931,-7.4269,-15.8526,0.0212,-0.1054,0.1574,52
1.335,25,9.2245,-2.4448,-8.6208,-0.061,-0.039,-0.0084,88,1.371,26,-3.8338,-7.4184,-15.8061,0.0649,-0.0933,0.1385,52
1.387,26,9.2353,-2.4494,-8.6281,-0.0443,-0.0379,-0.0087,88,1.423,27,-3.9478,-7.3641,-15.7663,0.0595,-0.0746,0.1318,52
1.439,27,9.2662,-2.4212,-8.6505,-0.0326,-0.0288,-0.0104,88,1.475,28,-3.9584,-7.4853,-15.7234,0.098,-0.0769,0.1162,52
1.491,28,9.2958,-2.4333,-8.7343,-0.0166,-0.0081,-0.0033,88,1.527,29,-4.0066,-7.7655,-15.8334,0.1377,-0.0638,0.0849,52
1.542,29,9.2221,-2.476,-8.6255,-0.0044,0.0134,0.0038,88,1.579,30,-3.9453,-7.8039,-15.8954,0.1807,-0.0204,-0.0281,52
1.594,30,9.2423,-2.4896,-8.6831,0.01,-0.0261,0.0055,88,1.63,31,-3.7742,-7.6908,-15.898,0.1374,0.0329,-0.1465,52
1.646,31,9.2822,-2.3585,-8.6314,0.049,-0.0943,-0.0105,88,1.682,32,-3.6242,-7.4122,-15.7879,0.0478,0.0735,-0.2125,52
1.698,32,9.3268,-2.4385,-8.6326,0.0833,-0.1535,-0.0151,88,1.734,33,-3.6037,-7.293,-15.6673,0.0348,0.0969,-0.1983,52
1.75,33,9.4152,-2.3555,-8.7557,0.1017,-0.1492,-0.0101,88,1.786,34,-3.716,-7.276,-15.6318,0.0469,0.1167,-0.1326,52
1.802,34,9.4042,-2.3161,-8.8796,0.1021,-0.1149,0.0048,88,1.837,35,-3.8391,-7.2654,-15.6964,0.0689,0.1176,-0.0517,52
1.853,35,9.3817,-2.2577,-8.9324,0.0855,-0.0758,0.0189,88,1.889,36,-3.8993,-7.3073,-15.7642,0.1336,0.0977,-0.0028,52
1.905,36,9.3977,-2.2418,-8.9713,0.027,-0.0329,0.0301,88,1.941,37,-3.8692,-7.6525,-15.827,0.1105,0.1005,0.0206,52
1.957,37,9.2821,-2.4568,-8.946,-0.0283,0.0424,0.0451,88,1.993,38,-3.7175,-7.7685,-15.6884,0.101,0.1042,-0.0101,52
2.009,38,9.3341,-2.4843,-9.0234,-0.0338,0.0798,0.0353,88,2.045,39,-3.4851,-8.2194,-15.3927,0.1861,0.1311,-0.0809,52
2.061,39,9.288,-2.5806,-8.9297,-0.0342,0.1356,0.0234,88,2.096,40,-3.2379,-8.1967,-15.1039,0.2506,0.174,-0.1185,52
2.112,40,9.2148,-2.6193,-8.7456,-0.0042,0.1108,-0.0115,88,2.148,41,-3.1425,-8.2274,-15.0733,0.2457,0.2014,-0.1383,52
2.164,41,9.2306,-2.5549,-8.7202,0.0337,0.0751,-0.0307,88,2.2,42,-3.1755,-8.1306,-15.1132,0.2517,0.2156,-0.1604,52
2.216,42,9.2547,-2.4739,-8.5909,0.068,0.0577,-0.0494,88,2.252,43,-3.1008,-8.1508,-15.0731,0.1848,0.222,-0.1629,52
2.268,43,9.4005,-2.2942,-8.65,0.0966,0.0331,-0.0365,88,2.304,44,-3.0017,-8.0971,-15.0548,0.1031,0.1942,-0.1436,52
2.319,44,9.2702,-2.4235,-8.568,0.0965,0.0386,-0.0332,88,2.355,45,-2.9013,-8.0447,-15.0708,0.018,0.1133,-0.1309,52
2.371,45,9.296,-2.2495,-8.676,0.1047,0.0542,-0.0248,88,2.407,46,-2.8785,-8.0619,-15.2146,0.0209,0.04,-0.126,52
2.423,46,9.2201,-2.3234,-8.5084,0.1041,0.0863,0.0151,88,2.459,47,-2.9453,-8.0623,-15.4386,-0.0251,0.005,-0.1102,52
2.475,47,9.2979,-2.2317,-8.4695,0.0909,0.0735,0.036,88,2.511,48,-3.0108,-7.8292,-15.6069,-0.1081,-0.0354,-0.0769,52
2.527,48,9.2745,-2.2925,-8.3867,0.0855,0.0902,0.0635,88,2.562,49,-3.0496,-7.6986,-15.7624,-0.2394,-0.0739,-0.0177,52
2.578,49,9.2865,-2.246,-8.3839,0.0301,0.108,0.0836,88,2.614,50,-3.0723,-7.9869,-15.8305,-0.18,-0.0522,0.0046,52
2.63,50,9.189,-2.411,-8.2841,0.0256,0.1236,0.0742,88,2.666,51,-2.962,-8.0714,-15.7075,-0.2409,0.0629,-0.0191,52
2.682,51,9.1813,-2.4065,-8.2308,0.0335,0.0873,0.0448,88,2.718,52,-2.8888,-8.1321,-15.5535,-0.2468,0.137,-0.0678,52
2.734,52,9.2023,-2.423,-8.1709,0.0261,0.0578,0.0278,88,2.77,53,-2.8112,-7.8878,-15.274,-0.2329,0.1315,-0.1125,52
2.786,53,9.1425,-2.4956,-8.0166,0.0403,0.0163,0.0198,88,2.821,54,-2.6979,-7.762,-15.1195,-0.1966,0.0224,-0.1057,52
2.837,54,9.1403,-2.4246,-8.0881,0.0579,-0.0307,0.0102,88,2.873,55,-2.6582,-7.6943,-15.1824,-0.1264,-0.1102,-0.073,52
2.889,55,9.0846,-2.4761,-8.1096,0.0273,-0.0775,-0.0016,88,2.925,56,-2.7406,-7.8008,-15.4532,-0.0361,-0.2065,-0.0595,52
2.941,56,9.1547,-2.429,-8.2694,0.0359,-0.1529,-0.028,88,2.977,57,-2.8594,-7.7643,-15.7886,0.0133,-0.2402,-0.0672,52
2.993,57,9.2819,-2.2205,-8.42,0.0024,-0.1149,-0.0071,88,3.028,58,-2.9826,-7.7426,-16.0932,0.0561,-0.2489,-0.0805,52
3.045,58,9.3166,-2.3357,-8.3678,-0.0357,-0.0775,0.0159,88,3.08,59,-2.9864,-7.6504,-16.2482,0.0646,-0.2139,-0.0745,52
3.096,59,9.4698,-2.5128,-8.4247,-0.1321,0.0702,0.0588,88,3.132,60,-2.8831,-7.4381,-16.2651,0.0333,-0.1462,-0.0314,52
3.148,60,9.3497,-2.6748,-8.3005,-0.1414,0.117,0.0649,88,3.184,61,-2.8112,-7.3368,-16.1633,-0.0204,-0.0678,0.0288,52
3.2,61,9.4218,-2.5438,-8.3428,-0.1448,0.1154,0.026,88,3.236,62,-2.853,-7.3744,-15.9768,-0.0827,-0.0181,0.0926,52
3.252,62,9.3701,-2.5706,-8.367,-0.1855,0.1435,-0.0116,88,3.287,63,-2.85,-7.606,-15.7418,-0.1354,0.004,0.1439,52
3.304,63,9.2066,-2.7047,-8.202,-0.2722,0.1786,-0.0586,88,3.339,64,-2.8156,-7.7396,-15.5715,-0.0989,0.0072,0.1677,52
3.356,64,9.0957,-2.7542,-8.0939,-0.2523,0.1504,-0.0809,88,3.391,65,-2.7819,-7.8961,-15.519,-0.0727,0.0002,0.1637,52
3.407,65,9.0384,-2.8304,-8.0093,-0.1958,0.1015,-0.0847,88,3.443,66,-2.8357,-7.8779,-15.564,-0.0476,-0.0144,0.1213,52
3.459,66,8.9382,-2.8854,-8.1603,-0.0519,0.0017,-0.0624,88,3.494,67,-2.9681,-7.854,-15.6269,-0.0401,-0.028,0.0572,52
3.511,67,9.1563,-2.6637,-8.2599,-0.0547,-0.0097,-0.0283,88,3.546,68,-3.1211,-7.9412,-15.6509,-0.0187,-0.055,-0.0075,52
3.563,68,9.0055,-2.7146,-8.2807,-0.0434,-0.0404,-0.0226,88,3.598,69,-3.2379,-7.9039,-15.6895,0.0409,-0.0849,-0.075,52
3.614,69,9.0236,-2.5962,-8.3484,-0.0406,-0.0195,-0.0039,88,3.65,70,-3.2904,-7.727,-15.7972,0.0504,-0.124,-0.1404,52
3.666,70,9.0572,-2.555,-8.3853,-0.0073,-0.0444,0.0103,88,3.702,71,-3.2776,-7.6145,-15.9611,0.0556,-0.1647,-0.1681,52
3.718,71,9.1478,-2.5614,-8.3454,-0.009,-0.0118,0.0379,88,3.754,72,-3.2041,-7.5413,-16.0209,0.047,-0.1789,-0.1505,52
3.77,72,9.1154,-2.5143,-8.3834,-0.0129,0.0079,0.0419,88,3.805,73,-3.1524,-7.4694,-15.9511,0.0168,-0.1446,-0.1053,52
3.822,73,9.2235,-2.4567,-8.4403,-0.0316,0.0133,0.0298,88,3.857,74,-3.055,-7.4313,-15.7777,-0.0076,-0.0996,-0.0436,52
3.873,74,9.2495,-2.4938,-8.3763,-0.0919,0.0304,0.0092,88,3.909,75,-3.0669,-7.4162,-15.6317,-0.0091,-0.089,0.032,52
3.925,75,9.2591,-2.4755,-8.3621,-0.1657,0.0606,-0.0298,88,3.96,76,-3.147,-7.6508,-15.5768,-0.0148,-0.1063,0.0708,52
3.977,76,9.0348,-2.8572,-8.2727,-0.179,0.0521,-0.0297,88,4.012,77,-3.1965,-7.7137,-15.5373,-0.018,-0.124,0.062,52
4.029,77,9.4464,-2.3076,-8.5971,0.0159,-0.0255,-0.0945,88,4.064,78,-3.0953,-7.7285,-15.4338,-0.0586,-0.1762,0.0319,52
4.081,78,9.3857,-2.5169,-8.4712,0.0176,-0.0338,-0.0594,88,4.116,79,-3.2267,-7.764,-15.3942,-0.0454,-0.248,0.0309,52
4.132,79,9.2932,-2.6158,-8.41,0.0323,-0.0403,-0.0288,88,4.168,80,-3.5834,-8.0169,-15.6703,-0.0871,-0.285,0.0207,52
4.184,80,9.0823,-2.7989,-8.355,0.0764,-0.0519,0.0073,88,4.219,81,-3.7948,-8.0978,-15.9391,-0.0919,-0.196,-0.0571,52
4.236,81,9.1698,-2.412,-8.4369,0.196,-0.1586,-0.0069,88,4.271,82,-3.7135,-7.9591,-15.9923,-0.0992,-0.0779,-0.1495,52
4.288,82,9.1448,-2.5404,-8.3939,0.2006,-0.1586,0.0351,88,4.323,83,-3.7325,-7.7579,-16.0062,-0.1,0.0047,-0.2127,52
4.339,83,9.1245,-2.6045,-8.3882,0.1851,-0.129,0.0402,88,4.375,84,-3.5453,-7.5741,-15.9516,-0.0475,0.0678,-0.2152,52
4.391,84,9.3821,-2.6339,-8.3079,0.1437,0.0111,0.0464,88,4.426,85,-3.245,-7.2037,-15.8168,0.0354,0.1044,-0.157,52
4.443,85,9.3484,-2.5511,-8.2697,0.0722,-0.0088,0.0142,88,4.478,86,-2.9602,-6.8707,-15.6262,0.0067,0.1127,-0.055,52
4.495,86,9.4998,-2.4034,-8.4195,-0.0821,0.0064,0.004,88,4.53,87,-2.8353,-7.0924,-15.503,0.0019,0.0947,0.088,52
4.547,87,9.377,-2.4848,-8.4394,-0.2139,0.0531,-0.0088,88,4.582,88,-3.1685,-7.5433,-15.5226,0.0196,0.0929,0.1984,52
4.598,88,9.1136,-2.9252,-8.3432,-0.2541,0.0807,-0.0132,88,4.634,89,-3.4493,-7.743,-15.6404,0.0384,0.0944,0.2244,52
4.65,89,8.6741,-3.4476,-8.3332,-0.1502,0.0664,0.0152,88,4.685,90,-3.4081,-7.8197,-15.7754,0.0683,0.0657,0.1578,52
4.702,90,9.1405,-2.6592,-8.2389,-0.0711,0.0386,0.0151,88,4.737,91,-3.3259,-7.6465,-15.8053,0.0817,0.0949,0.1194,52
4.754,91,9.0801,-2.5936,-8.1486,-0.058,-0.0311,0.0177,88,4.789,92,-3.3271,-7.3362,-15.7716,0.0587,0.128,0.1164,52
4.806,92,9.3118,-2.3942,-8.3918,-0.0795,-0.0315,0.0146,88,4.841,93,-3.2435,-7.3512,-15.7089,0.041,0.1216,0.1508,52
4.858,93,9.2672,-2.4966,-8.4166,-0.1324,0.0525,0.0056,88,4.892,94,-3.3654,-7.5152,-15.6866,0.0278,0.0755,0.1778,52
4.909,94,9.1679,-2.5499,-8.3087,-0.1881,0.0933,-0.0092,88,4.944,95,-3.5369,-7.7436,-15.792,-0.0073,0.0388,0.1417,52
4.961,95,9.0007,-3.0103,-8.2569,-0.199,0.0768,0.0105,88,4.996,96,-3.3847,-7.9149,-15.822,-0.0448,-0.0045,-0.0025,52
5.013,96,9.1441,-2.6387,-8.4769,0.0461,-0.0199,-0.0233,88,5.048,97,-3.2297,-7.9348,-15.7656,-0.1002,-0.0325,-0.1499,52
5.065,97,9.2361,-2.6461,-8.3861,0.0991,-0.0408,-0.001,88,5.1,98,-3.2118,-7.853,-15.815,-0.1305,-0.0516,-0.2696,52
5.117,98,8.9707,-2.9472,-8.3474,0.1445,-0.1037,0.0297,88,5.151,99,-3.23,-7.6062,-15.8043,-0.1263,-0.0792,-0.3429,52
5.168,99,9.2359,-2.3594,-8.5262,0.1979,-0.1983,0.0084,88,5.203,100,-3.2025,-7.5122,-15.8302,-0.0834,-0.1017,-0.3364,52
5.22,100,9.2647,-2.5112,-8.5707,0.1877,-0.2019,0.0207,88,5.255,101,-3.1979,-7.3935,-15.9506,-0.0331,-0.1084,-0.2693,52
5.272,101,9.6724,-2.5547,-8.354,0.1462,-0.0508,0.0155,88,5.307,102,-3.1828,-7.3878,-16.0765,0.0251,-0.0854,-0.1857,52
5.324,102,9.5229,-2.5293,-8.5278,0.0849,-0.0276,0.0127,88,5.359,103,-2.9814,-7.3391,-16.0393,0.019,-0.0389,-0.1173,52
5.375,103,9.4782,-2.525,-8.6128,0.0403,-0.0063,0.0138,88,5.41,104,-2.7787,-7.5206,-15.9197,0.0109,-0.0007,-0.0515,52
5.427,104,9.4198,-2.5642,-8.6061,-0.0065,0.0134,0.0002,88,5.462,105,-2.8012,-7.7151,-15.929,0.0189,0.0294,0.0038,52
5.479,105,9.3024,-2.7011,-8.6061,-0.0128,0.0223,-0.0059,88,5.514,106,-2.9336,-7.7743,-15.9685,0.0301,0.0376,0.0078,52
5.531,106,8.9853,-2.8794,-8.6072,0.0385,-0.0122,0.0087,88,5.566,107,-2.9266,-7.8479,-15.9116,0.0377,0.0305,-0.0243,52
5.583,107,9.3261,-2.5375,-8.6442,0.0914,-0.0946,-0.0047,88,5.617,108,-2.8526,-7.7422,-15.8256,0.0175,0.0151,-0.0628,52
5.634,108,9.3025,-2.6706,-8.6766,0.1133,-0.1333,-0.0185,88,5.669,109,-2.8457,-7.6832,-15.7908,0.0028,-0.047,-0.0892,52
5.686,109,9.3658,-2.5283,-8.744,0.0994,-0.1083,-0.0198,88,5.721,110,-2.9321,-8.0447,-15.9188,0.0315,-0.1053,-0.1258,52
5.738,110,9.328,-2.5301,-8.8016,0.0768,-0.0715,-0.0153,88,5.773,111,-2.8669,-7.8665,-15.9194,-0.0239,-0.1095,-0.2086,52
5.79,111,9.3082,-2.5059,-8.7964,0.0617,-0.0413,-0.0099,88,5.825,112,-2.9183,-7.6881,-15.7717,-0.1668,-0.2497,-0.2841,52
5.841,112,9.3254,-2.4787,-8.8046,0.0527,-0.0299,-0.0101,88,5.876,113,-2.8148,-5.0446,-15.1112,-0.4856,-0.6512,-0.1258,52
5.893,113,9.2975,-2.48,-8.7836,0.0329,-0.0078,-0.0078,88,5.928,114,-2.6965,-4.273,-14.8875,-0.3936,-1.1374,0.5404,52
5.945,114,9.3314,-2.4556,-8.7648,0.0231,-0.0016,-0.0174,88,5.98,115,-3.1567,-2.9847,-13.6908,0.1357,-1.4969,1.0748,52
5.997,115,9.3487,-2.4222,-8.783,-0.0035,0.0038,-0.0218,88,6.032,116,-4.695,-2.1505,-12.0699,0.4428,-1.7593,1.4648,52
