right_leg_timestamp,right_leg_index,right_leg_accel_x,right_leg_accel_y,right_leg_accel_z,right_leg_gyro_x,right_leg_gyro_y,right_leg_gyro_z,right_leg_battery_percentage,left_leg_timestamp,left_leg_index,left_leg_accel_x,left_leg_accel_y,left_leg_accel_z,left_leg_gyro_x,left_leg_gyro_y,left_leg_gyro_z,left_leg_battery_percentage
0.122,2,9.3616,-1.8384,-11.6122,-0.0306,-0.0046,0.0333,86,0.001,0,8.2457,-0.0799,-13.7931,0.0157,0.0702,0.0306,52
0.173,3,9.3651,-1.8834,-11.6453,-0.0519,0.0212,0.0507,86,0.053,1,8.2364,-0.1901,-13.7025,0.0087,0.0976,0.0696,52
0.225,4,9.3357,-1.9253,-11.5369,-0.0769,0.0423,0.063,86,0.105,2,8.2368,-0.2728,-13.6451,-0.001,0.0974,0.076,52
0.277,5,9.2997,-2.0084,-11.5376,-0.1012,0.0546,0.0608,86,0.156,3,8.2879,-0.2302,-13.6367,-0.0383,0.0893,0.0739,52
0.329,6,9.2672,-2.0256,-11.4703,-0.063,0.0414,0.0597,86,0.208,4,8.3813,-0.227,-13.7832,0.0027,0.1609,0.1471,52
0.381,7,9.3173,-1.9531,-11.5341,0.0048,0.0337,0.06,86,0.26,5,8.619,-0.2396,-13.6022,0.1085,0.2972,0.4723,52
0.432,8,9.4126,-1.7803,-11.5529,-0.0032,0.1181,0.1226,86,0.312,6,10.0975,-2.069,-12.4681,0.5265,0.5058,0.7723,52
0.484,9,9.3408,-2.0273,-11.6293,-0.038,0.2111,0.1887,86,0.364,7,7.6215,-2.1758,-11.8416,0.2125,0.5719,1.1038,52
0.536,10,9.1833,-2.3453,-11.2121,-0.1295,0.2274,0.1133,86,0.415,8,8.5944,-2.2405,-12.63,-0.1613,0.1611,0.6586,52
0.588,11,9.182,-2.3783,-11.0352,-0.0624,0.0373,-0.025,86,0.467,9,9.3121,-1.7068,-12.4276,-0.0896,0.0097,0.3192,52
0.64,12,9.2719,-2.1388,-11.2432,-0.0379,-0.0726,-0.1238,86,0.519,10,8.9009,-1.991,-12.7273,-0.0964,-0.0272,0.2369,52
0.691,13,9.3231,-1.9798,-11.2024,-0.056,-0.0732,-0.1176,86,0.571,11,8.3253,-2.3464,-12.2984,-0.0598,-0.0398,0.111,52
0.743,14,9.3006,-1.7893,-11.3024,-0.122,-0.0769,-0.094,86,0.622,12,9.069,-2.0072,-12.5014,-0.0701,-0.1035,0.0413,52
0.795,15,9.4047,-2.4405,-11.2784,-0.2114,-0.1944,-0.1274,86,0.674,13,8.5478,-2.1127,-12.7172,-0.1046,-0.0903,0.1062,52
0.847,16,9.2881,-2.3348,-11.5903,-0.395,-0.2897,-0.1917,86,0.726,14,8.4312,-2.0952,-12.7161,-0.1166,-0.1176,0.1125,52
0.899,17,9.3575,-1.9173,-11.9174,-0.3825,-0.3902,-0.2564,86,0.778,15,8.4717,-2.0936,-12.8077,-0.0964,-0.1482,0.0913,52
0.951,18,9.7101,-1.8445,-12.0647,-0.29,-0.426,-0.2875,86,0.83,16,8.4011,-2.0319,-12.946,-0.0218,-0.1411,0.0584,52
1.002,19,9.9338,-1.5401,-12.0727,-0.207,-0.4969,-0.3738,86,0.881,17,8.3566,-2.0391,-12.9847,0.0221,-0.1382,0.0514,52
1.054,20,9.8715,-0.9943,-12.2606,-0.1951,-0.586,-0.3972,86,0.933,18,8.3578,-2.122,-13.1298,0.0524,-0.093,0.0394,52
1.106,21,8.8086,-0.5461,-13.0396,-0.069,-0.5351,-0.3693,86,0.985,19,8.3354,-2.2193,-13.1562,0.0625,-0.0455,0.0041,52
1.158,22,8.1782,-0.6957,-13.6711,0.0148,-0.3354,-0.2672,86,1.037,20,8.2403,-2.2847,-13.0639,0.0539,-0.0207,-0.0721,52
1.209,23,8.4392,-0.2695,-13.6334,0.0345,-0.0694,-0.129,86,1.088,21,8.125,-2.1329,-12.9318,0.0346,-0.0145,-0.1705,52
1.261,24,8.6333,-0.259,-13.4931,0.1064,0.1474,0.0291,86,1.14,22,8.1524,-2.0657,-13.0082,-0.0168,-0.0367,-0.2382,52
1.313,25,8.9176,-0.7168,-13.2532,0.1392,0.3275,0.1673,86,1.192,23,8.3218,-1.8892,-13.0991,-0.0351,-0.0451,-0.2763,52
1.365,26,9.2347,-1.2322,-12.9037,0.1841,0.4284,0.2005,86,1.244,24,8.2737,-1.785,-13.0882,-0.0422,-0.0523,-0.2761,52
1.417,27,9.0894,-1.3775,-12.6792,0.1716,0.4543,0.2102,86,1.296,25,8.3361,-1.617,-13.1223,-0.0379,-0.0736,-0.3105,52
1.468,28,9.2093,-1.5056,-12.2767,0.1715,0.373,0.1623,86,1.347,26,8.3709,-1.4112,-13.2084,-0.0412,-0.1228,-0.3176,52
1.52,29,9.2509,-1.3554,-12.0638,0.0996,0.1867,0.0758,86,1.399,27,8.451,-1.1603,-13.4428,-0.0386,-0.1267,-0.2695,52
1.572,30,9.3396,-1.3879,-12.0166,-0.0334,0.0371,0.0455,86,1.451,28,8.4725,-1.0148,-13.5493,-0.0195,-0.0487,-0.1797,52
1.624,31,9.3802,-1.1955,-11.3606,-0.6088,0.0971,0.1273,86,1.503,29,8.5705,-0.9978,-13.5362,-0.0033,0.0442,-0.1217,52
1.676,32,9.1122,-1.1498,-12.2362,-0.1983,0.1963,0.2236,86,1.555,30,8.8106,-0.9908,-13.5911,0.0255,0.2096,-0.0157,52
1.727,33,9.4857,-1.3934,-12.3645,-0.3604,0.3487,0.3567,86,1.606,31,8.8276,-1.1837,-13.2421,0.1836,0.3467,0.2096,52
1.779,34,9.4848,-1.4358,-12.0592,-0.339,0.3239,0.4263,86,1.658,32,11.1963,-3.8974,-12.9223,0.8087,0.6017,0.7388,52
1.831,35,9.6034,-1.5514,-12.0383,-0.3441,0.2255,0.4453,86,1.71,33,12.2946,-4.6777,-12.3014,1.2429,0.9882,1.2195,52
1.883,36,9.6649,-1.5754,-11.8816,-0.4022,0.1844,0.3737,86,1.761,34,12.2811,-4.8978,-11.9502,1.4472,1.2807,1.5704,52
1.935,37,9.5202,-1.9033,-11.8314,-0.422,0.2023,0.3059,86,1.813,35,11.2295,-4.7704,-11.6697,1.6122,1.4577,1.8265,52
1.986,38,9.3393,-2.12,-11.6467,-0.2859,0.2088,0.2591,86,1.865,36,9.3069,-4.4449,-11.2309,1.839,1.5313,2.0134,52
2.038,39,9.2192,-2.3596,-11.4842,-0.1176,0.1475,0.2247,86,1.917,37,7.2182,-4.4237,-10.6562,1.759,1.4231,2.1498,52
2.09,40,9.2252,-2.4127,-11.4209,-0.0631,0.086,0.1956,86,1.969,38,5.3701,-4.2997,-9.912,1.5282,1.1156,2.1677,52
2.141,41,9.0912,-2.7528,-11.4023,-0.0544,0.0755,0.1482,86,2.02,39,3.6925,-3.9989,-9.263,1.1492,0.7515,1.8646,52
2.193,42,8.8677,-3.0947,-11.3807,0.1571,0.0129,0.089,86,2.072,40,2.0645,-3.7212,-8.69,0.6726,0.3651,1.3616,52
2.245,43,9.1701,-2.6861,-11.2286,0.1314,-0.0398,0.0446,86,2.124,41,0.9199,-4.5437,-8.1341,0.2107,-0.0446,0.7026,52
2.297,44,9.0975,-2.8666,-11.3346,0.0813,-0.0733,0.0132,86,2.176,42,0.6031,-5.7047,-7.322,-0.1089,-0.3295,0.1782,52
2.349,45,9.1934,-2.5805,-11.3262,0.1101,-0.1173,-0.0284,86,2.228,43,0.9007,-7.1122,-6.7942,-0.3413,-0.4381,-0.1112,52
2.4,46,9.2121,-2.4858,-11.4233,0.1046,-0.1229,-0.0489,86,2.279,44,1.1782,-8.248,-6.2336,-0.2923,-0.3828,-0.209,52
2.453,47,9.1546,-2.4934,-11.4502,0.1429,-0.1291,-0.0593,86,2.331,45,1.2215,-8.9452,-6.0106,-0.276,-0.2498,-0.1741,52
2.504,48,9.1626,-2.487,-11.4781,0.1272,-0.1585,-0.0823,86,2.383,46,1.2383,-9.0718,-5.9135,-0.1412,-0.1025,-0.1346,52
2.556,49,9.1735,-2.4746,-11.5778,0.0698,-0.1835,-0.0974,86,2.435,47,1.1715,-8.9867,-5.8894,-0.0917,0.033,-0.0874,52
2.608,50,9.1868,-2.3792,-11.7249,0.0333,-0.1585,-0.0908,86,2.486,48,1.0419,-8.9027,-5.9929,-0.0703,0.1327,-0.0623,52
2.66,51,9.17,-2.3463,-11.8245,0.0221,-0.1133,-0.0677,86,2.538,49,0.9155,-8.821,-6.1074,-0.0495,0.1805,-0.0695,52
2.712,52,9.1703,-2.3564,-11.883,0.0428,-0.0769,-0.0485,86,2.59,50,0.8926,-8.8736,-6.2043,-0.0486,0.1875,-0.0932,52
2.763,53,9.1591,-2.3154,-11.8749,0.0647,-0.0317,-0.0273,86,2.642,51,0.9367,-9.0452,-6.2258,-0.0593,0.1759,-0.0982,52
2.815,54,9.1553,-2.3211,-11.8445,0.0508,-0.0094,-0.013,86,2.694,52,1.0787,-9.1801,-6.211,-0.0407,0.1553,-0.0854,52
2.867,55,9.2334,-2.209,-11.844,-0.031,0.0158,0.0078,86,2.745,53,1.1862,-9.269,-6.1795,-0.0295,0.1279,-0.0595,52
2.919,56,9.2184,-2.2038,-11.8557,-0.1293,0.0414,0.0372,86,2.797,54,1.2235,-9.2228,-6.2121,-0.0027,0.1166,-0.041,52
2.971,57,9.1705,-2.2949,-11.8413,-0.2105,0.0496,0.0343,86,2.849,55,1.1433,-9.0613,-6.251,0.0258,0.096,-0.0465,52
3.022,58,9.1131,-2.384,-11.8669,-0.2103,0.0433,0.019,86,2.901,56,1.0869,-8.9412,-6.3013,0.0231,0.0582,-0.0721,52
3.074,59,9.1838,-2.2128,-11.8414,-0.1833,0.0559,0.032,86,2.952,57,1.0601,-8.9321,-6.3325,0.0158,0.0172,-0.1115,52
3.126,60,9.1662,-2.3072,-11.8223,-0.1817,0.0629,0.0459,86,3.004,58,1.2092,-9.0407,-6.2877,-0.0102,-0.0081,-0.1449,52
3.177,61,9.1621,-2.2768,-11.7931,-0.1698,0.0657,0.0362,86,3.056,59,1.3434,-9.178,-6.2507,-0.0236,0.0029,-0.1382,52
3.229,62,9.2098,-2.1971,-11.7636,-0.1825,0.061,0.0442,86,3.108,60,1.3387,-9.1319,-6.2445,-0.0084,0.0165,-0.1247,52
3.281,63,9.253,-2.1436,-11.7697,-0.2325,0.0746,0.0592,86,3.16,61,1.3443,-9.0153,-6.2083,-0.0175,0.022,-0.1221,52
3.333,64,9.1959,-2.3042,-11.8273,-0.2959,0.1059,0.07,86,3.211,62,1.3529,-9.02,-6.2711,-0.0592,0.0267,-0.1311,52
3.385,65,9.1701,-2.3404,-11.7588,-0.2976,0.1271,0.0661,86,3.263,63,1.3389,-9.0145,-6.3776,-0.094,0.0358,-0.1398,52
3.436,66,8.8697,-2.8387,-11.8203,-0.1025,0.0862,0.0445,86,3.315,64,1.247,-8.9841,-6.4014,-0.134,0.0561,-0.1359,52
3.488,67,9.1034,-2.5482,-11.6873,-0.123,0.0788,0.0452,86,3.367,65,1.2446,-9.0995,-6.4906,-0.1644,0.0448,-0.123,52
3.54,68,9.1982,-2.403,-11.6579,-0.1353,0.0792,0.0432,86,3.418,66,1.4473,-9.1385,-6.4576,-0.1516,0.0059,-0.1057,52
3.592,69,9.1574,-2.4691,-11.7029,-0.2057,0.1046,0.0449,86,3.47,67,1.6951,-9.1633,-6.4581,-0.1673,-0.0156,-0.0624,52
3.643,70,9.1272,-2.583,-11.6869,-0.1901,0.1255,0.0562,86,3.522,68,1.7539,-9.1372,-6.5096,-0.137,-0.017,-0.0346,52
3.695,71,9.0698,-2.7294,-11.6242,-0.057,0.1159,0.0558,86,3.574,69,1.7925,-8.947,-6.5967,-0.1001,0.0034,-0.0323,52
3.747,72,8.4944,-3.2937,-11.6127,0.5684,-0.041,-0.0122,86,3.626,70,1.4753,-8.8659,-6.7133,-0.0737,0.0005,-0.0562,52
3.799,73,8.6828,-2.7759,-11.4859,0.3232,-0.1249,-0.041,86,3.677,71,1.7281,-9.0946,-6.8614,-0.0603,-0.0459,-0.1132,52
3.851,74,8.9699,-2.3918,-11.6614,0.2577,-0.1459,-0.0705,86,3.729,72,2.1745,-9.2933,-6.8422,-0.0712,-0.0595,-0.1374,52
3.903,75,9.0863,-2.2546,-11.7531,0.1321,-0.0491,-0.0313,86,3.781,73,2.2959,-9.3625,-6.8738,-0.1168,-0.0319,-0.1201,52
3.954,76,9.1419,-2.1982,-11.6572,-0.0441,0.0546,0.0275,86,3.833,74,2.2075,-9.1555,-6.8945,-0.1113,-0.0104,-0.1147,52
4.006,77,9.0794,-2.3683,-11.5359,-0.0811,0.0793,0.0354,86,3.885,75,2.1237,-9.0076,-6.9352,-0.1477,0.0102,-0.1035,52
4.058,78,9.0302,-2.4539,-11.5119,0.0453,0.0281,0.0122,86,3.936,76,2.0331,-9.11,-7.0237,-0.1419,0.0147,-0.1034,52
4.11,79,9.0604,-2.5668,-11.4846,0.0292,0.0037,0.0106,86,3.988,77,2.1301,-9.1686,-7.0382,-0.1189,0.0255,-0.0995,52
4.162,80,8.8048,-3.0091,-11.5914,0.1966,-0.0364,-0.0129,86,4.04,78,2.1204,-9.1522,-7.0529,-0.1179,0.0536,-0.0786,52
4.213,81,8.9951,-2.7013,-11.4834,0.3445,-0.1145,-0.0605,86,4.091,79,2.0916,-9.1607,-7.1196,-0.0996,0.0615,-0.0737,52
4.265,82,9.0735,-2.744,-11.545,0.3572,-0.1745,-0.0912,86,4.143,80,2.1993,-9.1754,-7.1424,-0.0711,0.0649,-0.0789,52
4.317,83,9.1481,-2.5572,-11.5796,0.3313,-0.1828,-0.1039,86,4.195,81,2.2985,-9.1869,-7.1583,-0.0663,0.0773,-0.0799,52
4.369,84,9.1165,-2.4696,-11.6236,0.2562,-0.1279,-0.1166,86,4.247,82,2.3338,-9.1811,-7.182,-0.0517,0.0852,-0.0775,52
4.421,85,9.1699,-2.3583,-11.6256,0.1838,-0.1085,-0.1052,86,4.299,83,2.2797,-9.161,-7.2263,-0.0384,0.0804,-0.0733,52
4.472,86,9.2251,-2.2806,-11.653,0.1128,-0.0891,-0.0785,86,4.35,84,2.2508,-9.1426,-7.2408,-0.027,0.0626,-0.0694,52
4.524,87,9.2235,-2.2645,-11.6658,0.0379,-0.0643,-0.0538,86,4.403,85,2.255,-9.1206,-7.2171,-0.021,0.0507,-0.0712,52
4.576,88,9.2318,-2.2521,-11.6568,0.0084,-0.0492,-0.0417,86,4.454,86,2.3117,-9.1557,-7.202,-0.0258,0.0533,-0.068,52
4.628,89,9.1833,-2.2828,-11.6744,0.0069,-0.05,-0.0291,86,4.506,87,2.315,-9.1541,-7.2014,-0.0168,0.0609,-0.0553,52
4.679,90,9.1812,-2.246,-11.7266,-0.0326,-0.0602,-0.0223,86,4.558,88,2.2873,-9.0629,-7.1798,-0.0026,0.0664,-0.0482,52
4.731,91,9.1806,-2.2602,-11.7933,-0.0504,-0.0679,-0.0189,86,4.609,89,2.302,-9.0039,-7.1678,-0.0149,0.0702,-0.0485,52
4.783,92,9.147,-2.3135,-11.8212,-0.0086,-0.0825,-0.0217,86,4.661,90,2.3213,-8.9701,-7.1529,-0.0341,0.0819,-0.0593,52
4.835,93,9.1251,-2.3646,-11.8019,0.035,-0.1106,-0.0474,86,4.713,91,2.3909,-8.993,-7.1572,-0.046,0.1046,-0.0811,52
4.887,94,9.1788,-2.2656,-11.8826,0.0993,-0.1425,-0.0855,86,4.765,92,2.4409,-9.0161,-7.1977,-0.0556,0.1491,-0.1051,52
4.938,95,9.2047,-2.1705,-11.9984,0.148,-0.1377,-0.099,86,4.817,93,2.4458,-8.9885,-7.282,-0.0981,0.2302,-0.145,52
4.99,96,9.2665,-2.1069,-11.9834,0.1189,-0.102,-0.0694,86,4.868,94,2.3793,-8.9274,-7.3245,-0.1622,0.3413,-0.2019,52
5.042,97,9.2113,-2.0569,-11.9755,0.0975,-0.0871,-0.0439,86,4.92,95,2.3486,-8.8666,-7.2934,-0.1784,0.4187,-0.2744,52
5.094,98,9.2055,-2.0049,-12.0423,0.0441,-0.0754,-0.0057,86,4.972,96,2.4974,-8.9901,-7.2727,-0.2021,0.4286,-0.2996,52
5.146,99,9.2355,-2.0196,-12.0437,-0.0827,-0.06,0.0595,86,5.024,97,2.7718,-9.1142,-7.1329,-0.252,0.4094,-0.2531,52
5.197,100,9.1946,-2.1047,-12.0624,-0.1611,-0.0644,0.0762,86,5.075,98,2.8725,-9.2413,-7.0022,-0.189,0.3658,-0.1516,52
5.249,101,9.1734,-2.1587,-12.1665,-0.1722,-0.0524,0.076,86,5.127,99,2.7719,-9.3638,-6.9722,-0.1093,0.3865,-0.0759,52
5.301,102,9.1116,-2.2502,-12.1743,-0.1087,-0.0383,0.0491,86,5.179,100,2.3492,-9.4484,-7.1035,-0.069,0.3963,-0.0352,52
5.353,103,9.1468,-2.1519,-12.2121,0.0268,-0.0569,0.0023,86,5.231,101,2.4454,-9.1575,-7.1336,-0.0728,0.3635,-0.0054,52
5.405,104,9.2457,-1.9775,-12.2239,0.1353,-0.0532,-0.01,86,5.283,102,2.0966,-9.3656,-7.3009,-0.1261,0.4262,0.009,52
5.456,105,9.2021,-2.0856,-12.1874,0.1405,-0.0487,-0.0067,86,5.334,103,2.3177,-9.4232,-7.3912,-0.236,0.3998,0.0144,52
5.508,106,9.229,-2.0295,-12.1642,0.1302,-0.0625,0.0025,86,5.386,104,2.515,-9.4851,-7.4087,-0.248,0.3578,0.0005,52
5.56,107,9.1935,-2.137,-12.2584,0.086,-0.0707,0.0156,86,5.438,105,2.5387,-9.5068,-7.3479,-0.1632,0.2993,-0.0203,52
5.612,108,9.2003,-2.1272,-12.2662,0.0672,-0.0519,0.0229,86,5.49,106,2.4829,-9.4256,-7.3621,-0.1269,0.231,-0.0168,52
5.664,109,9.1111,-2.2244,-12.2467,0.0674,-0.0706,-0.0033,86,5.541,107,2.4643,-9.3144,-7.2981,-0.0997,0.1559,0.0043,52
5.715,110,9.1014,-2.2214,-12.3022,0.074,-0.1006,-0.0328,86,5.593,108,2.4047,-9.2494,-7.3065,-0.0461,0.1014,0.0003,52
5.767,111,9.1068,-2.1687,-12.396,0.0836,-0.0978,-0.0421,86,5.645,109,2.385,-9.1388,-7.2709,-0.0113,0.074,-0.0286,52
5.819,112,9.1097,-2.1759,-12.4185,0.0819,-0.0772,-0.034,86,5.697,110,2.291,-9.2143,-7.4162,-0.0998,0.0909,-0.0324,52
5.871,113,9.1048,-2.1488,-12.4382,0.0573,-0.0545,-0.0163,86,5.749,111,2.3212,-9.157,-7.2964,-0.0904,0.1011,-0.0501,52
5.922,114,9.0761,-2.1907,-12.47,0.0372,-0.0264,0.0031,86,5.8,112,2.3244,-9.1361,-7.247,-0.1252,0.1332,-0.0457,52
5.974,115,9.0596,-2.2417,-12.4598,0.0275,0.0087,0.0192,86,5.852,113,2.3701,-9.2028,-7.3127,-0.1178,0.1656,-0.0396,52
6.026,116,9.0681,-2.2666,-12.4239,0.0261,0.027,0.0284,86,5.904,114,2.4114,-9.2153,-7.3802,-0.1151,0.1868,-0.0179,52
6.078,117,9.0423,-2.327,-12.3894,0.0114,0.0246,0.0281,86,5.956,115,2.3808,-9.1826,-7.4874,-0.0702,0.1805,-0.0171,52
6.13,118,9.0561,-2.3045,-12.3903,0.0152,0.0212,0.03,86,6.008,116,2.3368,-8.9512,-7.5395,-0.0749,0.1516,-0.0455,52
6.182,119,9.0506,-2.3346,-12.3633,0.0153,0.0235,0.032,86,6.059,117,2.3876,-8.9142,-7.5283,-0.1432,0.1274,-0.0793,52
6.233,120,9.046,-2.3427,-12.3696,0.0115,0.0212,0.0279,86,6.111,118,2.4858,-9.0678,-7.5097,-0.165,0.1195,-0.1188,52
6.285,121,9.059,-2.3599,-12.3615,0.0152,0.027,0.0259,86,6.163,119,2.4981,-9.163,-7.4981,-0.1507,0.1336,-0.1356,52
6.337,122,9.05,-2.3686,-12.3274,0.0275,0.0379,0.0243,86,6.215,120,2.5231,-9.2593,-7.5583,-0.1504,0.166,-0.142,52
6.389,123,9.0775,-2.3831,-12.3103,0.0533,0.0513,0.0223,86,6.266,121,2.5378,-9.279,-7.556,-0.1431,0.1992,-0.1302,52
6.44,124,9.0765,-2.3817,-12.2668,0.06,0.0439,0.0268,86,6.318,122,2.361,-9.3026,-7.7572,-0.0471,0.2193,-0.1355,52
6.492,125,9.1006,-2.33,-12.2814,0.0297,0.0518,0.0705,86,6.37,123,2.2413,-9.0729,-7.8759,-0.0123,0.1926,-0.119,52
6.544,126,9.0235,-2.6818,-12.283,-0.1318,0.099,0.1332,86,6.422,124,2.3788,-9.1688,-7.9412,-0.17,0.1382,-0.0507,52
6.596,127,9.0849,-2.6204,-12.2344,-0.1568,0.1401,0.1668,86,6.474,125,2.3841,-9.3027,-7.8852,-0.1811,0.1039,-0.0218,52
6.648,128,9.0978,-2.6562,-12.157,-0.1003,0.2222,0.2041,86,6.525,126,2.3764,-9.2728,-7.7644,-0.1758,0.0667,0.0266,52
6.699,129,8.9806,-2.8523,-11.9044,0.0027,0.2532,0.2074,86,6.577,127,2.6709,-9.296,-7.6077,-0.1813,0.0422,0.0922,52
6.751,130,8.9455,-2.9505,-11.7029,0.0764,0.1653,0.1575,86,6.629,128,2.9556,-9.3517,-7.7648,-0.0487,0.1069,0.0891,52
6.803,131,9.0588,-2.7922,-11.6808,0.0934,0.1161,0.1359,86,6.681,129,2.8918,-8.8616,-7.8986,0.0388,0.1898,0.0385,52
6.855,132,9.0984,-2.7392,-11.6268,-0.0685,0.1194,0.1599,86,6.732,130,2.6853,-8.6616,-8.0185,-0.1018,0.2279,-0.0122,52
6.907,133,8.9767,-3.0048,-11.6396,-0.2861,0.1262,0.1887,86,6.784,131,2.7464,-9.0359,-8.0217,-0.2418,0.1936,-0.1063,52
6.958,134,9.0682,-3.0094,-11.7036,-0.3825,0.1336,0.1614,86,6.836,132,2.7392,-9.3523,-7.9542,-0.1953,0.1668,-0.2121,52
7.01,135,8.9857,-3.1104,-11.7602,-0.4148,0.1792,0.1293,86,6.888,133,2.6288,-9.4239,-7.8726,-0.1476,0.1331,-0.2232,52
7.062,136,8.89,-3.2116,-11.6801,-0.3825,0.1931,0.0885,86,6.939,134,2.522,-9.3413,-7.9026,-0.09,0.1091,-0.155,52
7.114,137,8.8398,-3.2846,-11.637,-0.2881,0.1707,0.0489,86,6.991,135,2.5276,-9.229,-8.0872,-0.068,0.084,-0.0741,52
7.166,138,8.9195,-3.1202,-11.585,-0.1952,0.1332,0.0253,86,7.043,136,2.6922,-9.2273,-8.3039,-0.0823,0.058,-0.0111,52
7.218,139,9.0573,-2.9283,-11.6012,-0.1369,0.109,0.0194,86,7.095,137,2.8424,-9.0866,-8.4646,-0.1173,0.0394,0.0183,52
7.269,140,9.086,-2.8848,-11.5358,-0.1809,0.1185,0.0268,86,7.147,138,2.9621,-9.0274,-8.4308,-0.1704,0.0151,0.0266,52
7.321,141,8.9974,-3.0749,-11.5992,-0.1955,0.1128,0.0219,86,7.198,139,2.9831,-8.9436,-8.4338,-0.1731,-0.0003,-0.002,52
7.373,142,8.933,-3.2823,-11.5251,-0.1754,0.1045,0.0236,86,7.251,140,2.9191,-8.9857,-8.4154,-0.1549,0.0081,-0.0503,52
7.425,143,8.9545,-3.0822,-11.4413,-0.016,0.0474,0.0018,86,7.302,141,2.8991,-9.2773,-8.4064,-0.1498,0.0196,-0.057,52
7.476,144,9.0005,-3.0554,-11.4944,0.0135,0.0088,-0.0175,86,7.354,142,2.7736,-9.4245,-8.4828,-0.0817,0.0481,-0.0603,52
7.528,145,9.0109,-3.0438,-11.5009,0.054,-0.0093,-0.0294,86,7.406,143,2.621,-9.3046,-8.4606,-0.0535,0.039,-0.059,52
7.58,146,8.9453,-3.2349,-11.5046,0.1127,-0.0352,-0.0397,86,7.458,144,2.5066,-9.1286,-8.3322,-0.0181,0.0226,-0.0549,52
7.632,147,9.2602,-2.6835,-11.4517,0.5458,-0.152,-0.0809,86,7.51,145,2.5529,-9.4045,-8.5737,-0.1369,-0.0443,-0.006,52
7.684,148,9.2572,-3.3029,-11.5417,0.3714,-0.1276,-0.0619,86,7.561,146,2.443,-8.9192,-8.5833,-0.0381,-0.0298,-0.0106,52
7.735,149,9.1525,-3.2966,-11.52,0.29,-0.0672,-0.0434,86,7.613,147,2.6663,-8.973,-8.5325,-0.0665,-0.0727,0.0355,52
7.787,150,9.0787,-3.3596,-11.4702,0.1982,-0.0192,-0.0299,86,7.665,148,2.7134,-9.0959,-8.6116,-0.0846,-0.092,0.0811,52
7.839,151,9.0345,-3.3149,-11.3841,0.1622,0.0053,-0.017,86,7.717,149,2.7284,-9.1083,-8.5505,-0.036,-0.1072,0.0832,52
7.891,152,8.891,-3.5215,-11.3131,0.1778,0.0006,-0.0116,86,7.769,150,2.7945,-9.0353,-8.4709,0.0198,-0.1193,0.0659,52
7.942,153,9.0483,-3.009,-11.1924,0.2397,-0.0296,-0.024,86,7.82,151,2.8423,-9.161,-8.6028,0.0718,-0.1304,0.0383,52
7.994,154,9.0579,-2.9352,-11.2054,0.2398,-0.0502,-0.0296,86,7.872,152,2.9018,-9.1554,-8.5866,0.1155,-0.1244,0.021,52
8.046,155,9.0709,-2.917,-11.2091,0.1996,-0.0395,-0.0338,86,7.924,153,2.8564,-9.0937,-8.5742,0.0914,-0.1052,0.0254,52
8.098,156,9.0836,-2.9262,-11.2063,0.1575,-0.0258,-0.0386,86,7.976,154,2.7702,-9.067,-8.5899,0.0506,-0.0956,0.0202,52
8.15,157,9.0903,-2.9712,-11.1758,0.1406,-0.0206,-0.0435,86,8.028,155,2.8001,-9.2256,-8.5784,0.0378,-0.09,-0.0026,52
8.202,158,9.1196,-2.9175,-11.079,0.1478,0.0531,-0.0555,86,8.079,156,2.9996,-9.5506,-8.4319,0.0735,-0.0937,-0.0032,52
8.253,159,9.1245,-2.8904,-11.0598,0.1813,-0.0163,-0.0799,86,8.131,157,3.1705,-9.716,-8.3135,0.1973,-0.0637,0.0312,52
8.305,160,9.1527,-2.8952,-11.1161,0.2006,-0.0655,-0.101,86,8.183,158,3.041,-9.647,-8.2286,0.3265,-0.0092,0.0888,52
8.357,161,9.1561,-2.8057,-11.1529,0.1826,-0.0882,-0.1149,86,8.235,159,2.7582,-9.3826,-8.1829,0.3968,0.0483,0.1293,52
8.409,162,9.1666,-2.7552,-11.1989,0.1561,-0.0852,-0.1012,86,8.287,160,2.499,-9.1285,-8.1711,0.3829,0.0856,0.1479,52
8.461,163,9.1643,-2.7222,-11.2037,0.1442,-0.0819,-0.0743,86,8.338,161,2.3912,-8.8959,-8.0613,0.2899,0.0964,0.1276,52
8.512,164,9.1825,-2.7264,-11.2445,0.1546,-0.0639,-0.0443,86,8.39,162,2.4367,-8.8656,-7.8646,0.185,0.0713,0.0781,52
8.564,165,9.1633,-2.8056,-11.2376,0.114,-0.0364,-0.0197,86,8.442,163,2.6606,-8.6486,-7.6298,0.0425,0.0541,0.0232,52
8.616,166,9.1446,-2.8603,-11.2331,0.0979,-0.0528,-0.0364,86,8.494,164,2.5806,-8.9574,-8.0586,-0.0058,-0.0074,-0.0412,52
8.668,167,9.1061,-2.8437,-11.2004,0.066,-0.076,-0.0532,86,8.546,165,2.4031,-9.1795,-8.2124,0.1761,-0.238,-0.1111,52
8.72,168,9.1972,-2.8,-10.9892,0.0329,-0.2521,-0.1296,86,8.597,166,2.3946,-9.1004,-8.5593,0.4134,-0.5597,-0.1402,52
8.771,169,9.0286,-2.6531,-11.4904,0.0468,-0.3778,-0.1393,86,8.649,167,2.3016,-8.885,-8.6788,0.1999,-0.792,-0.1491,52
8.823,170,9.2761,-2.4153,-11.7031,0.0716,-0.3374,-0.0516,86,8.701,168,2.5198,-9.3397,-8.3197,0.0458,-0.9813,-0.1339,52
8.875,171,9.2384,-2.3979,-11.945,0.0659,-0.2448,0.1018,86,8.753,169,2.6253,-9.4961,-7.5666,0.0433,-0.956,-0.0829,52
8.927,172,9.1356,-2.654,-12.0029,0.0784,-0.1322,0.2264,86,8.805,170,2.8127,-9.5494,-7.4669,0.1507,-0.7616,0.0328,52
8.978,173,9.0489,-2.7752,-11.9794,0.1005,-0.0619,0.2795,86,8.856,171,2.9567,-9.1394,-7.7618,0.2375,-0.5149,0.2123,52
9.03,174,9.1114,-2.444,-11.7283,0.0507,-0.0049,0.3697,86,8.908,172,3.1999,-8.2632,-7.5046,-0.1517,-0.3515,0.4214,52
9.082,175,9.0037,-2.8419,-11.9603,0.1165,0.0469,0.4315,86,8.96,173,3.3849,-8.9517,-7.7208,-0.0809,-0.3103,0.3508,52
9.134,176,8.916,-3.0964,-11.729,0.1128,0.1,0.4039,86,9.011,174,3.7292,-8.3551,-7.5137,-0.0214,-0.2904,0.2179,52
