right_leg_timestamp,right_leg_index,right_leg_accel_x,right_leg_accel_y,right_leg_accel_z,right_leg_gyro_x,right_leg_gyro_y,right_leg_gyro_z,right_leg_battery_percentage,left_leg_timestamp,left_leg_index,left_leg_accel_x,left_leg_accel_y,left_leg_accel_z,left_leg_gyro_x,left_leg_gyro_y,left_leg_gyro_z,left_leg_battery_percentage
0.712,13,9.4261,-0.8196,-8.6058,-0.0976,0.2682,0.0526,71,0.122,2,8.6345,2.2939,-8.4186,0.0654,0.0986,-0.0331,39
0.764,14,9.5352,-0.7083,-8.537,-0.0674,0.2738,0.0602,71,0.174,3,8.6113,2.3614,-8.3919,0.0083,0.1219,-0.0327,39
0.816,15,9.4361,-0.8424,-8.2808,-0.0737,0.2731,0.068,71,0.226,4,8.6205,2.3259,-8.1927,-0.0315,0.1494,-0.0361,39
0.867,16,9.4093,-0.8352,-8.187,-0.0492,0.2194,0.0666,71,0.278,5,8.5326,2.5042,-8.0269,-0.0433,0.1143,-0.0254,39
0.919,17,9.3605,-1.0681,-8.045,-0.0536,0.1597,0.0614,71,0.329,6,8.6683,2.4261,-8.0558,-0.0403,0.0971,-0.0129,39
0.971,18,9.3564,-1.0778,-8.0295,-0.0076,0.1039,0.0656,71,0.381,7,8.5914,2.4513,-7.9905,-0.0457,0.0878,-0.007,39
1.023,19,9.3957,-1.0259,-8.0461,-0.0192,0.0878,0.0819,71,0.433,8,8.5335,2.4716,-7.9442,-0.0455,0.0578,0.0216,39
1.074,20,9.3109,-1.13,-7.8897,-0.0382,0.0754,0.0833,71,0.485,9,8.5758,2.3394,-8.0377,-0.0714,0.0343,0.0411,39
1.126,21,9.3898,-0.9788,-8.0089,-0.109,0.0531,0.0952,71,0.536,10,8.5471,2.4297,-7.9412,-0.0504,0.0187,0.0614,39
1.178,22,9.3511,-1.3355,-8.0149,-0.2366,0.0849,0.1043,71,0.588,11,8.5368,2.4011,-7.9594,-0.0424,-0.0218,0.0862,39
1.23,23,9.2933,-1.4288,-7.8013,-0.2102,0.0634,0.0801,71,0.64,12,8.5479,2.4147,-7.9902,-0.0807,-0.0573,0.1072,39
1.282,24,9.2209,-1.6733,-7.7516,-0.1769,0.0013,0.0736,71,0.692,13,8.6891,2.2949,-8.1279,-0.2365,-0.0784,0.0739,39
1.333,25,9.1723,-1.6041,-7.8379,-0.0648,-0.0497,0.0477,71,0.744,14,8.6072,2.319,-8.0504,-0.2036,-0.069,0.0489,39
1.385,26,9.0983,-1.7382,-7.8147,-0.0964,-0.0958,0.0064,71,0.795,15,8.5977,2.177,-8.0569,-0.1618,-0.0714,0.0391,39
1.437,27,9.1308,-1.6547,-7.7791,-0.0086,-0.2046,-0.0498,71,0.847,16,8.5357,2.2113,-7.9867,-0.0724,-0.072,0.036,39
1.489,28,9.18,-1.7706,-7.8716,0.1204,-0.3677,-0.1337,71,0.899,17,8.5289,2.039,-7.9209,-0.0074,-0.0919,0.0252,39
1.541,29,9.3399,-1.5434,-8.0118,0.281,-0.5756,-0.2148,71,0.951,18,8.4787,2.004,-8.117,0.2405,-0.0811,-0.0153,39
1.592,30,9.8344,-1.4289,-7.7698,0.2418,-0.8303,-0.3161,71,1.003,19,8.7158,1.6051,-8.2371,0.3292,-0.0876,-0.0232,39
1.644,31,9.349,-0.5921,-9.4795,0.3489,-0.7031,-0.2946,71,1.055,20,8.59,2.4963,-8.1899,0.4222,-0.1177,-0.029,39
1.696,32,9.6601,-1.2758,-9.9557,0.0861,-0.5282,-0.1975,71,1.106,21,8.3712,2.6766,-8.2909,0.3939,-0.1611,-0.0077,39
1.748,33,9.9561,-0.3763,-9.9869,-0.0577,-0.2972,-0.1641,71,1.158,22,8.7264,2.1267,-8.5623,0.2458,-0.2129,0.0007,39
1.8,34,9.9817,-0.638,-9.8535,0.0093,-0.1971,-0.0982,71,1.21,23,8.8314,2.1726,-8.6097,0.3889,-0.2063,0.0241,39
1.851,35,9.9769,-1.3822,-9.4687,-0.2371,-0.0542,0.0195,71,1.262,24,8.7551,2.145,-8.8844,0.3942,-0.1427,0.0332,39
1.903,36,9.7972,-1.256,-9.3324,-0.0347,0.1431,0.1501,71,1.314,25,8.5469,2.3908,-8.9923,0.4078,-0.0932,0.0428,39
1.955,37,9.6784,-0.8166,-9.94,0.1913,0.2004,0.2363,71,1.365,26,8.5006,2.4018,-9.0841,0.3783,-0.0848,0.0814,39
2.007,38,9.4205,1.2351,-9.6257,0.2106,0.1923,0.2364,71,1.417,27,8.5742,2.4846,-9.1761,0.236,-0.0884,0.1024,39
2.058,39,8.9617,-0.477,-10.4776,0.0297,0.1723,0.2486,71,1.469,28,8.4888,1.7631,-9.7442,0.0915,-0.0194,0.1457,39
2.11,40,8.8583,-0.1366,-10.0976,0.2117,0.1177,0.25,71,1.521,29,8.628,1.334,-9.4363,-0.0049,-0.052,0.1848,39
2.162,41,9.2973,-0.6622,-9.7386,0.0603,0.0591,0.2682,71,1.573,30,8.5102,1.6548,-9.4015,-0.0316,-0.0935,0.2085,39
2.214,42,9.4224,-1.0141,-9.6398,0.1342,0.0689,0.3185,71,1.624,31,8.2639,2.6122,-8.9667,-0.2555,-0.1617,0.2261,39
2.266,43,9.6236,-0.9692,-9.6422,-0.0048,0.1214,0.3522,71,1.676,32,8.5369,2.2844,-8.6487,0.0047,-0.4596,0.298,39
2.317,44,9.4106,-1.6814,-9.5769,-0.1286,0.2221,0.3575,71,1.728,33,9.5707,1.1488,-9.4206,-0.1265,-0.6748,0.4235,39
2.369,45,9.1252,-2.3671,-9.3853,-0.2633,0.1902,0.2536,71,1.78,34,11.0842,0.6467,-11.926,-0.1167,-1.145,0.5497,39
2.421,46,9.1064,-2.4226,-9.3666,-0.1528,0.1284,0.1521,71,1.832,35,11.589,0.8333,-13.4468,0.2048,-1.5024,0.7884,39
2.472,47,9.3795,-1.9471,-9.3536,-0.0853,0.085,0.1464,71,1.883,36,10.8079,0.5524,-14.003,0.1567,-1.7633,0.9995,39
2.524,48,9.3174,-2.2703,-9.3443,-0.0283,0.088,0.1507,71,1.935,37,9.604,0.3355,-13.8629,-0.0621,-1.9537,1.0716,39
2.576,49,9.3818,-2.1453,-9.2171,-0.0991,0.0714,0.1481,71,1.987,38,8.2155,0.1634,-13.7216,-0.2441,-2.0927,1.0163,39
2.628,50,9.3792,-2.2992,-9.2099,-0.1869,0.0495,0.1264,71,2.039,39,6.7809,-0.1444,-14.0998,-0.3066,-2.1941,0.945,39
2.68,51,9.4507,-1.9152,-9.1741,-0.239,0.0399,0.0976,71,2.09,40,5.6076,-0.3047,-14.859,-0.2084,-2.0188,0.7751,39
2.732,52,9.6361,-2.1076,-9.0682,-0.5849,0.0687,0.0464,71,2.142,41,4.8304,-0.4334,-15.3942,-0.1579,-1.78,0.5283,39
2.783,53,9.6881,-1.5593,-9.1339,-0.7712,0.1286,0.0196,71,2.194,42,4.0812,-0.907,-15.5731,-0.03,-1.4515,0.2318,39
2.835,54,9.8802,-1.7322,-8.8974,-0.9871,0.2223,-0.0466,71,2.246,43,3.663,-1.5031,-15.7597,0.1636,-1.1088,-0.0865,39
2.887,55,9.5575,-2.0984,-9.356,-0.955,0.1983,-0.097,71,2.298,44,3.2622,-1.215,-16.0727,0.2465,-0.6698,-0.4202,39
2.939,56,9.3298,-2.2004,-9.2577,-0.9136,0.2202,-0.1295,71,2.349,45,3.2335,-1.7524,-16.1187,0.3256,-0.2107,-0.6529,39
2.99,57,9.2146,-2.5094,-9.5396,-0.6917,0.1417,-0.166,71,2.401,46,3.337,-1.5414,-16.0309,0.4807,0.2905,-0.8589,39
3.042,58,9.4828,-2.2359,-9.315,-0.4552,0.0719,-0.1905,71,2.453,47,3.7527,-1.9607,-16.4803,0.5027,0.6589,-0.8321,39
3.094,59,9.7067,-1.6286,-9.0007,-0.2441,0.0221,-0.1752,71,2.505,48,4.2557,-1.7572,-17.0298,0.6885,0.8525,-0.7366,39
3.146,60,9.3936,-3.2744,-9.3713,0.0835,-0.0794,-0.1159,71,2.557,49,4.7346,-1.8267,-17.4024,0.6617,0.9052,-0.5503,39
3.198,61,8.7122,-3.8687,-10.1208,0.7375,-0.2592,0.0798,71,2.608,50,5.1698,-1.681,-17.6729,0.4359,0.8254,-0.3333,39
3.249,62,9.6929,-2.5465,-10.0775,0.8872,-0.3808,0.0633,71,2.66,51,5.3162,-1.2252,-17.7196,0.2438,0.6873,-0.0664,39
3.301,63,9.8079,-2.0673,-9.8653,1.1489,-0.4447,0.1445,71,2.712,52,5.4255,-1.0195,-17.8105,-0.0675,0.5655,0.1921,39
3.353,64,9.6421,-2.2933,-9.7071,1.0677,-0.3674,0.1201,71,2.764,53,5.4019,-0.8904,-17.7382,-0.4103,0.4434,0.3571,39
3.405,65,9.5483,-2.3487,-9.568,0.7699,-0.2941,0.1128,71,2.816,54,5.505,-0.8254,-17.6656,-0.6495,0.3484,0.429,39
3.456,66,9.5148,-2.1909,-9.4104,0.5685,-0.2146,0.0972,71,2.867,55,5.6713,-0.958,-17.3611,-0.8865,0.2769,0.4271,39
3.508,67,9.6487,-1.7249,-9.3079,0.2506,-0.1542,0.0975,71,2.919,56,5.8838,-1.1557,-17.1899,-0.9206,0.2517,0.3399,39
3.56,68,9.4797,-2.258,-9.5952,-0.4923,-0.0184,0.0315,71,2.971,57,6.1411,-1.4946,-17.0303,-0.8619,0.2431,0.2069,39
3.612,69,9.5851,-2.0919,-9.5809,-0.6196,0.0026,0.0142,71,3.023,58,6.1836,-1.8716,-16.8758,-0.657,0.2233,0.0231,39
3.664,70,9.5499,-2.312,-9.531,-0.6417,0.0151,-0.0017,71,3.074,59,6.4104,-2.0729,-16.7638,-0.3424,0.2594,-0.1199,39
3.715,71,9.2863,-3.0138,-9.6808,-0.5515,-0.0188,-0.028,71,3.126,60,6.6263,-2.3417,-16.6627,-0.1466,0.2861,-0.1924,39
3.767,72,9.2371,-2.8903,-9.6101,-0.4948,-0.0233,-0.0451,71,3.178,61,6.5874,-2.0492,-16.7059,0.1198,0.3305,-0.2197,39
3.819,73,9.3433,-2.6338,-9.609,-0.3849,-0.0208,-0.0391,71,3.23,62,6.6566,-1.9029,-16.6983,0.16,0.319,-0.1856,39
3.871,74,9.0277,-3.2004,-9.6893,-0.3503,0.0096,-0.0433,71,3.282,63,6.6123,-1.6652,-16.6377,0.1168,0.2729,-0.1306,39
3.923,75,9.2404,-2.6306,-9.7562,-0.1146,-0.0452,-0.0483,71,3.333,64,6.6437,-1.5042,-16.5875,0.1531,0.2472,-0.084,39
3.974,76,9.1446,-2.9385,-9.7527,-0.0959,-0.0257,-0.0443,71,3.385,65,6.7249,-1.2994,-16.4765,0.1347,0.2063,-0.0405,39
4.026,77,9.1462,-3.2954,-9.8492,0.1163,-0.0843,-0.0371,71,3.437,66,6.7375,-1.2264,-16.3856,0.0671,0.1516,-0.0108,39
4.078,78,8.681,-3.0219,-9.9617,0.0116,0.0409,-0.0298,71,3.489,67,6.704,-1.1064,-16.2438,0.0675,0.1066,0.0164,39
4.13,79,8.8702,-2.653,-9.9219,-0.0921,0.0174,-0.0327,71,3.54,68,6.6962,-0.9947,-16.1164,0.0453,0.0837,0.0184,39
4.181,80,9.1262,-2.2206,-9.9163,-0.0454,-0.0156,-0.0186,71,3.592,69,6.7028,-0.952,-16.089,0.0468,0.0881,0.0149,39
4.233,81,9.3446,-2.1111,-9.9455,-0.1221,-0.0047,-0.0265,71,3.644,70,6.6983,-0.9681,-15.986,0.0407,0.0955,0.0066,39
4.285,82,9.2773,-2.4464,-10.0762,0.0423,-0.0324,-0.0271,71,3.696,71,6.7974,-0.9476,-16.0168,0.0118,0.1198,-0.0222,39
4.337,83,9.71,-1.9692,-9.9352,-0.0216,0.0222,-0.0247,71,3.748,72,6.8799,-0.9497,-16.0325,0.0219,0.1076,-0.0532,39
4.389,84,9.5373,-2.1594,-9.9457,0.0411,0.0329,-0.0194,71,3.799,73,6.966,-0.9085,-16.0158,-0.0189,0.0726,-0.0638,39
4.44,85,9.4378,-2.0871,-9.935,0.1865,0.0278,-0.019,71,3.851,74,6.9325,-0.9086,-15.9581,0.0602,0.0511,-0.0853,39
4.492,86,9.2782,-2.1719,-9.9853,0.1379,0.0413,-0.0223,71,3.903,75,6.8856,-0.8578,-15.9247,0.0637,0.0381,-0.0916,39
4.544,87,9.2978,-2.2509,-9.8781,0.2374,0.0123,-0.0054,71,3.955,76,6.8698,-0.9734,-15.8777,-0.0028,0.0252,-0.0933,39
4.596,88,9.2791,-2.1622,-9.8344,0.1182,0.0362,0.0019,71,4.007,77,6.8334,-1.0154,-15.8107,-0.0136,0.0331,-0.0751,39
4.647,89,9.5026,-1.6714,-9.827,-0.0136,0.0381,0.0026,71,4.058,78,6.8933,-1.0941,-15.8189,-0.0452,0.0488,-0.0599,39
4.699,90,9.6236,-1.7816,-9.8233,0.0181,0.0267,0.0043,71,4.11,79,6.9552,-1.159,-15.8617,-0.0762,0.063,-0.0405,39
4.751,91,9.5286,-2.1036,-9.7555,-0.1051,0.0518,0.0038,71,4.162,80,7.0328,-1.168,-15.856,-0.07,0.0642,-0.0042,39
4.803,92,9.3756,-2.4384,-9.8005,-0.0342,0.0441,0.0006,71,4.213,81,7.0706,-1.1779,-15.789,-0.11,0.0536,0.0432,39
4.855,93,9.6364,-2.0568,-9.6784,-0.0028,0.0418,-0.0037,71,4.265,82,7.0538,-1.134,-15.7344,-0.1556,0.0409,0.0916,39
4.907,94,9.5437,-2.037,-9.7043,-0.0021,0.0595,0.0075,71,4.317,83,7.0262,-1.0434,-15.672,-0.1785,0.0375,0.1192,39
4.958,95,9.4235,-2.3137,-9.6402,0.0852,0.045,-0.0028,71,4.369,84,7.0278,-0.9685,-15.6618,-0.1609,0.055,0.1173,39
5.01,96,9.8437,-1.6858,-9.658,0.2095,-0.0041,-0.0018,71,4.421,85,7.0001,-0.8919,-15.6661,-0.1341,0.0698,0.1073,39
5.062,97,9.6026,-2.0331,-9.6109,0.1753,0.0126,0.0078,71,4.472,86,7.0588,-0.8143,-15.6947,-0.1099,0.0781,0.0748,39
5.114,98,9.4898,-2.2015,-9.5807,0.1608,0.0103,0.0072,71,4.524,87,7.0935,-0.7265,-15.7583,-0.0384,0.0789,0.033,39
5.166,99,10.0174,-1.5029,-9.5252,0.2455,-0.0066,0.0114,71,4.576,88,7.183,-0.5833,-15.8203,0.0132,0.0555,-0.01,39
5.217,100,10.0027,-1.7405,-9.3908,0.1966,0.0163,0.0098,71,4.628,89,7.1988,-0.5658,-15.7163,0.0249,0.0097,-0.0495,39
5.269,101,9.7834,-1.9278,-9.4809,0.2567,-0.0005,0.0187,71,4.679,90,7.185,-0.557,-15.6218,0.0649,-0.0187,-0.0856,39
5.321,102,9.8235,-1.8032,-9.5437,0.3344,-0.0239,0.031,71,4.731,91,7.1488,-0.575,-15.5314,0.0686,-0.0299,-0.0963,39
5.373,103,9.6707,-2.0294,-9.5034,0.2472,0.0102,0.0291,71,4.783,92,7.1574,-0.6324,-15.4651,0.0458,-0.0215,-0.0945,39
5.424,104,9.5875,-1.9903,-9.4531,0.2269,0.0152,0.0322,71,4.835,93,7.1524,-0.6937,-15.5067,0.0265,-0.0041,-0.0856,39
5.476,105,9.6761,-1.8742,-9.4041,0.1835,0.0164,0.0297,71,4.887,94,7.1626,-0.6967,-15.528,0.0196,0.0172,-0.0721,39
5.528,106,9.4901,-2.2004,-9.4036,0.1009,0.0263,0.0214,71,4.938,95,7.2257,-0.7699,-15.5738,0.0201,0.023,-0.0549,39
5.58,107,9.5326,-2.0621,-9.4088,0.1159,0.0172,0.024,71,4.99,96,7.2405,-0.8048,-15.5617,0.0177,0.0165,-0.0316,39
5.632,108,9.408,-2.3573,-9.3965,0.0984,0.014,0.0186,71,5.042,97,7.2631,-0.8611,-15.5199,-0.025,0.0057,-0.005,39
5.683,109,9.4017,-2.1312,-9.3258,0.1078,0.0138,0.0187,71,5.094,98,7.2585,-0.7919,-15.5161,-0.0536,0.0043,0.0135,39
5.735,110,9.4091,-2.0859,-9.3392,0.0252,0.0163,0.0114,71,5.145,99,7.2311,-0.692,-15.5404,-0.0519,0.0069,0.0212,39
5.787,111,9.5039,-2.1129,-9.3317,0.0504,0.0055,0.0115,71,5.197,100,7.2009,-0.6256,-15.556,-0.0379,0.013,0.013,39
5.838,112,9.4691,-2.0887,-9.2845,0.073,0.0027,0.0153,71,5.249,101,7.1615,-0.5792,-15.5344,-0.0188,0.0144,0.002,39
5.89,113,9.4084,-2.2938,-9.3013,0.0475,0.0048,0.0135,71,5.301,102,7.1639,-0.6298,-15.5409,-0.0196,0.0112,0.0062,39
5.942,114,9.409,-2.2431,-9.2967,0.0498,-0.002,0.0217,71,5.353,103,7.1652,-0.637,-15.5336,-0.0152,0.0077,0.0108,39
5.994,115,9.4265,-2.1566,-9.2965,-0.0357,0.01,0.0179,71,5.404,104,7.1844,-0.5545,-15.5355,-0.0346,0.009,0.0029,39
6.046,116,9.4891,-1.9831,-9.246,0.0008,0.0107,0.0121,71,5.456,105,7.2349,-0.6018,-15.6038,-0.0075,0.0075,0.0006,39
6.097,117,9.4535,-2.0073,-9.2743,0.005,0.0159,0.0123,71,5.508,106,7.2416,-0.5988,-15.5743,-0.0,-0.0034,0.0052,39
6.15,118,9.3915,-2.1996,-9.2924,-0.0064,0.0109,0.0088,71,5.56,107,7.2138,-0.6219,-15.5132,-0.0308,-0.0147,0.0062,39
6.201,119,9.3974,-2.1991,-9.3077,0.0007,0.0078,0.0102,71,5.612,108,7.1892,-0.6452,-15.478,-0.0235,-0.0058,0.0167,39
6.253,120,9.3418,-2.2623,-9.3176,-0.0303,0.0147,0.0047,71,5.663,109,7.1769,-0.6518,-15.4665,-0.0367,0.0051,0.0199,39
6.305,121,9.3324,-2.2219,-9.3304,-0.0174,0.0149,0.0033,71,5.715,110,7.2168,-0.6556,-15.5135,-0.0282,0.0148,0.0193,39
6.357,122,9.3348,-2.2944,-9.2739,-0.0047,0.0014,0.0042,71,5.767,111,7.2179,-0.658,-15.565,-0.0137,0.0146,0.0229,39
6.409,123,9.3606,-2.254,-9.2643,-0.0156,-0.0015,0.0054,71,5.819,112,7.2082,-0.6477,-15.5652,-0.0109,0.0073,0.0192,39
6.46,124,9.409,-2.13,-9.2919,-0.045,-0.0019,0.0049,71,5.87,113,7.1933,-0.6276,-15.5395,0.0026,0.0027,0.016,39
6.512,125,9.4391,-2.2312,-9.2981,-0.116,0.0014,-0.0049,71,5.922,114,7.1595,-0.6168,-15.5015,0.019,0.0058,0.0082,39
6.564,126,9.4629,-2.2478,-9.3128,-0.1774,-0.0078,-0.0094,71,5.974,115,7.1938,-0.632,-15.4909,0.0265,0.0214,-0.0044,39
6.615,127,9.3639,-2.365,-9.4117,-0.185,-0.0031,-0.015,71,6.026,116,7.2405,-0.6967,-15.4788,0.0291,0.0317,-0.0103,39
6.667,128,9.452,-2.4044,-9.4274,-0.1359,-0.0238,-0.0152,71,6.078,117,7.2982,-0.616,-15.5065,0.0223,0.0351,-0.0129,39
6.719,129,9.5355,-2.2605,-9.4591,-0.1131,-0.0179,-0.0137,71,6.129,118,7.3269,-0.6234,-15.4897,0.064,0.0186,-0.0302,39
6.771,130,9.3978,-2.4507,-9.4886,-0.0899,-0.0124,-0.0111,71,6.181,119,7.3027,-0.6048,-15.4161,0.065,-0.0018,-0.0384,39
6.823,131,9.4775,-2.323,-9.4496,-0.1186,-0.003,-0.0076,71,6.233,120,7.2218,-0.6239,-15.3432,0.1073,0.0018,-0.0538,39
6.874,132,9.419,-2.3434,-9.4569,-0.104,-0.0123,-0.0041,71,6.284,121,7.1654,-0.6571,-15.2898,0.1097,0.0235,-0.0593,39
6.926,133,9.5444,-2.2239,-9.4067,-0.0349,-0.0116,-0.0014,71,6.336,122,7.1752,-0.7489,-15.3002,0.1,0.0559,-0.0585,39
6.978,134,9.6458,-2.0005,-9.3732,0.0226,-0.0,0.0063,71,6.388,123,7.1353,-0.7907,-15.385,0.0971,0.0724,-0.0359,39
7.03,135,9.5302,-2.082,-9.3993,0.0071,0.0019,0.0108,71,6.44,124,7.2064,-0.7698,-15.4145,0.0433,0.0733,-0.0127,39
7.081,136,9.5213,-2.1089,-9.4405,-0.0186,0.0035,0.0042,71,6.492,125,7.2827,-0.7894,-15.4274,-0.0066,0.0738,0.0168,39
7.133,137,9.4308,-2.1954,-9.4363,-0.0749,0.0103,-0.0013,71,6.543,126,7.3088,-0.7761,-15.4116,-0.0397,0.0699,0.0446,39
7.185,138,9.2931,-2.354,-9.4729,-0.0323,0.0102,-0.0011,71,6.595,127,7.3771,-0.779,-15.3579,-0.089,0.0613,0.0616,39
7.237,139,9.5378,-2.0616,-9.42,0.0002,0.0046,-0.007,71,6.647,128,7.3951,-0.7816,-15.3223,-0.1056,0.0386,0.0796,39
7.289,140,9.4588,-2.3677,-9.4372,0.0985,-0.0061,-0.0072,71,6.699,129,7.4015,-0.7436,-15.2774,-0.0948,0.0202,0.0846,39
7.34,141,9.4419,-2.215,-9.4871,0.08,-0.0002,-0.0081,71,6.751,130,7.3483,-0.7013,-15.2569,-0.0704,0.01,0.0718,39
7.392,142,9.3153,-2.3877,-9.5139,0.0658,0.005,-0.0004,71,6.802,131,7.3501,-0.6423,-15.2699,-0.0144,0.021,0.035,39
7.444,143,9.4021,-2.2816,-9.5091,0.0761,-0.0009,0.0011,71,6.854,132,7.3961,-0.6166,-15.3004,0.0348,0.0264,0.0035,39
7.496,144,9.3898,-2.2964,-9.5228,0.0593,0.0018,0.0074,71,6.906,133,7.415,-0.6039,-15.2902,0.0379,0.0182,-0.0138,39
7.548,145,9.389,-2.3002,-9.488,0.0132,0.0146,0.0067,71,6.958,134,7.4176,-0.6276,-15.2706,0.0294,0.001,-0.0221,39
7.599,146,9.3533,-2.3134,-9.5172,0.0262,0.0044,0.0079,71,7.01,135,7.337,-0.6298,-15.1918,0.0411,-0.0004,-0.0288,39
7.651,147,9.4512,-2.2761,-9.5024,-0.0673,0.0077,0.0205,71,7.061,136,7.3461,-0.6656,-15.2369,0.0439,-0.0005,-0.0343,39
7.703,148,9.2904,-2.5463,-9.5593,-0.1099,0.0132,0.0149,71,7.113,137,7.3638,-0.6812,-15.218,0.0363,0.0017,-0.0426,39
7.755,149,9.377,-2.4734,-9.476,-0.1267,0.0129,0.0046,71,7.165,138,7.3795,-0.7603,-15.2274,0.0483,0.0105,-0.0463,39
7.807,150,9.4059,-2.4605,-9.4607,-0.0319,-0.0004,0.0038,71,7.217,139,7.4623,-0.8493,-15.3505,0.0233,0.0075,-0.0293,39
7.858,151,9.4684,-2.3319,-9.416,-0.0258,0.0043,0.0012,71,7.268,140,7.461,-0.8744,-15.4547,0.0034,-0.0438,0.0056,39
7.91,152,9.5134,-2.2754,-9.4661,0.0733,-0.0283,0.0085,71,7.32,141,7.4039,-0.8909,-15.4573,-0.0042,-0.0904,0.0376,39
7.962,153,9.5329,-2.2462,-9.4232,0.0439,-0.0135,0.0132,71,7.372,142,7.4063,-0.8728,-15.576,-0.0168,-0.1337,0.072,39
8.014,154,9.5248,-2.2083,-9.4505,0.0246,-0.0115,0.0152,71,7.424,143,7.4184,-0.8758,-15.8008,0.0118,-0.1997,0.1093,39
8.065,155,9.4789,-2.2597,-9.403,-0.0138,-0.0017,0.0135,71,7.475,144,7.3401,-0.869,-15.933,0.0158,-0.2877,0.1381,39
8.117,156,9.4134,-2.2869,-9.409,-0.0516,0.0004,0.0043,71,7.527,145,7.1553,-0.9973,-16.0311,-0.0184,-0.3997,0.1592,39
8.169,157,9.3942,-2.2587,-9.3954,-0.0739,0.0028,0.0012,71,7.579,146,7.1542,-1.0104,-16.0762,-0.1405,-0.5478,0.1899,39
8.221,158,9.374,-2.3292,-9.3938,-0.0751,-0.0046,-0.0002,71,7.631,147,6.8975,-1.0098,-16.1176,-0.2264,-0.7819,0.2244,39
8.273,159,9.3813,-2.1504,-9.4475,-0.1347,-0.0169,0.0266,71,7.683,148,6.5056,-0.8735,-16.3874,-0.2296,-0.7888,0.2281,39
8.324,160,9.3713,-2.2243,-9.5046,-0.1685,-0.0248,0.0233,71,7.734,149,6.1586,-0.8834,-16.6546,-0.1471,-0.7527,0.2001,39
8.376,161,9.4147,-2.2104,-9.5284,-0.1854,-0.0242,0.0134,71,7.786,150,5.8839,-0.9103,-16.6932,-0.0484,-0.6765,0.1603,39
8.428,162,9.4469,-2.1868,-9.5586,-0.1812,-0.0288,0.002,71,7.838,151,5.683,-0.9303,-16.5861,0.0162,-0.5659,0.1145,39
8.48,163,9.3389,-2.3482,-9.6541,-0.117,-0.0229,-0.0006,71,7.89,152,5.4869,-0.9452,-16.5463,0.0669,-0.414,0.0604,39
8.532,164,9.4522,-2.1425,-9.6473,-0.0781,-0.0167,-0.0071,71,7.941,153,5.4087,-1.0466,-16.6127,0.0843,-0.2623,0.0149,39
8.583,165,9.4493,-2.1917,-9.668,0.0095,-0.0159,-0.0017,71,7.993,154,5.4257,-1.1109,-16.7903,0.0288,-0.1428,-0.0052,39
8.635,166,9.4898,-2.0895,-9.6313,0.0644,0.0038,-0.0073,71,8.045,155,5.4386,-1.045,-17.1245,-0.0282,-0.0695,0.0008,39
8.687,167,9.4837,-2.1402,-9.599,0.0864,0.0157,-0.0111,71,8.097,156,5.385,-0.9998,-17.4024,-0.0558,-0.0385,0.0147,39
8.739,168,9.4559,-2.1764,-9.5859,0.0573,0.0167,-0.0069,71,8.149,157,5.3339,-1.001,-17.5622,-0.0554,-0.0309,0.0314,39
8.791,169,9.485,-2.1113,-9.5725,0.0374,0.021,-0.0066,71,8.201,158,5.2027,-1.0238,-17.5224,-0.0754,-0.0358,0.0424,39
8.842,170,9.4581,-2.1526,-9.5553,0.0068,0.0221,-0.0029,71,8.252,159,5.0795,-1.0268,-17.4599,-0.0865,-0.0244,0.0404,39
8.894,171,9.4638,-2.1313,-9.5687,-0.0023,0.0179,0.0041,71,8.304,160,5.0509,-1.0866,-17.4906,-0.0514,0.0123,0.0271,39
8.946,172,9.4758,-2.1443,-9.5427,-0.0934,0.0134,0.0121,71,8.356,161,5.1219,-1.0853,-17.4754,-0.0463,0.0397,0.0156,39
8.998,173,9.4488,-2.3156,-9.599,-0.0997,0.0112,0.0054,71,8.408,162,5.2251,-1.1272,-17.5106,-0.047,0.0574,0.0087,39
9.049,174,9.4659,-2.2362,-9.5764,-0.0348,0.002,-0.0051,71,8.459,163,5.3119,-1.1243,-17.5761,-0.0321,0.0645,0.008,39
9.101,175,9.4094,-2.4264,-9.5594,-0.0177,0.016,-0.012,71,8.511,164,5.3895,-1.1403,-17.511,-0.0338,0.048,0.0166,39
9.153,176,9.4217,-2.4263,-9.5745,0.0451,0.0017,-0.0171,71,8.563,165,5.383,-1.1452,-17.4723,-0.0195,0.0316,0.0283,39
9.205,177,9.316,-2.5841,-9.5456,0.0917,0.0002,-0.0162,71,8.615,166,5.3578,-1.0931,-17.4329,-0.0216,0.0217,0.0389,39
9.257,178,9.3451,-2.3469,-9.5313,0.0613,0.0083,-0.0143,71,8.667,167,5.353,-1.0594,-17.3556,-0.0286,0.0271,0.0463,39
9.308,179,9.4144,-2.1452,-9.5315,0.0368,0.0082,-0.0137,71,8.718,168,5.3681,-0.9812,-17.3719,-0.0309,0.0415,0.0454,39
9.36,180,9.3981,-2.325,-9.5156,0.0047,0.0102,-0.0152,71,8.77,169,5.3938,-0.9607,-17.4021,-0.032,0.055,0.0379,39
9.412,181,9.3205,-2.4349,-9.5123,0.0354,0.0007,-0.0155,71,8.822,170,5.419,-0.9478,-17.4178,-0.0342,0.0607,0.0267,39
9.464,182,9.335,-2.3519,-9.4695,0.0512,0.0022,-0.0129,71,8.874,171,5.4385,-0.9373,-17.3705,-0.0634,0.052,0.0156,39
9.516,183,9.3987,-2.2237,-9.4669,0.0751,-0.0078,-0.0005,71,8.925,172,5.4591,-0.9534,-17.3978,-0.1285,0.0451,0.0143,39
9.567,184,9.3773,-2.2076,-9.4596,0.109,-0.0159,0.0044,71,8.977,173,5.4696,-0.9207,-17.4482,-0.1033,0.0458,0.015,39
9.619,185,9.4122,-2.1123,-9.4779,0.0854,-0.0105,0.0074,71,9.029,174,5.4913,-0.855,-17.4532,-0.0829,0.0389,0.0099,39
9.671,186,9.3624,-2.3616,-9.4756,0.0854,-0.0147,0.0045,71,9.081,175,5.4734,-0.8587,-17.4377,-0.0901,0.0275,0.0015,39
9.723,187,9.4249,-2.1878,-9.4643,0.0574,-0.006,0.0053,71,9.132,176,5.4688,-0.8393,-17.4159,-0.0665,0.0193,-0.0128,39
9.775,188,9.3888,-2.2441,-9.4548,0.0553,-0.0063,0.005,71,9.184,177,5.5024,-0.8222,-17.3715,-0.0442,0.0147,-0.0184,39
9.826,189,9.3753,-2.2571,-9.4429,0.0504,-0.0007,0.0089,71,9.236,178,5.5267,-0.817,-17.3386,-0.0479,0.011,-0.0216,39
9.878,190,9.4108,-2.1353,-9.4612,0.0722,-0.0077,0.015,71,9.288,179,5.5587,-0.8116,-17.3194,-0.0358,0.014,-0.0234,39
9.93,191,9.4101,-2.2174,-9.4378,0.0555,-0.0022,0.0159,71,9.339,180,5.6211,-0.7946,-17.2838,-0.0247,0.016,-0.0233,39
9.982,192,9.4312,-2.0711,-9.4492,0.0492,-0.0019,0.0141,71,9.391,181,5.6581,-0.7721,-17.2486,-0.0118,0.0225,-0.0232,39
10.033,193,9.3873,-2.2213,-9.4039,0.0205,0.0016,0.0084,71,9.443,182,5.6999,-0.7771,-17.2358,-0.0031,0.0293,-0.0199,39
10.085,194,9.4854,-2.0598,-9.4047,0.026,-0.0056,0.0089,71,9.495,183,5.6846,-0.7387,-17.1926,0.0019,0.0384,-0.0181,39
10.137,195,9.4403,-2.1647,-9.4005,-0.0012,-0.0007,0.0059,71,9.547,184,5.6978,-0.7184,-17.1983,-0.043,0.035,-0.0061,39
10.189,196,9.4301,-2.1806,-9.4094,-0.0677,0.0085,0.0007,71,9.598,185,5.6748,-0.6975,-17.2253,-0.0909,0.0308,-0.0014,39
10.24,197,9.4371,-2.226,-9.4094,-0.0282,-0.0005,-0.0,71,9.65,186,5.6579,-0.6809,-17.2979,-0.0399,0.0406,0.0021,39
10.292,198,9.4484,-2.2355,-9.3634,-0.0221,-0.0018,0.0035,71,9.702,187,5.6468,-0.6682,-17.2684,-0.0236,0.035,0.013,39
10.344,199,9.3725,-2.2779,-9.4597,0.0369,-0.0087,0.0061,71,9.754,188,5.6213,-0.6408,-17.3117,-0.056,0.0201,0.0271,39
10.396,200,9.4528,-2.2995,-9.4059,0.0102,-0.0089,0.0076,71,9.806,189,5.6211,-0.6237,-17.3318,-0.0585,0.0047,0.0384,39
10.448,201,9.4183,-2.2434,-9.4485,-0.0123,-0.0079,0.0065,71,9.858,190,5.6011,-0.5933,-17.3114,-0.0262,-0.0022,0.0434,39
10.499,202,9.3683,-2.3422,-9.4262,-0.0146,-0.0043,0.0066,71,9.909,191,5.6067,-0.5995,-17.2951,-0.0383,-0.0062,0.0356,39
10.551,203,9.426,-2.2047,-9.4398,0.0047,-0.0125,0.0058,71,9.961,192,5.5896,-0.5784,-17.2628,-0.0198,-0.0031,0.0261,39
10.603,204,9.4016,-2.2126,-9.4657,0.0122,-0.0083,0.0066,71,10.013,193,5.6097,-0.5998,-17.2504,-0.0017,-0.0027,0.0137,39
10.655,205,9.4514,-2.105,-9.4852,0.023,-0.0141,0.0073,71,10.065,194,5.6309,-0.6001,-17.2701,-0.0017,-0.0042,0.0043,39
10.707,206,9.413,-2.1386,-9.5136,-0.039,-0.0113,0.0133,71,10.116,195,5.6436,-0.602,-17.263,0.002,-0.0082,0.0025,39
10.758,207,9.456,-2.0572,-9.5376,-0.1038,-0.0074,0.0038,71,10.168,196,5.6655,-0.5896,-17.2783,0.0123,-0.0085,-0.0019,39
10.81,208,9.386,-2.1276,-9.573,-0.1123,-0.0096,-0.0031,71,10.22,197,5.6395,-0.6229,-17.1804,0.0286,-0.0013,-0.0004,39
10.862,209,9.3758,-2.2191,-9.5663,-0.128,-0.0058,-0.0108,71,10.272,198,5.5876,-0.6495,-17.1749,0.0459,0.0217,-0.0123,39
10.914,210,9.4259,-2.1406,-9.5827,-0.0692,-0.014,-0.011,71,10.324,199,5.6318,-0.7249,-17.1313,0.0577,0.0495,-0.0261,39
10.966,211,9.3891,-2.2772,-9.5725,-0.0846,-0.0137,-0.0078,71,10.375,200,5.6745,-0.7409,-17.233,0.0543,0.0554,-0.0219,39
11.017,212,9.5748,-2.0475,-9.5732,-0.054,-0.0275,-0.0114,71,10.427,201,5.7106,-0.7557,-17.3089,0.0507,0.0409,-0.0166,39
11.069,213,9.522,-2.078,-9.5904,-0.0649,-0.0238,-0.0037,71,10.479,202,5.7115,-0.7244,-17.343,0.0496,0.015,-0.0047,39
11.121,214,9.4432,-2.3957,-9.6194,-0.0767,-0.0235,-0.0105,71,10.531,203,5.695,-0.7009,-17.3211,0.0327,-0.0097,0.0002,39
11.173,215,9.4137,-2.459,-9.6307,-0.0746,-0.0201,-0.0175,71,10.582,204,5.6707,-0.7113,-17.2663,0.035,-0.0236,0.0046,39
11.225,216,9.3343,-2.4881,-9.617,-0.0257,-0.0151,-0.0236,71,10.634,205,5.6646,-0.6976,-17.2078,0.0232,-0.0353,0.0034,39
11.276,217,9.4003,-2.3083,-9.5616,-0.0159,-0.0046,-0.032,71,10.686,206,5.6543,-0.7206,-17.1975,0.0149,-0.0434,0.0057,39
11.328,218,9.4254,-2.2432,-9.5733,0.0387,-0.0085,-0.0306,71,10.738,207,5.65,-0.7005,-17.1966,0.0167,-0.0459,0.0085,39
11.38,219,9.4385,-2.0705,-9.604,0.0803,-0.0117,-0.0239,71,10.789,208,5.6594,-0.6802,-17.1933,0.0036,-0.0479,0.0115,39
11.432,220,9.4023,-2.1032,-9.6762,0.1292,-0.0108,-0.0102,71,10.841,209,5.6327,-0.642,-17.2034,-0.011,-0.0455,0.0137,39
11.483,221,9.3942,-2.2048,-9.701,0.1226,-0.0082,-0.0052,71,10.893,210,5.5966,-0.6493,-17.1959,-0.017,-0.0384,0.0101,39
11.535,222,9.4305,-2.1925,-9.6835,0.1294,-0.0091,0.0022,71,10.945,211,5.5543,-0.6126,-17.221,-0.0041,-0.024,0.0046,39
11.587,223,9.5196,-2.0381,-9.6136,0.1088,-0.0041,0.006,71,10.997,212,5.54,-0.6401,-17.2263,-0.0169,-0.0087,-0.0034,39
11.639,224,9.4974,-2.0607,-9.6034,0.1129,-0.0042,0.0088,71,11.048,213,5.5257,-0.6148,-17.2553,-0.014,0.0065,-0.0081,39
11.691,225,9.4951,-2.1161,-9.5743,0.0845,-0.0005,0.0102,71,11.1,214,5.5407,-0.6105,-17.288,-0.0182,0.0203,-0.0169,39
11.742,226,9.4293,-2.1764,-9.5926,0.0841,-0.0012,0.013,71,11.152,215,5.5647,-0.6189,-17.3144,-0.0072,0.0317,-0.0246,39
11.794,227,9.4362,-2.1902,-9.5593,0.087,-0.0076,0.0186,71,11.204,216,5.594,-0.6434,-17.3315,-0.0181,0.0314,-0.0295,39
11.846,228,9.4267,-2.2467,-9.5371,0.0442,-0.0027,0.0218,71,11.256,217,5.5992,-0.6717,-17.3235,-0.0046,0.0248,-0.0298,39
11.898,229,9.5123,-2.0241,-9.5286,-0.0433,0.0128,0.0196,71,11.307,218,5.6021,-0.6653,-17.2911,0.0046,0.0193,-0.0323,39
11.949,230,9.3698,-2.3373,-9.5373,-0.1173,0.0244,0.0145,71,11.359,219,5.6224,-0.6655,-17.2541,0.0111,0.0269,-0.0323,39
12.001,231,9.426,-2.0917,-9.5664,-0.0291,0.0043,0.0125,71,11.411,220,5.6353,-0.6897,-17.2415,0.0124,0.0412,-0.0287,39
12.053,232,9.4863,-2.0256,-9.4972,-0.0169,0.0133,0.0144,71,11.463,221,5.6784,-0.7064,-17.1802,-0.0106,0.0379,-0.0079,39
12.105,233,9.4988,-1.951,-9.532,0.0652,-0.0009,0.0249,71,11.515,222,5.6634,-0.6966,-17.1668,-0.0314,0.0333,0.0022,39
12.157,234,9.4637,-2.0873,-9.4748,-0.0082,-0.0094,0.0433,71,11.566,223,5.6681,-0.6197,-17.1731,-0.0003,0.0344,0.0051,39
12.208,235,9.4991,-1.9232,-9.4615,-0.0979,-0.0249,0.0413,71,11.618,224,5.6692,-0.5268,-17.1802,0.0364,0.0489,-0.0257,39
12.26,236,9.492,-2.1486,-9.508,-0.1062,-0.023,0.0377,71,11.67,225,5.6985,-0.5522,-17.1819,0.0748,0.061,-0.059,39
12.312,237,9.4543,-2.2704,-9.5722,-0.1624,-0.0164,0.029,71,11.721,226,5.7397,-0.5876,-17.2034,0.1001,0.0742,-0.0904,39
12.364,238,9.3964,-2.3477,-9.6294,-0.1339,-0.0081,0.0233,71,11.773,227,5.8088,-0.6835,-17.1895,0.1158,0.0685,-0.1144,39
12.416,239,9.4361,-2.2464,-9.6674,-0.0937,-0.0052,0.0143,71,11.825,228,5.8409,-0.7276,-17.1935,0.1183,0.0501,-0.1179,39
12.467,240,9.4712,-2.1538,-9.6797,-0.0275,-0.0021,0.011,71,11.877,229,5.9055,-0.7761,-17.1343,0.1086,0.0189,-0.0961,39
12.519,241,9.4781,-2.2326,-9.68,-0.0437,0.0003,0.0102,71,11.929,230,5.9006,-0.7434,-17.0259,0.0722,-0.0022,-0.06,39
12.571,242,9.4364,-2.3023,-9.6858,-0.0593,-0.0005,0.0084,71,11.98,231,5.9148,-0.7485,-16.9765,0.0435,-0.0023,-0.028,39
12.623,243,9.4425,-2.332,-9.6365,-0.1046,-0.01,0.0057,71,12.032,232,5.9712,-0.7086,-16.9383,0.0528,0.0127,-0.0104,39
12.674,244,9.4492,-2.3195,-9.6678,-0.0731,-0.034,-0.0015,71,12.084,233,5.9734,-0.7227,-16.9097,0.0385,0.0248,-0.0026,39
12.726,245,9.4386,-2.3181,-9.7782,-0.0022,-0.0412,-0.0008,71,12.136,234,5.9562,-0.7334,-16.8954,0.011,0.0303,-0.0028,39
12.778,246,9.41,-2.4261,-9.7805,-0.0091,-0.0294,0.0043,71,12.187,235,5.9301,-0.7215,-16.8783,0.0476,0.0368,-0.0188,39
12.83,247,9.3024,-2.5688,-9.84,0.0268,-0.0263,0.0072,71,12.239,236,5.9451,-0.7204,-16.9433,0.0672,0.0392,-0.0291,39
12.882,248,9.4277,-2.3586,-9.808,0.0844,-0.0303,0.0016,71,12.291,237,5.9484,-0.7319,-16.9954,0.0417,0.0352,-0.0201,39
12.933,249,9.5359,-2.239,-9.7663,0.1089,-0.0144,0.0036,71,12.343,238,5.9812,-0.7167,-17.0032,0.0065,0.0244,0.0038,39
12.985,250,9.4973,-2.2247,-9.6873,0.1244,-0.0047,0.0024,71,12.395,239,6.0121,-0.7373,-16.9672,-0.0284,0.0127,0.023,39
13.037,251,9.5229,-2.1827,-9.6302,0.0453,0.008,0.0007,71,12.446,240,5.957,-0.7348,-16.9144,-0.0237,0.011,0.0332,39
13.089,252,9.4351,-2.3349,-9.6475,-0.0033,0.0084,0.0039,71,12.498,241,5.9136,-0.7395,-16.8536,-0.0291,0.0352,0.0274,39
13.141,253,9.472,-2.2346,-9.6271,0.0089,-0.0043,0.0009,71,12.55,242,5.9306,-0.7793,-16.9057,-0.0305,0.0657,0.0218,39
13.192,254,9.3843,-2.3214,-9.658,-0.0166,-0.011,0.0113,71,12.602,243,5.9645,-0.8266,-16.9443,-0.0329,0.076,0.0235,39
13.244,255,9.3519,-2.2729,-9.6851,-0.1278,-0.0122,0.0236,71,12.654,244,5.9928,-0.8302,-16.9955,-0.0317,0.0649,0.0251,39
13.296,256,9.3779,-2.2681,-9.7182,-0.1406,-0.013,0.0172,71,12.705,245,5.9965,-0.8332,-17.0563,-0.0077,0.0443,0.0209,39
13.348,257,9.3906,-2.2605,-9.761,-0.1311,-0.0105,0.0055,71,12.757,246,5.997,-0.8184,-17.051,0.0245,0.029,0.0037,39
13.4,258,9.3724,-2.2624,-9.7525,-0.1291,-0.0017,-0.003,71,12.809,247,5.9915,-0.8372,-17.015,0.0458,0.008,-0.0132,39
13.452,259,9.3106,-2.4464,-9.7565,-0.0709,-0.0041,-0.0048,71,12.861,248,5.9902,-0.8567,-16.9365,0.0643,-0.007,-0.0213,39
13.503,260,9.422,-2.2005,-9.7414,-0.0454,0.0037,-0.0098,71,12.913,249,5.9837,-0.8636,-16.871,0.0532,-0.0163,-0.0145,39
13.555,261,9.382,-2.2436,-9.7532,0.0117,0.0092,-0.0111,71,12.964,250,5.9533,-0.8298,-16.8048,0.0371,-0.016,-0.001,39
13.607,262,9.3891,-2.2923,-9.6925,0.0108,0.0263,-0.018,71,13.016,251,5.9591,-0.7823,-16.793,0.0105,-0.0016,0.0088,39
13.659,263,9.3684,-2.2801,-9.7104,-0.0028,0.0277,-0.0114,71,13.068,252,6.0176,-0.7601,-16.8302,-0.0079,0.0131,0.0159,39
13.71,264,9.3639,-2.2383,-9.6984,0.0166,0.0287,-0.0074,71,13.12,253,6.0997,-0.7394,-16.8474,-0.0212,0.0165,0.0199,39
13.762,265,9.3786,-2.2383,-9.6895,0.0137,0.027,-0.0023,71,13.172,254,6.0973,-0.7519,-16.8512,-0.0366,0.0091,0.0217,39
13.814,266,9.3758,-2.2942,-9.6895,0.0225,0.0255,-0.0034,71,13.223,255,6.091,-0.7571,-16.8275,-0.0327,0.0041,0.0189,39
13.866,267,9.4146,-2.3083,-9.6071,-0.033,0.0215,0.0076,71,13.275,256,6.0814,-0.7547,-16.8036,-0.0303,0.0059,0.0152,39
13.918,268,9.4532,-2.2239,-9.6128,-0.0849,0.0146,0.0129,71,13.327,257,6.0799,-0.7722,-16.8153,-0.0371,0.0119,0.0146,39
13.969,269,9.5713,-2.0796,-9.6046,-0.1557,0.0154,0.0041,71,13.379,258,6.0965,-0.7785,-16.8427,-0.04,0.0174,0.0081,39
14.021,270,9.493,-2.26,-9.6736,-0.213,0.0469,-0.0102,71,13.431,259,6.1086,-0.8551,-16.8059,-0.012,0.0321,-0.0215,39
14.073,271,9.137,-3.0667,-9.8091,-0.1448,0.0584,-0.0359,71,13.482,260,6.2288,-0.8581,-16.9048,0.035,0.1035,-0.0893,39
14.124,272,8.3828,-4.2683,-9.8976,0.3071,0.0373,-0.0386,71,13.534,261,6.3588,-0.8749,-16.7719,0.0546,0.1632,-0.1432,39
