right_leg_timestamp,right_leg_index,right_leg_accel_x,right_leg_accel_y,right_leg_accel_z,right_leg_gyro_x,right_leg_gyro_y,right_leg_gyro_z,right_leg_battery_percentage,left_leg_timestamp,left_leg_index,left_leg_accel_x,left_leg_accel_y,left_leg_accel_z,left_leg_gyro_x,left_leg_gyro_y,left_leg_gyro_z,left_leg_battery_percentage
0.3,5,9.3993,-1.519,-11.6203,0.0106,0.0055,0.0007,87,0.142,2,8.3382,1.8057,-12.7345,0.0051,0.0056,-0.0122,52
0.352,6,9.3849,-1.5216,-11.6068,0.0087,0.0033,-0.0039,87,0.194,3,8.3434,1.8062,-12.7302,0.006,0.0016,-0.0101,52
0.404,7,9.3729,-1.5269,-11.626,0.0138,0.0013,-0.0006,87,0.245,4,8.3625,1.8226,-12.7241,0.0087,-0.0002,-0.0058,52
0.455,8,9.3839,-1.5483,-11.6098,0.0148,0.0166,0.0233,87,0.297,5,8.3559,1.8159,-12.7279,0.0107,-0.001,-0.0029,52
0.507,9,9.405,-1.5762,-11.5679,0.0104,0.0236,0.03,87,0.349,6,8.3304,1.8163,-12.7337,0.0076,-0.004,-0.0032,52
0.559,10,9.4075,-1.6214,-11.5367,-0.0111,0.0041,0.0132,87,0.401,7,8.323,1.8129,-12.7355,-0.0011,-0.0072,-0.0085,52
0.611,11,9.3976,-1.6489,-11.5422,-0.0401,-0.0112,-0.0265,87,0.453,8,8.3289,1.8168,-12.7498,-0.0086,-0.0165,-0.0119,52
0.662,12,9.4108,-1.5075,-11.6066,-0.0345,-0.0233,-0.0558,87,0.504,9,8.3382,1.8327,-12.7649,-0.0116,-0.0196,-0.0136,52
0.714,13,9.4295,-1.4388,-11.6265,-0.027,-0.015,-0.0562,87,0.556,10,8.3201,1.8555,-12.785,-0.0079,-0.0113,-0.0128,52
0.766,14,9.4853,-1.3823,-11.6316,-0.0088,-0.0073,-0.0396,87,0.608,11,8.3061,1.8338,-12.7962,-0.0059,-0.0004,-0.0091,52
0.818,15,9.4452,-1.3658,-11.6301,0.0057,-0.0032,-0.0255,87,0.66,12,8.3055,1.8288,-12.7922,-0.0112,0.009,-0.011,52
0.87,16,9.4163,-1.3706,-11.6313,0.0058,-0.0018,-0.0202,87,0.712,13,8.32,1.8108,-12.7562,-0.0241,0.0128,-0.0155,52
0.921,17,9.4275,-1.3913,-11.6209,0.0002,0.002,-0.0229,87,0.763,14,8.3306,1.8322,-12.7397,-0.0289,0.0123,-0.0227,52
0.973,18,9.4506,-1.3936,-11.6132,-0.0064,0.0045,-0.0305,87,0.815,15,8.3242,1.8622,-12.7364,-0.0269,0.0135,-0.0279,52
1.025,19,9.4643,-1.4217,-11.5848,-0.006,0.0036,-0.0439,87,0.867,16,8.3364,1.9,-12.7098,-0.0297,0.0091,-0.0258,52
1.077,20,9.4742,-1.3742,-11.5836,-0.0079,0.0036,-0.0539,87,0.919,17,8.3796,1.9271,-12.6407,-0.0207,0.0076,-0.0273,52
1.129,21,9.446,-1.3269,-11.5924,-0.0072,0.0007,-0.0571,87,0.97,18,8.3608,1.9252,-12.6644,-0.0121,0.0051,-0.0258,52
1.18,22,9.3915,-1.241,-11.6263,-0.016,-0.0011,-0.0579,87,1.022,19,8.3642,1.9428,-12.6651,-0.0146,0.0007,-0.0227,52
1.232,23,9.4052,-1.2102,-11.6241,-0.016,0.0047,-0.0549,87,1.074,20,8.3617,1.948,-12.6716,-0.0227,-0.002,-0.0207,52
1.284,24,9.4579,-1.2088,-11.5828,-0.0086,0.012,-0.0498,87,1.126,21,8.3394,1.9616,-12.691,-0.0171,-0.0036,-0.0199,52
1.336,25,9.4417,-1.2335,-11.5943,-0.0062,0.0159,-0.0467,87,1.178,22,8.3318,1.9772,-12.6871,-0.0038,-0.0052,-0.0189,52
1.388,26,9.4136,-1.1412,-11.6162,0.0016,-0.0056,-0.0432,87,1.229,23,8.312,1.9926,-12.6813,0.0126,-0.0097,-0.0181,52
1.439,27,9.4019,-1.0946,-11.6178,-0.0027,-0.005,-0.0381,87,1.281,24,8.3029,1.9864,-12.7088,0.0218,-0.0129,-0.0153,52
1.491,28,9.4125,-1.0644,-11.6159,0.0026,-0.0024,-0.0253,87,1.333,25,8.2948,2.0032,-12.7437,0.0224,-0.0099,-0.0131,52
1.543,29,9.4501,-1.0796,-11.5803,0.0037,0.0047,-0.006,87,1.385,26,8.2941,2.0072,-12.7401,0.019,-0.0032,-0.01,52
1.595,30,9.5083,-1.1441,-11.5278,0.0078,0.0101,0.0056,87,1.436,27,8.2911,2.0066,-12.7389,0.0163,0.0034,-0.0072,52
1.646,31,9.5029,-1.1717,-11.5654,0.0035,0.0048,0.0106,87,1.488,28,8.2937,2.0191,-12.729,0.0194,0.0085,-0.0055,52
1.698,32,9.4521,-1.168,-11.5741,-0.0012,-0.0027,0.0103,87,1.54,29,8.2952,2.0061,-12.7339,0.0179,0.0082,-0.001,52
1.75,33,9.4598,-1.1425,-11.5734,0.0005,-0.0069,0.0084,87,1.592,30,8.3079,2.0247,-12.7205,0.0068,0.001,0.0095,52
1.802,34,9.4865,-1.1934,-11.5371,-0.0023,-0.0073,0.005,87,1.643,31,8.325,1.9974,-12.7574,-0.0359,0.0006,0.0227,52
1.854,35,9.5801,-1.2571,-11.5341,0.0032,-0.0122,-0.0025,87,1.695,32,8.3355,2.0227,-12.7742,-0.0733,0.0068,0.0275,52
1.906,36,9.5666,-1.2116,-11.5741,0.0176,-0.0259,-0.0175,87,1.747,33,8.3429,1.9783,-12.7266,-0.08,0.0173,0.0211,52
1.957,37,9.4768,-1.1329,-11.6121,0.0076,-0.0278,-0.0236,87,1.799,34,8.3476,2.0122,-12.6924,-0.0849,0.0202,0.0184,52
2.009,38,9.4705,-1.0938,-11.6401,0.0091,-0.0261,-0.0209,87,1.851,35,8.3455,1.9784,-12.6666,-0.1126,0.0183,0.0194,52
2.061,39,9.4642,-1.0844,-11.7042,0.009,-0.0144,-0.0189,87,1.902,36,8.3338,1.9528,-12.6473,-0.1111,0.0113,0.0113,52
2.113,40,9.6231,-1.0881,-11.6342,-0.02,0.0125,-0.013,87,1.954,37,8.3229,1.9446,-12.6144,-0.1108,0.017,0.0021,52
2.165,41,9.6327,-1.1724,-11.5998,-0.0316,0.0294,-0.0246,87,2.006,38,8.3414,1.8998,-12.595,-0.093,0.0199,-0.0116,52
2.217,42,9.6693,-0.9188,-11.655,-0.0554,0.0266,-0.0439,87,2.058,39,8.3254,1.9946,-12.5567,-0.0213,0.0176,-0.0448,52
2.268,43,9.5252,-0.8565,-11.7143,-0.2475,0.1217,-0.1029,87,2.11,40,8.3114,2.1412,-12.5303,0.0328,0.003,-0.0705,52
2.32,44,9.8155,-0.7431,-12.2604,-0.0754,0.0066,-0.2492,87,2.161,41,8.3189,2.1683,-12.5528,0.0731,-0.0129,-0.0833,52
2.372,45,10.3522,-0.2079,-12.6939,0.0028,-0.1474,-0.5615,87,2.213,42,8.303,2.2119,-12.6035,0.0435,-0.0254,-0.0481,52
2.424,46,10.731,0.3291,-12.8029,-0.1176,-0.2618,-0.9522,87,2.265,43,8.3359,2.1145,-12.6539,0.0484,-0.0136,-0.0304,52
2.475,47,10.634,0.8217,-12.6557,-0.1265,-0.3785,-1.2863,87,2.317,44,8.3236,2.096,-12.6689,0.063,0.0035,-0.0322,52
2.527,48,10.1729,1.3978,-12.4971,-0.0963,-0.4723,-1.5151,87,2.368,45,8.3109,2.1254,-12.6697,0.0524,0.0091,-0.0304,52
2.579,49,9.6035,1.9434,-12.3585,-0.1123,-0.5071,-1.6308,87,2.42,46,8.2829,2.2218,-12.6447,0.045,0.005,-0.0325,52
2.631,50,9.1097,2.4681,-12.2596,-0.1125,-0.5069,-1.6315,87,2.472,47,8.3235,2.1619,-12.6935,0.0388,0.0068,-0.0305,52
2.683,51,8.674,2.9905,-12.2264,-0.1068,-0.488,-1.5789,87,2.524,48,8.306,2.1829,-12.6432,0.1281,0.0053,-0.0733,52
2.734,52,8.3251,3.6987,-12.3321,-0.1954,-0.4293,-1.4672,87,2.576,49,8.2657,2.1549,-12.6601,0.1891,0.0062,-0.0776,52
2.786,53,8.0737,4.2288,-12.2607,-0.2757,-0.362,-1.348,87,2.627,50,8.2785,2.1919,-12.6936,0.2237,-0.0049,-0.0574,52
2.838,54,7.7498,4.7268,-12.4387,-0.2276,-0.3305,-1.2314,87,2.679,51,8.2597,2.1994,-12.7494,0.2029,0.0083,-0.0403,52
2.89,55,7.3264,5.2891,-12.8867,-0.2006,-0.3215,-1.1065,87,2.731,52,8.2248,2.2078,-12.7422,0.1563,0.0266,-0.032,52
2.942,56,7.0085,5.8573,-13.1036,-0.3455,-0.2703,-0.9855,87,2.783,53,7.9735,2.5591,-12.6955,-0.0232,0.0185,-0.0107,52
2.993,57,6.6765,6.086,-12.9964,-0.4203,-0.2199,-0.9149,87,2.834,54,8.0397,2.4182,-12.5737,0.0069,0.0208,-0.0274,52
3.045,58,6.2148,6.5672,-13.0276,-0.3595,-0.1932,-0.8805,87,2.886,55,8.0888,2.2994,-12.6333,0.0161,0.0175,-0.0168,52
3.097,59,5.7342,6.8176,-13.022,-0.2986,-0.1643,-0.8515,87,2.938,56,8.1667,2.2074,-12.6445,0.02,0.0171,-0.0047,52
3.149,60,5.2676,7.0,-12.8473,-0.2625,-0.1052,-0.7936,87,2.99,57,8.2015,2.2187,-12.6478,0.0418,0.0148,-0.0057,52
3.201,61,4.7943,7.125,-12.7059,-0.1527,-0.0781,-0.7076,87,3.042,58,8.2175,2.2141,-12.64,0.0495,0.0169,-0.0025,52
3.252,62,4.4354,7.3165,-12.6391,-0.0396,-0.0614,-0.6064,87,3.093,59,8.2022,2.2487,-12.6103,0.0308,0.0096,0.0053,52
3.304,63,4.1853,7.5113,-12.6292,-0.0383,-0.0042,-0.4835,87,3.145,60,8.2592,2.1767,-12.6083,0.0138,0.0124,0.0059,52
3.356,64,3.9699,7.5703,-12.6192,0.0009,0.0352,-0.3667,87,3.197,61,8.2742,2.1924,-12.6127,0.0286,0.0118,-0.0081,52
3.408,65,4.0337,7.9018,-12.8123,0.0568,0.0583,-0.2679,87,3.249,62,8.2737,2.2054,-12.6184,0.029,0.0045,-0.0084,52
3.46,66,4.0205,8.0116,-12.8019,0.0959,0.0701,-0.2144,87,3.301,63,8.2973,2.1956,-12.6309,0.0224,0.0086,-0.0064,52
3.511,67,3.6023,7.3869,-12.3437,0.2115,0.062,-0.0919,87,3.353,64,8.2513,2.1694,-12.6337,0.0173,0.0241,-0.0105,52
3.563,68,3.5342,7.1834,-12.3314,0.185,0.171,0.2171,87,3.404,65,8.2872,2.2208,-12.5814,0.0088,0.0257,-0.0098,52
3.615,69,3.5263,6.4323,-12.267,-0.0542,0.3696,0.6518,87,3.456,66,8.284,2.1586,-12.5825,0.0051,0.0249,-0.0055,52
3.667,70,3.8313,6.2924,-12.1987,-0.0372,0.4509,1.0641,87,3.508,67,8.2581,2.1462,-12.561,-0.0029,0.0243,-0.0168,52
3.718,71,4.6676,5.4593,-11.8487,0.4455,0.4378,1.4262,87,3.56,68,8.2175,2.1328,-12.5578,-0.0177,0.0184,-0.0193,52
3.77,72,5.8227,4.9422,-12.0719,0.4482,0.6074,1.7186,87,3.611,69,8.2445,2.1433,-12.5369,-0.039,0.0197,-0.018,52
3.822,73,7.6674,4.2811,-12.336,0.401,0.7159,1.9321,87,3.663,70,8.2612,2.1775,-12.5602,-0.0558,0.0171,-0.0144,52
3.874,74,9.199,3.7693,-12.5322,0.7159,0.6823,2.0837,87,3.715,71,8.2456,2.3001,-12.5342,-0.1023,0.0087,-0.0001,52
3.926,75,10.1191,3.2312,-12.9228,0.4156,0.7149,2.0488,87,3.767,72,8.2766,2.3354,-12.5143,-0.1411,-0.0031,0.0136,52
3.977,76,10.8371,3.0765,-13.1467,0.3513,0.5626,1.7344,87,3.819,73,8.3146,2.2596,-12.4374,-0.1872,-0.0101,0.0289,52
4.029,77,11.1364,3.0132,-13.3202,0.5012,0.26,1.0641,87,3.87,74,8.3221,2.2642,-12.4614,-0.19,-0.0133,0.0477,52
4.081,78,11.105,2.9323,-13.1829,0.3961,0.0552,0.3792,87,3.922,75,8.3402,2.1943,-12.4604,-0.1471,-0.0149,0.0459,52
4.133,79,10.6253,2.7499,-12.7935,0.4107,-0.1441,-0.2009,87,3.974,76,8.3498,2.1349,-12.4532,-0.1082,-0.0045,0.0267,52
4.185,80,10.3209,2.8188,-12.6403,0.4359,-0.3065,-0.6159,87,4.026,77,8.3208,2.3101,-12.4193,-0.0588,-0.0057,0.0063,52
4.237,81,10.101,3.0451,-12.587,0.3491,-0.4164,-0.942,87,4.077,78,8.3048,2.3454,-12.4315,-0.0442,-0.001,0.0016,52
4.288,82,9.7402,3.7024,-13.1441,0.1758,-0.5246,-1.1728,87,4.129,79,8.3319,2.3095,-12.4184,-0.0444,0.0055,0.0028,52
4.34,83,9.63,3.9759,-13.1429,-0.0194,-0.5986,-1.3763,87,4.181,80,8.3281,2.3027,-12.4407,-0.044,0.0132,0.0031,52
4.392,84,9.0993,4.2774,-13.2709,-0.1125,-0.721,-1.5004,87,4.233,81,8.3178,2.2562,-12.4252,-0.045,0.0181,0.0049,52
4.444,85,8.5363,4.5513,-13.0658,-0.3815,-0.7447,-1.532,87,4.285,82,8.3113,2.1853,-12.4026,-0.0191,0.0232,-0.0041,52
4.495,86,7.7357,4.5583,-12.6723,-0.4923,-0.7352,-1.4906,87,4.336,83,8.295,2.228,-12.3659,0.0721,0.0251,-0.0266,52
4.547,87,6.6859,4.7525,-12.8463,-0.3905,-0.7269,-1.3721,87,4.388,84,8.311,2.2104,-12.4212,0.0247,0.0112,-0.0059,52
4.599,88,5.9971,5.4352,-13.5337,-0.3193,-0.7172,-1.1799,87,4.44,85,8.3399,2.2092,-12.3884,-0.0001,0.0068,-0.0032,52
4.651,89,5.5798,5.7828,-13.746,-0.4025,-0.622,-0.9398,87,4.491,86,8.3401,2.2114,-12.4062,0.0005,0.0049,-0.0032,52
4.703,90,5.5184,6.0797,-13.4703,-0.3842,-0.5485,-0.7381,87,4.543,87,8.3342,2.2508,-12.403,0.0293,0.0017,-0.0115,52
4.755,91,5.2902,6.5421,-13.4746,-0.2486,-0.4985,-0.5974,87,4.595,88,8.3104,2.2768,-12.3922,0.0724,0.0016,-0.0256,52
4.806,92,5.0583,7.1351,-13.7043,-0.2376,-0.4215,-0.4637,87,4.647,89,8.3203,2.2953,-12.4042,0.082,-0.0079,-0.018,52
4.858,93,4.8235,7.4563,-13.6182,-0.2012,-0.352,-0.3981,87,4.699,90,8.3286,2.2554,-12.4276,0.1124,-0.0093,-0.013,52
4.91,94,4.299,7.3303,-13.372,-0.0961,-0.302,-0.3565,87,4.75,91,8.432,2.0882,-12.475,0.1571,-0.0046,-0.0127,52
4.962,95,3.5727,6.558,-12.6725,0.0901,-0.2525,-0.2325,87,4.803,92,8.3645,2.1872,-12.4981,0.2436,0.0044,-0.0295,52
5.013,96,3.0888,5.8697,-12.3267,0.163,-0.0595,0.1773,87,4.854,93,8.3057,2.2921,-12.5191,0.2377,0.0273,-0.0324,52
5.065,97,3.2198,5.4001,-12.3003,0.1048,0.2352,0.7346,87,4.906,94,8.1672,2.3568,-12.5056,0.1648,0.033,-0.0199,52
5.117,98,3.8879,4.8363,-12.6745,-0.0979,0.6309,1.2139,87,4.958,95,8.2356,2.2291,-12.5176,0.0717,0.0239,-0.0031,52
5.169,99,5.6441,4.4165,-12.9927,0.1889,0.7913,1.5637,87,5.01,96,8.2717,2.2514,-12.5069,0.054,0.0184,-0.0151,52
5.221,100,6.7998,4.1205,-13.1604,0.8144,0.7439,1.7832,87,5.061,97,8.2934,2.3103,-12.4974,0.0442,0.0392,-0.029,52
5.273,101,7.8977,3.8667,-13.7116,0.9721,0.8325,1.9792,87,5.113,98,8.3624,2.3323,-12.3999,0.019,0.043,-0.0057,52
5.324,102,6.4382,1.6322,-13.0599,0.0343,1.2814,1.6116,87,5.165,99,8.3041,2.3389,-12.4593,-0.0142,0.0374,0.012,52
5.376,103,8.3527,2.0992,-12.6836,-0.0828,0.843,1.0406,87,5.217,100,8.3039,2.2311,-12.4032,-0.0339,0.0415,0.0093,52
5.428,104,9.0884,2.6389,-13.0485,-0.3389,0.5121,0.4521,87,5.268,101,8.3504,2.1873,-12.4046,-0.0499,0.029,0.0082,52
5.48,105,9.7787,3.4497,-13.5224,-0.1876,0.1171,-0.2203,87,5.32,102,8.359,2.2554,-12.3889,-0.0871,0.0167,0.017,52
5.532,106,9.7891,3.8388,-13.709,-0.2447,-0.1269,-0.7775,87,5.372,103,8.3796,2.2102,-12.3895,-0.1774,0.0067,0.042,52
5.583,107,9.1607,4.057,-13.5265,-0.2882,-0.3443,-1.1576,87,5.424,104,8.388,2.1803,-12.3345,-0.2137,0.0111,0.06,52
5.635,108,8.2926,4.2447,-13.397,-0.3625,-0.4998,-1.3575,87,5.476,105,8.3671,2.21,-12.2797,-0.24,0.0118,0.0861,52
5.687,109,7.3548,4.8612,-13.8558,-0.4197,-0.6446,-1.4083,87,5.527,106,8.3867,2.2579,-12.2327,-0.2347,-0.0198,0.0943,52
5.739,110,6.7086,5.566,-14.1789,-0.4618,-0.7605,-1.3738,87,5.579,107,8.3828,2.2118,-12.2619,-0.2644,-0.0319,0.1012,52
5.79,111,6.0343,6.0336,-13.967,-0.4804,-0.8189,-1.3101,87,5.631,108,8.3892,2.1731,-12.2692,-0.2608,-0.0361,0.0985,52
5.842,112,5.24,6.6754,-14.1928,-0.4406,-0.8648,-1.2797,87,5.683,109,8.4296,2.1212,-12.2446,-0.22,-0.036,0.0863,52
5.894,113,4.3878,7.0223,-13.9968,-0.497,-0.8542,-1.2155,87,5.734,110,8.4406,2.009,-12.241,-0.1794,-0.0317,0.0683,52
5.946,114,3.3965,6.725,-13.5049,-0.4679,-0.837,-1.0904,87,5.786,111,8.438,2.0622,-12.2501,-0.1528,-0.0295,0.0503,52
