right_leg_timestamp,right_leg_index,right_leg_accel_x,right_leg_accel_y,right_leg_accel_z,right_leg_gyro_x,right_leg_gyro_y,right_leg_gyro_z,right_leg_battery_percentage,left_leg_timestamp,left_leg_index,left_leg_accel_x,left_leg_accel_y,left_leg_accel_z,left_leg_gyro_x,left_leg_gyro_y,left_leg_gyro_z,left_leg_battery_percentage
0.254,4,9.3088,-1.8587,-11.7505,-0.1954,-0.1236,-0.3409,87,0.051,0,8.9478,1.9467,-9.5276,-0.011,-0.3023,0.5165,52
0.305,5,8.9822,-0.8337,-12.4643,-0.1589,-0.0571,-0.8562,87,0.103,1,9.8401,1.6027,-9.4329,0.0377,-0.6624,0.7898,52
0.357,6,8.4586,0.0176,-13.0613,-0.0469,-0.34,-1.2989,87,0.154,2,10.6186,1.409,-9.7319,0.0023,-1.0187,1.1187,52
0.409,7,8.8064,0.9593,-13.6527,-0.0001,-0.5523,-0.9505,87,0.206,3,10.276,-0.6153,-12.5326,-0.1158,-1.203,1.4953,52
0.461,8,8.924,1.6164,-13.746,-0.0006,-0.7331,-0.741,87,0.258,4,10.6706,-2.4461,-14.0127,0.2984,-1.3598,1.7357,52
0.512,9,9.4236,2.0741,-14.5589,-0.244,-0.366,-0.1921,87,0.31,5,9.2344,-3.5121,-14.9865,0.252,-1.2864,1.7631,52
0.564,10,10.2891,2.3718,-15.1636,-0.4284,0.4111,0.3423,87,0.362,6,8.1782,-4.1701,-15.6354,0.1751,-1.1626,1.4951,52
0.616,11,12.7752,1.0301,-13.9514,-0.527,0.0448,0.8228,87,0.413,7,6.7943,-3.7723,-15.0844,-0.0489,-1.1024,1.3543,52
0.668,12,9.1185,2.5804,-17.0542,-0.6207,0.1392,0.1372,87,0.465,8,5.0657,-3.561,-14.2481,-0.4438,-1.1609,1.3835,52
0.719,13,7.0343,3.7923,-10.4141,-0.7522,-0.5718,0.0757,87,0.517,9,4.6894,-5.501,-12.8828,-0.0291,-1.3093,1.4889,52
0.771,14,7.189,-0.4758,-11.2563,-0.7492,-0.9543,0.0505,87,0.569,10,4.7577,-5.238,-13.302,-0.5836,-1.5239,1.767,52
0.823,15,7.7352,-0.5712,-12.1663,-0.5884,-0.847,-0.3898,87,0.621,11,5.3599,-6.1741,-15.0691,-0.6239,-1.7664,1.9179,52
0.875,16,7.5838,0.6627,-14.2409,-0.33,-0.5238,-0.2982,87,0.672,12,5.4227,-6.2931,-15.3229,-0.1976,-1.2141,1.4946,52
0.927,17,10.5375,0.817,-14.5085,-0.1608,-0.0156,0.0591,87,0.724,13,3.9574,-6.6367,-16.815,-0.1903,-0.4744,0.7033,52
0.978,18,10.63,-0.0952,-13.7982,-0.1543,0.3498,0.4426,87,0.776,14,2.3547,-6.4664,-18.0376,0.2136,0.1781,0.1546,52
1.03,19,8.7614,0.603,-13.7306,-0.1925,0.396,0.4154,87,0.828,15,-0.0567,-4.8166,-16.3711,0.8305,0.3408,0.1308,52
1.082,20,6.4664,-0.4267,-12.3314,-0.4997,0.3329,0.3338,87,0.88,16,-1.0509,-3.8395,-14.3281,0.4375,0.2665,0.4032,52
1.134,21,4.9584,3.7938,-17.0049,-0.0217,0.344,-0.0133,87,0.931,17,-0.5568,-3.7823,-13.694,-0.3577,-0.0296,0.708,52
1.186,22,6.7919,-2.4681,-20.4158,-0.1499,-0.1165,0.5572,87,0.983,18,2.3584,-5.3733,-14.6365,-0.1707,-0.1894,0.7093,52
1.237,23,6.3513,1.1219,-19.538,-0.2052,-0.7059,0.2889,87,1.035,19,2.7402,-7.3084,-15.8844,-0.275,0.0629,0.2432,52
1.289,24,8.1708,1.2012,-18.5619,-0.3382,-0.2019,0.5741,87,1.087,20,3.2245,-8.3396,-16.3035,0.0821,0.4603,-0.4939,52
1.341,25,9.5132,0.9172,-16.3246,-0.1363,0.1338,0.8341,87,1.139,21,2.8595,-7.3928,-16.1055,0.3945,0.7726,-1.0319,52
1.393,26,7.5355,0.705,-15.3712,0.0571,0.2737,0.4227,87,1.19,22,2.1658,-6.3412,-14.6663,0.7228,1.0116,-1.4076,52
1.445,27,5.3446,0.1877,-15.1995,0.3553,0.5146,-0.0547,87,1.242,23,2.2316,-5.6148,-13.9319,0.0464,1.0194,-1.4058,52
1.496,28,6.1287,-1.22,-13.3583,-0.3003,-0.2972,0.4786,87,1.294,24,4.3752,-6.3369,-14.8006,-0.1072,0.8014,-1.1416,52
1.548,29,6.7774,0.3001,-12.9628,-0.1527,-0.5763,0.2838,87,1.346,25,6.2616,-6.5192,-15.6889,0.2755,0.6057,-0.915,52
1.6,30,7.2716,0.0012,-13.9908,-0.1536,-0.3282,0.3593,87,1.398,26,7.4057,-6.7132,-15.6435,0.0818,0.4413,-0.8584,52
1.652,31,7.5023,0.7875,-13.2187,0.0979,-0.1157,0.4346,87,1.449,27,7.7481,-6.5491,-15.4772,0.1299,0.2863,-0.8126,52
1.704,32,7.2831,-0.4535,-13.6258,0.1545,0.0219,0.4747,87,1.501,28,7.5804,-6.2261,-14.6989,0.3147,0.0932,-0.5845,52
1.755,33,7.5625,-0.6765,-13.5191,0.0825,0.0931,0.4569,87,1.553,29,7.5363,-5.6893,-14.362,0.2907,-0.1257,-0.2654,52
1.807,34,8.025,-1.17,-13.5521,0.0472,0.1687,0.368,87,1.605,30,7.4762,-5.5116,-14.3664,0.1953,-0.1928,-0.0113,52
1.859,35,7.9913,-1.5825,-13.7942,0.1445,0.1926,0.2367,87,1.657,31,7.3549,-5.323,-14.3884,0.1423,-0.217,0.133,52
1.911,36,8.6856,-1.3869,-13.3612,0.1142,0.1916,0.2174,87,1.708,32,7.1968,-5.2957,-14.3742,0.1124,-0.2746,0.2658,52
1.963,37,8.7664,-1.4763,-13.3331,0.114,0.1577,0.1635,87,1.76,33,6.9532,-5.2871,-14.4998,0.1191,-0.3448,0.345,52
2.014,38,9.0002,-1.2196,-13.2287,0.1321,0.0829,0.0912,87,1.812,34,6.7472,-5.3028,-14.5929,0.122,-0.4015,0.3932,52
2.066,39,9.059,-1.2233,-13.1969,0.0474,0.0127,0.0808,87,1.864,35,6.439,-5.4393,-14.6253,0.1685,-0.4309,0.4014,52
2.118,40,9.0536,-1.1828,-13.2366,-0.082,-0.009,0.083,87,1.915,36,6.2243,-5.5223,-14.6072,0.1815,-0.4609,0.3745,52
2.17,41,9.0203,-1.1627,-13.2459,-0.1309,-0.0355,0.0504,87,1.967,37,5.8762,-5.6523,-14.5981,0.1759,-0.4701,0.3351,52
2.222,42,8.9512,-1.1774,-13.4005,-0.134,-0.0224,0.0491,87,2.019,38,5.5288,-5.7909,-14.6257,0.1649,-0.4713,0.267,52
2.273,43,8.8828,-1.1447,-13.439,-0.0693,-0.0093,0.0474,87,2.071,39,5.2562,-5.8282,-14.6652,0.1795,-0.4741,0.1847,52
2.325,44,8.9286,-1.118,-13.4217,-0.0627,0.0342,0.0663,87,2.123,40,5.0217,-5.8142,-14.7792,0.1025,-0.4788,0.1085,52
2.377,45,8.9007,-1.2153,-13.386,-0.0756,0.0796,0.0738,87,2.174,41,4.7213,-5.9621,-15.176,0.0153,-0.4911,0.0229,52
2.429,46,8.8775,-1.2099,-13.4163,-0.0693,0.0673,0.0669,87,2.226,42,4.489,-6.0467,-15.3008,0.1167,-0.4898,-0.03,52
2.481,47,8.9247,-1.1802,-13.3316,-0.0793,0.0065,0.0964,87,2.278,43,4.3476,-5.9955,-15.1643,0.1189,-0.4661,-0.0608,52
2.532,48,8.9087,-1.2534,-13.4154,-0.0644,0.0142,0.0855,87,2.33,44,4.3287,-6.1804,-15.1367,0.0215,-0.3969,-0.0622,52
2.584,49,8.8311,-1.3089,-13.4392,0.0036,0.0438,0.0801,87,2.381,45,4.3207,-6.3581,-15.1408,0.0096,-0.2884,-0.0407,52
2.636,50,8.5389,-1.6076,-13.4254,0.1891,0.0736,0.031,87,2.433,46,4.3123,-6.4678,-15.2264,-0.0469,-0.1923,0.0279,52
2.688,51,8.4742,-1.7352,-13.3885,0.2185,0.108,0.0126,87,2.485,47,4.2134,-6.4359,-15.4973,-0.0502,-0.1054,0.107,52
2.739,52,8.6506,-1.5978,-13.3124,0.1883,0.1163,-0.0031,87,2.537,48,4.2115,-6.2993,-15.6814,-0.0655,0.0035,0.1672,52
2.791,53,8.6762,-1.498,-13.2862,0.1809,0.0879,0.0055,87,2.588,49,4.1725,-6.2085,-15.5684,-0.0199,0.1007,0.1959,52
2.843,54,8.8164,-1.6442,-13.1817,0.1875,0.0733,0.0343,87,2.64,50,4.1449,-6.1551,-15.4262,-0.0563,0.1557,0.1914,52
2.895,55,9.0926,-1.3404,-13.024,0.2478,0.0416,0.0315,87,2.692,51,4.1089,-6.2159,-15.4409,-0.0499,0.1909,0.1555,52
2.947,56,9.0431,-1.5435,-12.9926,0.2233,0.0032,0.0415,87,2.744,52,4.1701,-6.263,-15.4979,-0.0189,0.1961,0.1134,52
2.998,57,8.9975,-1.6934,-13.0044,0.22,-0.0139,0.0121,87,2.796,53,4.2585,-6.3148,-15.6016,-0.0267,0.1726,0.0709,52
3.05,58,8.9827,-1.6583,-13.0148,0.1543,-0.0017,0.0022,87,2.847,54,4.3226,-6.3494,-15.6238,0.0097,0.1292,0.0327,52
3.102,59,9.0083,-1.6594,-12.9891,0.0869,-0.0113,0.0135,87,2.9,55,4.3382,-6.3199,-15.5706,0.0199,0.0688,-0.0066,52
3.154,60,9.0774,-1.5683,-12.9245,-0.0501,-0.0324,0.0488,87,2.951,56,4.3004,-6.319,-15.4599,0.0154,0.0374,-0.0348,52
3.206,61,9.0297,-1.6813,-13.0268,-0.1015,-0.0331,0.035,87,3.003,57,4.3065,-6.3486,-15.387,-0.0049,0.0529,-0.0495,52
3.258,62,8.9498,-1.7951,-13.0951,-0.0742,-0.0087,0.0147,87,3.055,58,4.3827,-6.4082,-15.4038,-0.0644,0.0699,-0.0285,52
3.309,63,8.887,-1.817,-13.0696,0.0228,0.0033,-0.03,87,3.106,59,4.4031,-6.4686,-15.4707,-0.0772,0.0674,0.0217,52
3.361,64,8.8301,-1.8623,-13.1354,0.2253,0.0077,-0.1141,87,3.158,60,4.3791,-6.3435,-15.4888,-0.0737,0.0468,0.0588,52
3.413,65,8.8793,-1.7331,-12.9333,0.2429,0.0318,-0.1501,87,3.21,61,4.2781,-6.2109,-15.588,-0.0985,0.0091,0.0642,52
3.465,66,8.9349,-1.653,-12.9476,0.1772,0.0202,-0.1407,87,3.262,62,4.2872,-6.0846,-15.5505,0.0244,-0.0188,-0.0011,52
3.517,67,8.9718,-1.613,-12.9423,0.1464,0.0226,-0.1048,87,3.314,63,4.2944,-6.0101,-15.4963,0.0338,-0.063,-0.0751,52
3.568,68,8.9966,-1.6041,-12.9118,0.105,0.0086,-0.0648,87,3.365,64,4.3156,-6.0944,-15.4963,0.0352,-0.0857,-0.1407,52
3.62,69,9.0295,-1.562,-12.8768,0.074,-0.0006,-0.046,87,3.417,65,4.3612,-6.1882,-15.5427,0.03,-0.0927,-0.1556,52
3.672,70,9.0234,-1.5113,-12.9247,0.0329,-0.0269,-0.0132,87,3.469,66,4.3979,-6.2987,-15.5866,0.0261,-0.0975,-0.1236,52
3.724,71,9.0371,-1.4582,-12.9022,-0.0278,-0.0547,0.0314,87,3.521,67,4.4296,-6.3141,-15.6119,0.0358,-0.0936,-0.0765,52
3.776,72,9.1227,-1.3539,-12.9197,-0.1494,-0.0363,0.0761,87,3.572,68,4.4559,-6.2949,-15.613,0.0141,-0.0815,-0.0261,52
3.827,73,9.0172,-1.4915,-13.0028,-0.1872,-0.0215,0.0529,87,3.624,69,4.4687,-6.2271,-15.5589,-0.0198,-0.057,0.0155,52
3.879,74,8.9059,-1.6962,-13.0715,-0.1096,-0.0192,0.0385,87,3.676,70,4.4361,-6.1749,-15.4252,-0.0643,-0.0222,0.0551,52
3.931,75,8.9241,-1.7919,-13.0959,0.0532,0.0369,-0.0368,87,3.728,71,4.2599,-6.2864,-15.5958,-0.1389,0.0204,0.1069,52
3.983,76,9.1121,-1.6088,-12.9019,0.1701,0.0035,-0.0777,87,3.78,72,4.3373,-6.1593,-15.633,-0.1048,0.0643,0.1319,52
4.034,77,9.1313,-1.4849,-12.9045,0.21,-0.022,-0.0531,87,3.831,73,4.3171,-6.0594,-15.6554,-0.0792,0.0934,0.1232,52
4.086,78,9.1065,-1.4987,-12.8441,0.104,-0.067,0.0328,87,3.883,74,4.326,-6.1419,-15.7813,-0.05,0.0823,0.0655,52
4.138,79,9.0935,-1.3882,-12.8293,-0.0241,-0.0636,0.0841,87,3.935,75,4.2807,-6.1883,-15.8311,-0.0264,0.065,0.0228,52
4.19,80,9.0591,-1.4438,-12.9612,-0.1083,-0.0473,0.1022,87,3.987,76,4.1687,-6.1342,-15.7631,-0.0497,0.0362,0.0205,52
4.242,81,8.9607,-1.5752,-13.0292,-0.1346,-0.0202,0.0999,87,4.039,77,4.1543,-6.2146,-15.7575,-0.1173,-0.0001,0.0239,52
4.293,82,8.9927,-1.6976,-13.0466,-0.1384,-0.0542,0.1071,87,4.09,78,4.234,-6.2354,-15.8227,-0.1117,-0.0163,0.0573,52
4.345,83,9.0164,-1.6898,-13.0644,-0.1267,-0.0524,0.109,87,4.142,79,4.2737,-6.135,-15.7338,-0.1378,-0.0016,0.088,52
4.397,84,8.9603,-1.7496,-13.0906,-0.1157,-0.0365,0.1011,87,4.194,80,4.359,-6.2169,-15.7631,-0.1383,0.033,0.0921,52
4.449,85,8.9838,-1.7234,-13.0944,-0.0973,-0.0289,0.0845,87,4.246,81,4.3973,-6.2073,-15.7592,-0.1089,0.0708,0.0976,52
4.501,86,8.9666,-1.7112,-13.1396,-0.0906,-0.0335,0.0704,87,4.297,82,4.4254,-6.2684,-15.8311,-0.0862,0.0896,0.0963,52
4.552,87,8.9771,-1.7801,-13.1591,-0.1138,-0.0316,0.0624,87,4.349,83,4.3449,-6.2389,-15.838,-0.0381,0.094,0.096,52
4.604,88,8.9211,-1.8231,-13.2177,-0.1111,-0.0286,0.048,87,4.401,84,4.2905,-6.193,-15.8048,0.0545,0.0943,0.0811,52
4.656,89,8.9072,-1.7988,-13.2384,-0.0815,-0.0149,0.0268,87,4.453,85,4.2914,-6.1521,-15.7627,0.0678,0.0904,0.0711,52
4.708,90,8.9071,-1.7963,-13.2176,-0.0867,0.0005,0.0219,87,4.505,86,4.2674,-6.2206,-15.7013,0.0588,0.0874,0.0626,52
4.76,91,8.9048,-1.7884,-13.2239,-0.0884,0.0143,0.0246,87,4.557,87,4.2445,-6.2214,-15.5971,0.0485,0.0799,0.0558,52
4.811,92,8.8881,-1.8084,-13.2241,-0.0768,0.018,0.0135,87,4.608,88,4.2185,-6.283,-15.5956,-0.0016,0.0767,0.0547,52
4.863,93,8.8972,-1.7815,-13.202,-0.0759,0.0261,0.0124,87,4.66,89,4.2495,-6.3251,-15.6099,0.0058,0.0813,0.0599,52
4.915,94,8.8956,-1.7858,-13.2303,-0.0565,0.0306,0.0072,87,4.712,90,4.2897,-6.3824,-15.6112,0.0135,0.0946,0.0747,52
4.967,95,8.8631,-1.7952,-13.2162,-0.0201,0.0383,0.0035,87,4.764,91,4.306,-6.4114,-15.5026,0.0429,0.1113,0.088,52
5.018,96,8.8445,-1.8306,-13.2284,0.021,0.0499,-0.0017,87,4.815,92,4.3866,-6.4461,-15.3545,0.0551,0.1369,0.1001,52
5.07,97,8.8801,-1.7615,-13.1697,0.0134,0.0731,0.0158,87,4.867,93,4.3857,-6.4821,-15.2948,0.0479,0.1687,0.0999,52
5.122,98,8.8471,-1.8502,-13.1484,0.0047,0.0713,0.012,87,4.919,94,4.3804,-6.498,-15.2995,0.0492,0.1985,0.0895,52
5.174,99,8.8616,-1.8799,-13.1495,0.0281,0.0586,-0.0149,87,4.971,95,4.3374,-6.5329,-15.2871,0.043,0.2065,0.0878,52
5.226,100,8.623,-2.2306,-13.267,0.2658,0.0187,-0.1107,87,5.023,96,4.3544,-6.5443,-15.2943,0.0572,0.1929,0.0894,52
5.277,101,8.6194,-1.9214,-12.9125,0.354,0.0894,-0.2069,87,5.074,97,4.3267,-6.4788,-15.2098,0.1042,0.1631,0.0757,52
5.329,102,8.7728,-1.8257,-12.9204,0.3409,0.033,-0.1965,87,5.126,98,4.2947,-6.4372,-15.1077,0.1255,0.0886,-0.0021,52
5.381,103,8.8947,-1.7919,-12.8263,0.2648,0.0364,-0.1855,87,5.178,99,4.4523,-6.4746,-15.2218,0.1632,0.0034,-0.1081,52
5.433,104,8.9691,-1.6786,-12.8283,0.1951,0.0352,-0.1541,87,5.23,100,4.4799,-6.532,-15.2861,0.1896,-0.0665,-0.1836,52
5.485,105,9.0145,-1.599,-12.7945,0.1442,0.034,-0.1278,87,5.281,101,4.4442,-6.5414,-15.2784,0.1853,-0.1462,-0.2263,52
5.536,106,9.0457,-1.5411,-12.7881,0.0973,0.0232,-0.0983,87,5.333,102,4.4467,-6.5731,-15.2194,0.1753,-0.2043,-0.2273,52
5.588,107,9.0858,-1.4912,-12.7438,0.045,0.0012,-0.0506,87,5.385,103,4.4597,-6.5725,-15.1358,0.1868,-0.2477,-0.2093,52
5.64,108,9.0843,-1.4867,-12.7647,0.0103,-0.0249,-0.0135,87,5.437,104,4.3904,-6.5301,-15.1019,0.1537,-0.2707,-0.1741,52
5.692,109,9.106,-1.5013,-12.7757,0.0112,-0.0287,-0.0022,87,5.489,105,4.315,-6.4978,-15.1351,0.1475,-0.2871,-0.1462,52
5.744,110,9.0916,-1.4982,-12.7931,0.0108,-0.0262,-0.0035,87,5.54,106,4.3435,-6.4988,-15.1223,0.1247,-0.29,-0.1114,52
5.795,111,9.0921,-1.4861,-12.8217,0.0166,-0.0256,0.0008,87,5.592,107,4.4503,-6.5695,-15.0977,0.1044,-0.2843,-0.0895,52
5.847,112,9.108,-1.4918,-12.8309,0.0082,-0.0239,0.0184,87,5.644,108,4.5101,-6.6124,-15.1306,0.0893,-0.2607,-0.0726,52
5.899,113,8.9761,-1.511,-12.9224,-0.0853,-0.1076,0.0672,87,5.696,109,4.4622,-6.6603,-15.1486,0.091,-0.2415,-0.0649,52
5.951,114,9.1209,-1.4546,-12.8037,-0.1897,-0.1152,0.0496,87,5.748,110,4.4126,-6.6746,-15.1538,0.0869,-0.2227,-0.0534,52
6.003,115,9.0421,-1.3117,-13.0597,-0.2293,-0.0938,0.0687,87,5.799,111,4.36,-6.6222,-15.1431,0.083,-0.1925,-0.0405,52
6.054,116,9.0293,-1.4295,-13.0994,-0.2094,-0.0675,0.1141,87,5.851,112,4.3974,-6.6166,-15.1634,0.0468,-0.1571,-0.0398,52
6.106,117,8.9497,-1.5924,-13.1302,-0.1257,-0.0316,0.1006,87,5.903,113,4.4526,-6.6877,-15.1973,0.0037,-0.0957,-0.0216,52
6.158,118,9.0661,-1.488,-13.0595,-0.0332,-0.0072,0.0662,87,5.955,114,4.4,-6.638,-15.1913,-0.0307,-0.0382,0.0121,52
6.21,119,9.0809,-1.5045,-13.0093,-0.0176,-0.0168,0.0619,87,6.007,115,4.2224,-6.5502,-15.235,-0.0458,-0.0007,0.0362,52
6.262,120,9.0581,-1.4692,-13.0895,-0.0476,0.0424,0.0899,87,6.058,116,4.0878,-6.365,-15.3631,-0.1009,-0.013,0.0369,52
6.313,121,9.0591,-1.5973,-13.0519,-0.0661,0.0849,0.1175,87,6.11,117,4.1,-6.4376,-15.5818,-0.1607,-0.0333,0.0005,52
6.365,122,8.9078,-1.8206,-13.0241,-0.0291,0.097,0.1032,87,6.162,118,4.1956,-6.6037,-15.6259,-0.1645,-0.0514,-0.0149,52
6.417,123,8.7086,-2.1205,-13.0329,0.0715,0.0885,0.0494,87,6.214,119,4.2014,-6.5842,-15.5307,-0.1674,-0.0631,0.0184,52
6.469,124,8.894,-1.8167,-12.9092,0.1294,0.1166,-0.0077,87,6.265,120,4.1002,-6.435,-15.4623,-0.1435,-0.0556,0.0415,52
6.521,125,8.9271,-1.7984,-12.8513,0.1274,0.0667,-0.0097,87,6.317,121,4.0505,-6.3366,-15.4649,-0.0616,-0.0266,0.0277,52
6.572,126,8.9473,-1.7905,-12.9074,0.1085,0.0519,-0.0337,87,6.369,122,4.1459,-6.3383,-15.6318,-0.0246,-0.009,-0.0001,52
6.624,127,8.995,-1.7597,-12.8726,0.0662,0.0363,-0.0245,87,6.421,123,4.2287,-6.3931,-15.7756,0.0054,-0.0083,-0.0119,52
6.676,128,9.0093,-1.7937,-12.8718,0.0404,0.0262,-0.0284,87,6.472,124,4.1986,-6.3737,-15.8036,0.0208,-0.0249,-0.0169,52
6.728,129,8.9983,-1.8233,-12.8526,0.0421,0.0117,-0.0456,87,6.525,125,4.1912,-6.3614,-15.7636,0.0222,-0.0453,-0.021,52
6.78,130,9.0075,-1.7752,-12.813,0.0469,-0.0066,-0.0653,87,6.576,126,4.1954,-6.3146,-15.6597,0.0428,-0.058,-0.0281,52
6.831,131,9.0272,-1.7251,-12.8275,0.0563,-0.0276,-0.0866,87,6.628,127,4.1371,-6.2581,-15.6513,0.0588,-0.0538,-0.0438,52
6.883,132,9.0319,-1.6841,-12.8331,0.0424,-0.039,-0.0855,87,6.68,128,4.1154,-6.2395,-15.6766,0.0676,-0.0458,-0.0671,52
6.935,133,9.0417,-1.6187,-12.8777,0.0172,-0.0518,-0.0637,87,6.732,129,4.1263,-6.2846,-15.7108,0.0672,-0.0474,-0.0862,52
6.987,134,9.0593,-1.5322,-12.8978,-0.0622,-0.0993,0.0101,87,6.784,130,4.1125,-6.3427,-15.7565,0.0504,-0.0622,-0.0929,52
7.039,135,9.0352,-1.6329,-13.0079,-0.1286,-0.0844,0.0434,87,6.835,131,3.9887,-6.4488,-15.7531,0.0194,-0.0727,-0.0755,52
7.09,136,8.9907,-1.6476,-13.084,-0.1379,-0.0519,0.0394,87,6.887,132,3.9893,-6.5678,-15.7103,-0.0195,-0.0795,-0.0264,52
7.142,137,9.0134,-1.6029,-13.0813,-0.0953,-0.0328,0.0202,87,6.939,133,4.063,-6.5736,-15.606,-0.0604,-0.0626,0.0445,52
7.194,138,9.0073,-1.627,-13.0889,-0.0548,0.0008,-0.0027,87,6.991,134,4.0749,-6.4583,-15.5447,-0.0852,-0.0253,0.0947,52
7.246,139,8.8711,-1.7585,-13.1395,0.0337,0.0192,-0.0443,87,7.043,135,3.9978,-6.3616,-15.5619,-0.1114,0.0151,0.0955,52
7.298,140,8.9948,-1.6679,-13.0701,0.0417,0.0241,-0.0525,87,7.094,136,3.8707,-6.3612,-15.6381,-0.1039,0.0336,0.0582,52
7.349,141,8.9163,-1.6877,-13.0708,0.0561,0.1978,-0.1094,87,7.146,137,4.0228,-6.4378,-15.782,-0.068,0.0144,0.0122,52
7.401,142,9.0149,-1.5683,-12.8631,0.1548,0.2108,-0.1757,87,7.198,138,4.1062,-6.4989,-15.869,-0.0217,-0.0051,-0.0073,52
7.453,143,9.0977,-1.4518,-12.7457,0.184,0.1664,-0.2005,87,7.25,139,4.1523,-6.4287,-15.8587,0.0257,-0.015,-0.0206,52
7.505,144,9.1156,-1.3287,-12.7035,0.1856,0.1209,-0.1822,87,7.302,140,3.9706,-6.274,-15.6897,0.0787,-0.008,-0.0497,52
7.557,145,9.1395,-1.2668,-12.6784,0.1694,0.08,-0.1393,87,7.353,141,3.7513,-6.2513,-15.6546,0.1147,-0.0135,-0.0908,52
7.608,146,9.1843,-1.2309,-12.6388,0.1194,0.0433,-0.1146,87,7.405,142,3.7844,-6.336,-15.7685,0.1353,-0.0209,-0.1113,52
7.66,147,9.1936,-1.2065,-12.6329,0.0927,0.025,-0.0818,87,7.457,143,3.98,-6.3398,-15.7942,0.1445,-0.0253,-0.1002,52
7.712,148,9.2108,-1.1904,-12.5921,0.0771,0.0191,-0.0495,87,7.509,144,4.0787,-6.3819,-15.8285,0.0866,-0.0235,-0.068,52
7.764,149,9.21,-1.2187,-12.5887,0.0651,0.0091,-0.0375,87,7.561,145,4.1015,-6.4522,-15.7986,0.0719,-0.0291,-0.0265,52
7.816,150,9.226,-1.1833,-12.5732,0.0522,-0.0091,-0.0274,87,7.612,146,4.1412,-6.4392,-15.7292,0.0687,-0.0399,-0.0096,52
7.867,151,9.228,-1.1653,-12.6027,0.0623,-0.0374,-0.0145,87,7.664,147,4.1596,-6.4048,-15.6862,0.0636,-0.0313,-0.0013,52
7.919,152,9.2111,-1.1745,-12.6196,0.0622,-0.0407,0.0204,86,7.716,148,4.1818,-6.342,-15.6699,0.0635,-0.0155,-0.0075,52
7.971,153,9.2082,-1.1842,-12.6222,0.0452,-0.0728,0.0471,86,7.768,149,4.1238,-6.3444,-15.6957,0.0331,-0.0027,-0.0103,52
8.023,154,9.211,-1.2964,-12.7037,0.0282,-0.1165,0.0587,86,7.82,150,4.0564,-6.3513,-15.6527,0.0059,-0.002,-0.0078,52
8.075,155,9.1959,-1.328,-12.7549,0.0456,-0.1174,0.0544,86,7.871,151,4.0604,-6.3791,-15.6971,-0.1057,-0.0104,0.0342,52
8.126,156,9.1875,-1.3417,-12.7421,0.0596,-0.087,0.0383,86,7.923,152,4.0625,-6.5689,-15.9133,-0.1649,-0.0103,0.1007,52
8.178,157,9.1399,-1.3786,-12.7655,0.0502,-0.0579,0.0272,86,7.975,153,4.066,-6.5806,-15.9708,-0.1747,-0.0344,0.1779,52
8.23,158,9.1327,-1.3567,-12.769,0.0549,-0.0379,0.0285,86,8.026,154,3.9777,-6.4704,-15.9057,-0.1761,-0.0531,0.2232,52
8.282,159,9.1142,-1.3699,-12.8112,0.048,-0.0332,0.0514,86,8.078,155,3.8068,-6.2763,-15.827,-0.1538,-0.044,0.2236,52
8.334,160,9.0947,-1.4244,-12.8431,0.0331,-0.0514,0.0583,86,8.13,156,3.6978,-6.2053,-15.8146,-0.1572,-0.0281,0.1808,52
8.385,161,9.075,-1.3747,-12.8947,-0.0099,-0.0906,0.0867,86,8.182,157,3.7528,-6.2287,-15.8157,-0.2027,-0.0019,0.1208,52
8.437,162,9.0793,-1.4126,-12.9355,0.0128,-0.0919,0.0784,86,8.234,158,3.7625,-6.3107,-15.9758,-0.2659,0.0202,0.097,52
8.489,163,9.0491,-1.4935,-12.9742,0.0106,-0.0953,0.0763,86,8.285,159,3.7286,-6.491,-16.0365,-0.2303,0.0411,0.078,52
8.541,164,9.022,-1.53,-13.019,0.0217,-0.0909,0.0696,86,8.337,160,3.6888,-6.4635,-16.0153,-0.1287,0.0533,0.0748,52
8.592,165,9.0102,-1.5358,-13.0419,-0.0245,-0.096,0.0962,86,8.389,161,3.6785,-6.3671,-16.0222,-0.0797,0.0796,0.0685,52
8.644,166,8.9839,-1.5793,-13.0729,-0.0786,-0.0867,0.0904,86,8.441,162,3.6647,-6.2774,-16.1043,-0.0608,0.097,0.0593,52
8.696,167,8.9395,-1.6124,-13.1815,-0.1594,-0.0995,0.1009,86,8.492,163,3.6901,-6.2901,-16.1665,-0.0273,0.0951,0.0555,52
8.748,168,8.9281,-1.6464,-13.2077,-0.2108,-0.1096,0.0969,86,8.544,164,3.7116,-6.4481,-16.076,0.0626,0.0906,0.0609,52
8.8,169,8.8737,-1.688,-13.3463,-0.1864,-0.107,0.0835,86,8.596,165,3.7776,-6.4725,-15.8913,0.162,0.1123,0.0979,52
8.852,170,8.8628,-1.6888,-13.3877,-0.1414,-0.0889,0.0836,86,8.648,166,3.7973,-6.4986,-15.8733,0.1025,0.1515,0.1617,52
8.904,171,8.8399,-1.6391,-13.4295,-0.1551,-0.0823,0.0859,86,8.7,167,3.7657,-6.4805,-15.7608,0.1028,0.1936,0.2036,52
8.955,172,8.9926,-1.6936,-13.4547,-0.2291,-0.0655,0.0757,86,8.752,168,3.7813,-6.5764,-15.5986,0.0742,0.2267,0.2186,52
9.007,173,8.9029,-1.7674,-13.5881,-0.2892,-0.0608,0.068,86,8.803,169,3.8026,-6.7606,-15.4958,0.0521,0.2721,0.2306,52
9.059,174,8.8689,-1.6677,-13.65,-0.3136,-0.0487,0.0626,86,8.855,170,3.8168,-6.9322,-15.4651,0.0423,0.325,0.2493,52
9.111,175,8.794,-1.6793,-13.7529,-0.2874,-0.028,0.0668,86,8.907,171,3.8332,-6.981,-15.4523,0.0375,0.363,0.2774,52
9.162,176,8.7228,-1.7413,-13.7882,-0.2226,0.0054,0.0683,86,8.959,172,3.7514,-6.8815,-15.4086,0.0191,0.3697,0.2858,52
9.214,177,8.7992,-1.6813,-13.714,-0.1577,0.0164,0.0565,86,9.01,173,3.654,-6.758,-15.4154,-0.0061,0.3496,0.2695,52
9.266,178,8.8315,-1.6648,-13.6986,-0.1081,0.033,0.0347,86,9.062,174,3.4833,-6.5944,-15.4663,-0.0379,0.3116,0.2281,52
9.318,179,8.8273,-1.6234,-13.6898,-0.0786,0.072,-0.0021,86,9.114,175,3.4339,-6.5269,-15.5973,-0.1103,0.2364,0.1653,52
9.37,180,8.8643,-1.5679,-13.6227,-0.0944,0.1126,-0.0129,86,9.166,176,3.4899,-6.673,-15.5418,-0.14,0.1386,0.0722,52
9.421,181,8.7365,-1.755,-13.6726,-0.0357,0.1282,-0.0244,86,9.218,177,3.6932,-6.8779,-15.4784,-0.1523,0.0481,-0.0111,52
9.473,182,8.7112,-1.7655,-13.5531,0.1166,0.1086,-0.0778,86,9.269,178,3.7597,-6.9592,-15.3944,-0.1243,0.0021,-0.0497,52
9.525,183,8.8043,-1.635,-13.4873,0.2142,0.0963,-0.1275,86,9.321,179,3.6989,-6.9008,-15.3067,-0.0696,-0.0238,-0.0885,52
9.577,184,8.8802,-1.4406,-13.3494,0.2002,0.0717,-0.1321,86,9.373,180,3.6466,-6.8557,-15.331,0.0061,-0.0536,-0.1529,52
9.628,185,8.8906,-1.3982,-13.3703,0.1551,0.0453,-0.0961,86,9.425,181,3.7418,-6.8028,-15.4486,0.088,-0.0974,-0.2348,52
9.68,186,8.9199,-1.4152,-13.3506,0.1335,0.0512,-0.0822,86,9.477,182,3.7984,-6.8316,-15.5992,0.1155,-0.1304,-0.2703,52
9.732,187,8.9393,-1.4333,-13.3195,0.1262,0.0476,-0.067,86,9.528,183,3.8581,-6.8149,-15.5966,0.123,-0.1558,-0.2552,52
9.784,188,8.9556,-1.3662,-13.2862,0.1274,0.0598,-0.0558,86,9.58,184,3.898,-6.7936,-15.4968,0.1137,-0.1707,-0.2127,52
