right_leg_timestamp,right_leg_index,right_leg_accel_x,right_leg_accel_y,right_leg_accel_z,right_leg_gyro_x,right_leg_gyro_y,right_leg_gyro_z,right_leg_battery_percentage,left_leg_timestamp,left_leg_index,left_leg_accel_x,left_leg_accel_y,left_leg_accel_z,left_leg_gyro_x,left_leg_gyro_y,left_leg_gyro_z,left_leg_battery_percentage
0.54,10,10.3325,-2.4475,-10.3879,-0.2154,-1.0437,-0.5601,70,0.029,0,8.5522,2.1445,-10.9642,0.0133,-0.1457,0.2655,39
0.592,11,10.6429,-1.8397,-11.8316,0.0892,-1.2625,-0.6779,70,0.081,1,8.507,2.0388,-11.1278,0.0106,-0.2331,0.3783,39
0.644,12,10.7337,-1.39,-12.6814,0.2014,-1.5392,-0.7612,70,0.133,2,8.543,1.6064,-11.3486,0.033,-0.2553,0.3597,39
0.695,13,10.3533,-0.7843,-13.228,0.1716,-1.7617,-0.7232,70,0.185,3,8.6389,1.4589,-11.3825,0.0023,-0.2329,0.241,39
0.747,14,9.4476,-0.3464,-13.6043,0.0922,-1.8452,-0.5866,70,0.237,4,8.5648,1.4564,-11.5779,-0.0905,-0.2139,0.1701,39
0.799,15,8.4993,-0.0142,-14.0652,-0.0097,-1.8181,-0.4138,70,0.288,5,8.671,1.4941,-11.6313,-0.0983,-0.1954,0.148,39
0.851,16,7.5764,0.2293,-14.5528,-0.131,-1.7131,-0.2142,70,0.34,6,8.6499,1.4062,-11.7514,-0.1412,-0.1658,0.2046,39
0.903,17,6.8558,0.3484,-14.8679,-0.2579,-1.5664,-0.0299,70,0.392,7,8.7268,1.1531,-11.7689,-0.1687,-0.1419,0.2001,39
0.955,18,6.4566,0.5149,-15.0834,-0.3811,-1.3444,0.1112,70,0.444,8,8.73,0.9889,-11.8691,-0.1184,-0.0982,0.1005,39
1.006,19,6.1936,0.6777,-15.3043,-0.4857,-1.0991,0.2056,70,0.496,9,8.6993,1.0619,-11.8187,-0.0799,-0.0445,0.0161,39
1.058,20,6.0198,0.8113,-15.6748,-0.5596,-0.8434,0.2535,70,0.547,10,8.6976,1.1062,-11.691,-0.0786,-0.0318,-0.0275,39
1.11,21,5.913,0.9303,-16.0603,-0.5942,-0.626,0.2838,70,0.599,11,8.6509,1.2254,-11.793,-0.0544,-0.034,-0.0468,39
1.161,22,5.896,1.0447,-16.4598,-0.6265,-0.4362,0.2952,70,0.651,12,8.653,1.2788,-11.8282,-0.0577,-0.0357,-0.0426,39
1.213,23,5.8694,1.173,-16.7984,-0.5773,-0.3021,0.2793,70,0.703,13,8.6624,1.207,-11.8135,-0.0547,-0.0488,-0.0245,39
1.265,24,5.8611,1.327,-17.056,-0.4888,-0.2145,0.2409,70,0.755,14,8.6283,1.2711,-11.944,-0.0527,-0.0505,0.0011,39
1.317,25,5.9003,1.4183,-17.2672,-0.4111,-0.157,0.1904,70,0.806,15,8.623,1.2199,-11.9604,-0.0611,-0.0471,0.0257,39
1.369,26,5.9365,1.4929,-17.4075,-0.3114,-0.1254,0.1267,70,0.858,16,8.6386,1.176,-11.9949,-0.0331,-0.0498,0.0226,39
1.42,27,5.9015,1.5934,-17.4788,-0.2155,-0.1142,0.0662,70,0.91,17,8.6216,1.2024,-12.0499,-0.0279,-0.0572,0.0255,39
1.472,28,5.8612,1.6597,-17.4716,-0.1849,-0.1005,0.0211,70,0.962,18,8.6196,1.1603,-12.012,-0.0269,-0.0649,0.0336,39
1.524,29,5.8128,1.6877,-17.4719,-0.1421,-0.0862,-0.0058,70,1.013,19,8.6268,1.1403,-12.0344,-0.0038,-0.0748,0.0274,39
1.576,30,5.7522,1.7218,-17.5036,-0.0938,-0.0608,-0.0179,70,1.065,20,8.6147,1.178,-12.1075,-0.0147,-0.1058,0.0244,39
1.628,31,5.6868,1.7758,-17.5361,-0.079,-0.0297,-0.0168,70,1.117,21,8.7133,0.8562,-11.986,0.059,-0.1211,-0.0057,39
1.679,32,5.6592,1.8336,-17.5377,-0.0686,-0.009,-0.0021,70,1.169,22,8.7036,0.7342,-12.2121,0.1838,-0.1171,-0.0414,39
1.731,33,5.6333,1.8771,-17.5669,-0.0673,-0.0012,0.0139,70,1.22,23,8.8141,0.874,-12.3104,0.2717,-0.087,-0.0619,39
1.783,34,5.6337,1.889,-17.5904,-0.074,-0.0004,0.0305,70,1.272,24,8.7586,1.0663,-12.3991,0.2668,-0.0667,-0.0487,39
1.835,35,5.6352,1.8789,-17.5846,-0.0819,0.0014,0.0447,70,1.324,25,8.6822,1.0592,-12.4405,0.2252,-0.0541,-0.0315,39
1.887,36,5.6542,1.8683,-17.5925,-0.0818,0.0074,0.053,70,1.376,26,8.6054,1.14,-12.5275,0.1916,-0.0461,-0.0012,39
1.938,37,5.6655,1.8683,-17.6267,-0.0702,0.0104,0.0623,70,1.427,27,8.5492,1.1437,-12.5618,0.1362,-0.0424,0.0308,39
1.99,38,5.7134,1.8785,-17.6589,-0.064,0.0093,0.0694,70,1.479,28,8.5956,1.0787,-12.5588,0.0859,-0.0525,0.0536,39
2.042,39,5.7313,1.8732,-17.6839,-0.0525,0.0015,0.0718,70,1.531,29,8.6009,1.0466,-12.6111,0.0538,-0.0518,0.0684,39
2.094,40,5.7444,1.8811,-17.6831,-0.0405,-0.0113,0.0694,70,1.583,30,8.5149,1.0862,-12.6902,-0.0127,-0.0481,0.0843,39
2.146,41,5.7343,1.8669,-17.6799,-0.017,-0.02,0.0532,70,1.635,31,8.616,0.8848,-12.5558,-0.092,-0.0534,0.1019,39
2.197,42,5.6977,1.877,-17.6393,0.0173,-0.0199,0.0303,70,1.686,32,8.5322,0.9227,-12.6506,-0.112,-0.0512,0.1071,39
2.249,43,5.6437,1.9159,-17.5947,0.0391,-0.0171,0.0114,70,1.738,33,8.5756,0.7306,-12.6356,-0.0602,-0.044,0.0869,39
2.301,44,5.6251,1.9207,-17.5715,0.0482,-0.0114,-0.0011,70,1.79,34,8.6385,0.5852,-12.6193,0.0565,-0.0235,0.0342,39
2.353,45,5.6516,1.9274,-17.5622,0.0437,-0.002,-0.0066,70,1.842,35,8.6007,0.7519,-12.6865,0.0996,-0.0013,-0.004,39
2.405,46,5.7115,1.9142,-17.5674,0.0256,0.0163,-0.0021,70,1.893,36,8.5637,0.7302,-12.6676,0.0584,0.0139,-0.0019,39
2.457,47,5.772,1.8947,-17.5383,0.0035,0.0433,0.0185,70,1.945,37,8.5272,0.809,-12.698,0.0309,0.0056,-0.0029,39
2.509,48,5.7863,1.8458,-17.5462,-0.0297,0.0663,0.0488,70,1.997,38,8.5345,0.8585,-12.7069,-0.0025,0.0064,0.0136,39
2.56,49,5.7953,1.8032,-17.5905,-0.0541,0.0745,0.0715,70,2.049,39,8.5605,0.8335,-12.7014,-0.0469,-0.0129,0.0431,39
2.612,50,5.7601,1.7707,-17.5978,-0.0515,0.0667,0.0732,70,2.101,40,8.5735,0.8244,-12.7349,-0.0914,-0.0256,0.0711,39
2.664,51,5.7523,1.7776,-17.5257,-0.0143,0.0577,0.0544,70,2.152,41,8.6253,0.7514,-12.767,-0.1087,-0.0337,0.0749,39
2.716,52,5.7568,1.7839,-17.5125,-0.0021,0.0616,0.0286,70,2.204,42,8.6339,0.6545,-12.7537,-0.1344,-0.0135,0.0713,39
2.768,53,5.8129,1.8125,-17.508,0.0316,0.0611,0.0043,70,2.256,43,8.6109,0.6355,-12.7259,-0.1309,0.0155,0.0495,39
2.819,54,5.8685,1.846,-17.5331,0.0464,0.0475,-0.0116,70,2.308,44,8.6033,0.5871,-12.6489,-0.1077,0.0271,0.0301,39
2.871,55,5.918,1.8199,-17.5361,0.0476,0.03,-0.024,70,2.36,45,8.5931,0.5577,-12.6198,-0.0392,-0.0155,-0.0059,39
2.923,56,5.9623,1.813,-17.5006,0.0523,0.0042,-0.035,70,2.411,46,8.5483,0.615,-12.7175,-0.0031,-0.0128,-0.0226,39
2.974,57,6.0205,1.8068,-17.4534,0.0477,-0.011,-0.0473,70,2.463,47,8.5494,0.6358,-12.7001,0.0351,-0.0145,-0.0456,39
3.026,58,6.0331,1.8028,-17.4331,0.0593,-0.0164,-0.0655,70,2.515,48,8.4778,1.0887,-12.8083,0.1326,-0.0318,-0.074,39
3.078,59,6.0296,1.7985,-17.4022,0.0817,-0.0151,-0.0916,70,2.567,49,8.5178,0.9721,-12.7506,0.0865,-0.0111,-0.0618,39
3.13,60,5.972,1.7933,-17.3287,0.1063,-0.0022,-0.1183,70,2.618,50,8.5123,0.9863,-12.7026,0.033,0.0047,-0.0435,39
3.182,61,5.9072,1.824,-17.2294,0.1302,0.0171,-0.1391,70,2.67,51,8.5,0.9156,-12.6986,0.0146,0.0212,-0.0409,39
3.233,62,5.8782,1.8379,-17.1946,0.1482,0.051,-0.1513,70,2.722,52,8.5683,0.835,-12.6931,0.0224,0.0225,-0.0577,39
3.285,63,5.9459,1.8638,-17.2149,0.1319,0.0906,-0.1541,70,2.774,53,8.4903,1.1066,-12.7628,0.0798,0.0058,-0.0927,39
3.337,64,6.068,1.8148,-17.3151,0.097,0.1183,-0.1418,70,2.825,54,8.481,1.0607,-12.7325,0.0822,0.0129,-0.086,39
3.389,65,6.1572,1.7868,-17.4081,0.0797,0.1251,-0.1228,70,2.877,55,8.4845,1.0701,-12.6738,0.0879,0.0051,-0.0724,39
3.441,66,6.1682,1.7569,-17.4739,0.0599,0.1079,-0.1007,70,2.929,56,8.4752,1.073,-12.6738,0.0381,-0.016,-0.0255,39
3.492,67,6.1059,1.6977,-17.4661,0.0461,0.0793,-0.0783,70,2.981,57,8.5073,1.0715,-12.6515,0.0073,-0.036,0.0169,39
3.544,68,6.0196,1.6415,-17.4191,0.0389,0.055,-0.0509,70,3.033,58,8.5402,0.9691,-12.6968,-0.0165,-0.0485,0.0507,39
3.596,69,5.9662,1.5894,-17.3897,0.0262,0.0462,-0.0221,70,3.084,59,8.5179,0.9319,-12.7731,-0.0154,-0.0429,0.0557,39
3.648,70,5.9788,1.5544,-17.3721,0.0211,0.0399,0.0144,70,3.136,60,8.5303,0.879,-12.8102,-0.0146,-0.0316,0.0555,39
3.7,71,6.0372,1.5602,-17.3988,0.0065,0.0322,0.0492,70,3.188,61,8.5545,0.8194,-12.8019,-0.0189,-0.028,0.046,39
3.752,72,6.1103,1.6113,-17.4053,0.0035,0.0112,0.0747,70,3.24,62,8.5135,0.8302,-12.815,-0.0325,-0.0202,0.0408,39
3.803,73,6.1276,1.6798,-17.409,-0.0021,-0.0151,0.0903,70,3.291,63,8.4902,0.8997,-12.8495,-0.0784,-0.0139,0.0393,39
3.855,74,6.1673,1.7162,-17.4008,-0.0081,-0.0339,0.0924,70,3.343,64,8.5437,0.8086,-12.7624,-0.1233,-0.0113,0.0394,39
3.907,75,6.1753,1.7648,-17.3633,0.0089,-0.0497,0.082,70,3.395,65,8.5165,0.7703,-12.7681,-0.1444,0.0026,0.0419,39
3.959,76,6.1568,1.7755,-17.3318,0.0049,-0.0543,0.0665,70,3.447,66,8.5242,0.709,-12.7296,-0.1223,-0.0022,0.0292,39
4.01,77,6.1319,1.7611,-17.295,-0.0021,-0.0488,0.0534,70,3.499,67,8.5105,0.6714,-12.7427,-0.038,-0.0086,-0.0084,39
4.062,78,6.1049,1.7433,-17.2798,-0.0087,-0.0416,0.0461,70,3.551,68,8.5006,0.8143,-12.7921,0.0064,-0.0165,-0.0363,39
4.114,79,6.0915,1.6867,-17.3227,-0.0165,-0.0307,0.0333,70,3.602,69,8.5456,0.7887,-12.7366,0.0551,-0.0111,-0.0466,39
4.166,80,6.0855,1.638,-17.3567,-0.0038,-0.027,0.0157,70,3.654,70,8.4602,0.9676,-12.853,0.0655,-0.0115,-0.0384,39
4.218,81,6.0738,1.5991,-17.3923,0.025,-0.0296,-0.0085,70,3.706,71,8.5032,0.882,-12.7748,0.0398,-0.0009,-0.0328,39
4.269,82,6.0445,1.5776,-17.3876,0.0434,-0.0351,-0.0301,70,3.758,72,8.5072,0.8835,-12.7894,0.033,0.0049,-0.039,39
4.321,83,6.0228,1.5612,-17.3775,0.054,-0.0353,-0.0408,70,3.809,73,8.5286,0.8387,-12.7673,0.0384,0.014,-0.0516,39
4.373,84,6.0351,1.5647,-17.3652,0.0621,-0.0304,-0.0426,70,3.861,74,8.5218,0.9138,-12.7362,0.0672,0.0257,-0.0638,39
4.425,85,6.0656,1.5743,-17.3865,0.0582,-0.0204,-0.038,70,3.913,75,8.5052,0.9629,-12.7635,0.0471,0.0234,-0.0545,39
4.476,86,6.062,1.578,-17.401,0.0561,-0.0153,-0.0308,70,3.965,76,8.5216,0.9784,-12.7243,0.0176,0.0222,-0.0397,39
4.528,87,6.0524,1.5719,-17.4281,0.0483,-0.0137,-0.0243,70,4.016,77,8.5068,0.9883,-12.7303,-0.003,0.0179,-0.0281,39
4.58,88,6.0271,1.5555,-17.4455,0.0457,-0.0118,-0.0244,70,4.068,78,8.5149,0.991,-12.7188,0.003,0.0176,-0.0305,39
4.632,89,5.9835,1.5526,-17.4364,0.0498,-0.014,-0.0268,70,4.12,79,8.4995,1.0131,-12.725,0.0048,0.0189,-0.0302,39
4.684,90,5.9334,1.5382,-17.4197,0.0435,-0.0156,-0.0292,70,4.172,80,8.5425,0.9856,-12.7075,0.0099,0.0175,-0.0373,39
4.735,91,5.9058,1.5041,-17.3829,0.0423,-0.0111,-0.0264,70,4.224,81,8.5487,0.9551,-12.7227,0.0209,0.0263,-0.0501,39
4.787,92,5.9325,1.465,-17.3876,0.0317,-0.0007,-0.0223,70,4.275,82,8.5239,1.0744,-12.7169,0.0322,0.0333,-0.0622,39
4.839,93,5.979,1.4555,-17.4149,0.019,0.0056,-0.0092,70,4.327,83,8.5012,1.1079,-12.684,0.0002,0.0344,-0.0537,39
4.891,94,6.0567,1.457,-17.4364,0.0021,0.0057,0.0109,70,4.379,84,8.5124,1.0909,-12.6453,-0.0124,0.0319,-0.0506,39
4.943,95,6.0873,1.4586,-17.4155,-0.0141,0.0007,0.0302,70,4.431,85,8.5276,1.1006,-12.6101,-0.0221,0.027,-0.0459,39
4.994,96,6.1172,1.457,-17.3697,-0.0258,0.0006,0.0419,70,4.482,86,8.4888,1.1954,-12.6125,-0.047,0.0272,-0.0249,39
5.046,97,6.1168,1.4768,-17.3448,-0.0312,0.0048,0.0431,70,4.534,87,8.4924,1.2013,-12.5758,-0.0661,0.0221,-0.0051,39
5.098,98,6.1297,1.481,-17.359,-0.0214,0.014,0.0275,70,4.586,88,8.5203,1.1469,-12.5665,-0.0947,0.0637,0.0167,39
5.15,99,6.1183,1.4888,-17.381,0.0031,0.0266,0.0036,70,4.638,89,8.5058,1.2463,-12.5309,-0.0916,0.0653,0.032,39
5.202,100,6.1258,1.5277,-17.372,0.0204,0.0401,-0.0268,70,4.689,90,8.516,1.195,-12.4982,-0.0826,0.0406,0.0453,39
5.254,101,6.1536,1.5624,-17.2986,0.0419,0.0556,-0.054,70,4.741,91,8.5326,1.1074,-12.4571,-0.0592,0.0141,0.0374,39
5.305,102,6.1634,1.5857,-17.2343,0.0393,0.0815,-0.0619,70,4.793,92,8.5276,1.1304,-12.4883,-0.043,-0.0126,0.0084,39
5.357,103,6.1689,1.5834,-17.2216,0.0309,0.109,-0.0565,70,4.845,93,8.553,1.0372,-12.4945,-0.0088,-0.0344,-0.0288,39
5.409,104,6.1254,1.582,-17.2983,0.0408,0.1231,-0.0546,70,4.897,94,8.7009,0.8935,-12.4213,0.1141,-0.1356,-0.1026,39
5.461,105,6.0534,1.6035,-17.3401,0.0656,0.1168,-0.0657,70,4.948,95,8.6342,1.0362,-12.5758,0.2043,-0.1664,-0.1215,39
5.512,106,6.0552,1.6143,-17.3374,0.0735,0.0993,-0.082,70,5.0,96,8.7382,0.9445,-12.5634,0.2989,-0.1485,-0.109,39
5.564,107,6.0964,1.6267,-17.3362,0.0857,0.076,-0.0971,70,5.052,97,8.6274,0.9499,-12.6432,0.3354,-0.1302,-0.1078,39
5.616,108,6.169,1.6287,-17.3315,0.0907,0.052,-0.1058,70,5.104,98,8.5059,1.0706,-12.8061,0.2979,-0.0762,-0.1277,39
5.668,109,6.2194,1.6364,-17.325,0.0801,0.0306,-0.1068,70,5.156,99,8.3651,1.2319,-12.8137,0.2565,-0.0382,-0.1279,39
5.72,110,6.2251,1.6238,-17.3037,0.0731,0.0057,-0.1031,70,5.207,100,8.33,1.2933,-12.8408,0.2099,-0.0219,-0.1105,39
5.771,111,6.2064,1.6144,-17.2535,0.0702,-0.015,-0.096,70,5.259,101,8.3234,1.3317,-12.8735,0.178,-0.0225,-0.0808,39
5.823,112,6.1891,1.6148,-17.192,0.0594,-0.0227,-0.0808,70,5.311,102,8.3608,1.2898,-12.9108,0.1305,-0.0217,-0.0606,39
5.875,113,6.1885,1.5951,-17.1645,0.0425,-0.0164,-0.0649,70,5.363,103,8.4458,1.2409,-12.8627,0.1134,-0.0163,-0.0664,39
5.927,114,6.1859,1.602,-17.1878,0.0424,-0.0098,-0.0521,70,5.415,104,8.3607,1.3508,-12.9615,0.0934,-0.0029,-0.0617,39
5.979,115,6.2266,1.5664,-17.2037,0.0378,-0.0024,-0.0458,70,5.466,105,8.3289,1.406,-12.9529,0.0479,0.0078,-0.0428,39
6.03,116,6.2567,1.5222,-17.2209,0.0474,0.0001,-0.0456,70,5.518,106,8.3894,1.4371,-12.8884,0.0481,0.0054,-0.0305,39
6.082,117,6.2925,1.5346,-17.1697,0.0634,-0.0065,-0.0527,70,5.57,107,8.3077,1.4617,-12.974,0.0346,0.0064,-0.0176,39
6.134,118,6.2993,1.534,-17.1318,0.0681,-0.0029,-0.0521,70,5.622,108,8.3192,1.4502,-12.9292,0.0052,0.0223,-0.0009,39
6.186,119,6.3386,1.5422,-17.1266,0.0646,0.0129,-0.0494,70,5.673,109,8.4119,1.2559,-12.8485,-0.0253,0.0628,0.0005,39
6.237,120,6.3569,1.4977,-17.1407,0.0661,0.0262,-0.0484,70,5.725,110,8.3741,1.3719,-12.8628,-0.0201,0.0691,-0.0048,39
6.289,121,6.3395,1.4936,-17.1501,0.074,0.0365,-0.0474,70,5.777,111,8.3093,1.5203,-12.8975,-0.0501,0.0653,0.0339,39
6.341,122,6.3269,1.5118,-17.1685,0.0768,0.0414,-0.047,70,5.829,112,8.5781,1.2201,-12.749,-0.1156,0.0775,0.0755,39
6.393,123,6.323,1.5146,-17.1726,0.0838,0.0458,-0.0497,70,5.881,113,8.559,1.2335,-12.8093,-0.0793,0.0818,0.0609,39
6.445,124,6.2881,1.5542,-17.1722,0.0891,0.0478,-0.0528,70,5.932,114,8.485,1.4169,-12.8232,-0.0709,0.0856,0.0513,39
6.496,125,6.2853,1.5401,-17.1912,0.0763,0.0531,-0.0515,70,5.984,115,8.6315,1.2149,-12.6143,-0.1106,0.0736,0.0653,39
6.548,126,6.3078,1.5271,-17.2242,0.0759,0.0555,-0.0521,70,6.036,116,8.5466,1.3554,-12.6714,-0.1091,0.04,0.0665,39
6.6,127,6.3458,1.4836,-17.2526,0.0693,0.0463,-0.0523,70,6.087,117,8.6459,1.2395,-12.5884,-0.1266,0.0198,0.0873,39
6.652,128,6.3321,1.4576,-17.2383,0.0777,0.0295,-0.0489,70,6.139,118,8.6278,1.237,-12.6125,-0.1528,-0.0048,0.1095,39
6.704,129,6.2902,1.4223,-17.2106,0.0472,0.0181,-0.0315,70,6.191,119,8.765,1.0967,-12.4557,-0.2001,-0.0272,0.1311,39
6.755,130,6.2894,1.3946,-17.1669,0.0205,0.0151,-0.0045,70,6.243,120,8.6754,1.0169,-12.4494,-0.1434,-0.0142,0.1019,39
6.807,131,6.3361,1.3753,-17.1483,-0.0132,0.0235,0.0318,70,6.295,121,8.6138,1.1006,-12.5024,-0.0913,-0.0078,0.0721,39
6.859,132,6.3946,1.3792,-17.1417,-0.0401,0.0282,0.0663,70,6.346,122,8.5077,1.1772,-12.5526,-0.1203,-0.0036,0.0682,39
6.911,133,6.3984,1.3498,-17.1361,-0.0611,0.0277,0.0948,70,6.398,123,8.6217,1.0314,-12.4494,-0.2005,-0.0094,0.0813,39
6.963,134,6.3899,1.357,-17.1457,-0.0746,0.0287,0.1127,70,6.45,124,8.5699,1.119,-12.4852,-0.2172,0.0216,0.091,39
7.014,135,6.3649,1.3355,-17.1083,-0.0638,0.0224,0.1176,70,6.502,125,8.5818,1.0807,-12.4444,-0.2129,0.0208,0.1016,39
7.066,136,6.3126,1.3151,-16.9871,-0.0524,0.0286,0.1193,70,6.554,126,8.6107,0.9429,-12.4561,-0.1932,0.0076,0.0987,39
7.118,137,6.3693,1.2506,-16.9218,-0.0498,0.0577,0.1169,70,6.605,127,8.5999,0.9505,-12.4503,-0.1651,0.0109,0.0829,39
7.17,138,6.5016,1.2247,-16.9489,-0.0167,0.0812,0.1026,70,6.657,128,8.6018,0.976,-12.4602,-0.1421,0.0177,0.0604,39
7.222,139,6.6049,1.2338,-16.9891,0.0228,0.089,0.0748,70,6.709,129,8.6466,0.9135,-12.3955,-0.1209,0.0176,0.0379,39
7.273,140,6.6889,1.2561,-17.0142,0.0521,0.0709,0.0515,70,6.761,130,8.6476,0.9939,-12.3618,-0.1072,0.0217,0.0244,39
7.325,141,6.7761,1.3064,-17.0199,0.0561,0.0499,0.0359,70,6.812,131,8.5957,1.0178,-12.3479,-0.1017,0.0429,0.0203,39
7.377,142,6.7819,1.3581,-16.946,0.0477,0.0231,0.034,70,6.864,132,8.6045,1.0248,-12.3085,-0.1037,0.0499,0.0185,39
7.429,143,6.8115,1.4161,-16.9231,0.0018,0.0064,0.041,70,6.916,133,8.6114,0.9809,-12.2584,-0.1039,0.0388,0.015,39
7.481,144,6.8653,1.4006,-16.8749,-0.0156,-0.0146,0.0359,70,6.968,134,8.5864,0.9104,-12.2403,-0.0149,-0.0087,-0.0382,39
7.532,145,6.7927,1.3924,-16.8179,-0.0326,-0.0289,0.0247,70,7.02,135,8.5766,1.0891,-12.3685,0.0087,-0.0464,-0.0587,39
7.584,146,6.7386,1.3561,-16.7881,-0.0437,-0.0284,0.0055,70,7.071,136,8.6206,0.8698,-12.2552,0.0614,-0.1331,-0.0786,39
7.636,147,6.6661,1.2827,-16.8101,-0.0408,-0.0109,-0.0185,70,7.123,137,8.6062,1.2492,-12.4131,0.3692,-0.1204,-0.1546,40
7.688,148,6.6034,1.2515,-16.8421,0.004,0.0156,-0.051,70,7.175,138,8.4761,1.3238,-12.5266,0.3373,-0.0597,-0.1478,40
7.739,149,6.5707,1.2394,-16.876,0.0478,0.0412,-0.0819,70,7.227,139,8.3928,1.4674,-12.5463,0.2848,-0.036,-0.0928,40
7.791,150,6.5749,1.244,-16.9254,0.0897,0.0548,-0.1024,70,7.278,140,8.4054,1.2831,-12.6328,0.2284,-0.0013,-0.0512,40
7.843,151,6.5677,1.2511,-16.9717,0.117,0.0512,-0.1147,70,7.33,141,8.4612,1.2407,-12.6516,0.1884,0.0243,-0.0433,40
7.895,152,6.5553,1.2516,-17.0002,0.1168,0.033,-0.1128,70,7.382,142,8.428,1.2497,-12.6848,0.1451,0.0521,-0.036,40
7.947,153,6.5634,1.248,-16.9986,0.1041,0.0111,-0.1006,70,7.434,143,8.5007,1.1662,-12.6019,0.1241,0.0422,-0.0319,40
7.998,154,6.5725,1.2371,-16.9596,0.0903,-0.0102,-0.0814,70,7.486,144,8.494,1.1512,-12.6534,0.1168,0.0357,-0.0365,40
8.05,155,6.5649,1.225,-16.9361,0.0716,-0.0248,-0.0574,70,7.537,145,8.4123,1.1999,-12.6614,0.0712,0.038,-0.0306,40
8.102,156,6.6073,1.1852,-16.891,0.0654,-0.0342,-0.0326,70,7.589,146,8.5573,1.0882,-12.5167,0.0467,0.0321,-0.0289,40
8.154,157,6.6679,1.198,-16.8022,0.1049,-0.0449,-0.009,70,7.641,147,8.5157,1.1862,-12.5548,0.0419,0.0311,-0.0311,40
8.206,158,6.6582,1.2083,-16.8773,0.0678,-0.0503,0.0032,70,7.693,148,8.501,1.2403,-12.558,-0.0022,0.0196,-0.0102,40
8.258,159,6.6827,1.0985,-16.9604,0.0341,-0.0532,0.0219,70,7.744,149,8.5343,1.1771,-12.4794,-0.0325,0.0102,-0.0027,40
8.309,160,6.7097,1.1352,-16.9482,0.0263,-0.0512,0.0355,70,7.796,150,8.4752,1.2238,-12.521,-0.0133,0.0114,-0.01,40
8.361,161,6.7158,1.1314,-16.9284,0.022,-0.0366,0.0327,70,7.848,151,8.4424,1.2792,-12.5945,-0.0406,0.0084,0.0039,40
8.413,162,6.6607,1.138,-16.9677,0.0329,-0.0258,0.0259,70,7.9,152,8.3984,1.3187,-12.5803,-0.1723,-0.0052,0.0421,40
8.465,163,6.6351,1.112,-17.0281,0.0354,-0.0209,0.0065,70,7.952,153,8.492,1.188,-12.4736,-0.2197,-0.0175,0.0719,40
8.516,164,6.6174,1.0899,-17.0559,0.0658,-0.027,-0.0207,70,8.004,154,8.6488,0.9075,-12.4106,-0.1326,-0.0293,0.0708,40
8.568,165,6.5675,1.0916,-17.0921,0.0831,-0.0272,-0.0474,70,8.055,155,8.5943,0.9469,-12.5744,-0.1018,-0.0224,0.0546,40
8.62,166,6.5201,1.1001,-17.0958,0.0857,-0.0183,-0.0591,70,8.107,156,8.5886,0.9029,-12.5289,-0.0729,-0.0089,0.0222,40
8.672,167,6.534,1.139,-17.0651,0.0858,-0.0064,-0.0647,70,8.159,157,8.6131,0.891,-12.4998,-0.0036,-0.0047,-0.025,40
8.724,168,6.5504,1.1374,-17.1319,0.095,-0.0107,-0.0712,70,8.211,158,8.5142,1.0959,-12.5824,0.045,0.0047,-0.0549,40
8.775,169,6.5218,1.1153,-17.1905,0.1046,-0.0351,-0.0866,70,8.262,159,8.5168,1.1343,-12.5807,0.0271,0.0098,-0.0531,40
8.827,170,6.4538,1.1111,-17.2186,0.1076,-0.0632,-0.1076,70,8.314,160,8.5857,1.1108,-12.4862,0.0474,0.009,-0.0582,40
8.879,171,6.3657,1.1255,-17.1731,0.115,-0.0881,-0.1236,70,8.366,161,8.578,1.1284,-12.5321,0.0884,0.0069,-0.0713,40
8.931,172,6.3033,1.124,-17.1383,0.1104,-0.0985,-0.1318,70,8.418,162,8.5302,1.1354,-12.5947,0.0989,0.0254,-0.089,40
8.982,173,6.2683,1.0974,-17.1131,0.1166,-0.0988,-0.1291,70,8.47,163,8.5328,1.1838,-12.5704,0.0999,0.0463,-0.1073,40
9.034,174,6.2813,1.1234,-17.1385,0.1082,-0.0867,-0.1253,70,8.521,164,8.5025,1.2788,-12.5543,0.0952,0.0526,-0.1102,40
9.086,175,6.2799,1.0932,-17.244,0.1178,-0.0757,-0.1258,70,8.573,165,8.4306,1.442,-12.5883,0.0782,0.0475,-0.0958,40
9.138,176,6.2822,1.0931,-17.2986,0.1286,-0.0742,-0.1268,70,8.625,166,8.5463,1.3609,-12.4844,0.0474,0.0443,-0.0629,40
9.189,177,6.2705,1.0351,-17.3528,0.1444,-0.0767,-0.1189,70,8.677,167,8.5201,1.3815,-12.5273,0.0192,0.0408,-0.0452,40
9.242,178,6.2923,1.0611,-17.422,0.1131,-0.0815,-0.1083,70,8.728,168,8.4884,1.4507,-12.523,-0.0065,0.042,-0.0335,40
9.293,179,6.2785,1.0673,-17.5082,0.0865,-0.093,-0.1037,70,8.78,169,8.5023,1.3905,-12.4529,-0.0139,0.042,-0.0297,40
9.345,180,6.1969,1.0276,-17.4804,0.074,-0.1062,-0.0924,70,8.832,170,8.4513,1.4744,-12.5164,-0.0364,0.0311,-0.0091,40
9.397,181,6.0969,1.0757,-17.5138,0.0436,-0.1106,-0.0834,70,8.884,171,8.4613,1.4784,-12.4591,-0.0541,0.0253,0.0072,40
9.449,182,6.0029,1.0463,-17.5155,0.0474,-0.115,-0.0734,70,8.935,172,8.5654,1.3329,-12.4089,-0.0423,0.0169,0.007,40
9.501,183,5.9225,1.0509,-17.5039,0.0481,-0.1141,-0.0644,70,8.987,173,8.5231,1.396,-12.4141,-0.0265,0.0102,0.0145,40
9.552,184,5.8282,1.082,-17.5014,0.0474,-0.1051,-0.0521,70,9.039,174,8.5504,1.3465,-12.4005,-0.0169,0.0077,0.0177,40
9.604,185,5.7578,1.0771,-17.5401,0.0341,-0.0954,-0.0365,70,9.091,175,8.5312,1.3429,-12.4006,-0.0036,0.0091,0.0012,40
9.656,186,5.7643,1.0498,-17.5663,0.0266,-0.0749,-0.0257,70,9.143,176,8.5395,1.3576,-12.3909,0.036,0.0109,-0.0264,40
9.708,187,5.7285,1.0073,-17.5407,0.0674,-0.0499,-0.0124,70,9.194,177,8.4816,1.4937,-12.4609,0.0279,0.01,-0.0225,40
9.76,188,5.7539,0.9568,-17.6582,0.0629,-0.0315,-0.0036,70,9.246,178,8.5115,1.4765,-12.4144,-0.0083,0.0049,-0.0018,40
9.811,189,5.7443,0.9444,-17.7083,0.0862,-0.0306,-0.0012,70,9.298,179,8.5272,1.4291,-12.3816,-0.0052,0.0048,-0.0087,40
9.863,190,5.721,0.9189,-17.7986,0.0783,-0.0389,-0.0074,70,9.35,180,8.5363,1.423,-12.3548,0.0131,0.0061,-0.0183,40
9.915,191,5.6576,0.8967,-17.7741,0.071,-0.0474,-0.0194,70,9.402,181,8.5411,1.4458,-12.3578,0.0304,0.0085,-0.0307,40
9.966,192,5.6352,0.9472,-17.7146,0.0644,-0.0471,-0.0318,70,9.454,182,8.5425,1.4328,-12.4074,0.0628,-0.0182,-0.059,40
10.018,193,5.631,0.9753,-17.6666,0.0576,-0.0424,-0.0403,70,9.506,183,8.5108,1.4434,-12.4505,0.0804,0.0013,-0.0829,40
10.07,194,5.6575,1.098,-17.7116,0.0304,-0.033,-0.0475,70,9.557,184,8.517,1.4527,-12.4304,0.0784,0.0043,-0.112,40
10.122,195,5.7044,1.1914,-17.7812,-0.0387,-0.0227,-0.0639,70,9.609,185,8.5306,1.5248,-12.3943,0.0976,0.0011,-0.1264,40
10.174,196,5.7314,1.0882,-17.665,0.0082,-0.0227,-0.0575,70,9.661,186,8.4886,1.6248,-12.3965,0.0999,0.0018,-0.1207,40
10.225,197,5.7935,0.9221,-17.6354,0.012,-0.011,-0.0237,70,9.713,187,8.4748,1.696,-12.4279,0.1147,-0.0014,-0.1083,40
10.277,198,5.8414,0.9918,-17.6543,-0.0991,0.0133,0.0149,70,9.765,188,8.2702,1.842,-12.5401,0.0695,0.0033,-0.0788,40
10.329,199,5.8675,1.0263,-17.7043,-0.2122,0.033,0.0417,70,9.816,189,8.2732,1.8196,-12.4205,0.0555,0.0077,-0.0596,40
10.381,200,5.8596,1.1823,-17.7207,-0.2371,0.0384,0.0536,70,9.868,190,8.3088,1.7648,-12.4733,0.0453,-0.0045,-0.0412,40
10.433,201,5.8057,1.2327,-17.7539,-0.1951,0.0216,0.058,70,9.92,191,8.3404,1.8172,-12.5067,-0.0013,-0.0132,-0.0043,40
10.484,202,5.77,1.3085,-17.7288,-0.1317,-0.0065,0.0575,70,9.972,192,8.4833,1.6857,-12.4041,-0.0199,-0.0008,0.0166,40
10.536,203,5.699,1.3495,-17.6645,-0.1376,-0.0188,0.0499,70,10.024,193,8.4842,1.7304,-12.4867,-0.0226,0.0362,0.0203,40
10.588,204,5.6332,1.4117,-17.6346,-0.1207,-0.0264,0.0376,70,10.075,194,8.5349,1.6394,-12.3062,-0.0071,0.0756,0.0267,40
10.64,205,5.5474,1.4859,-17.6284,-0.0897,-0.025,0.0211,70,10.127,195,8.5319,1.6599,-12.3327,-0.0036,0.0665,0.025,40
10.692,206,5.5164,1.5602,-17.6784,-0.0471,-0.0133,0.0008,70,10.179,196,8.5452,1.6835,-12.3265,0.0322,0.043,0.0079,40
10.743,207,5.5924,1.6072,-17.7563,-0.0249,-0.0083,-0.0318,70,10.231,197,8.5284,1.7256,-12.3309,0.0293,0.0311,0.0117,40
10.795,208,5.688,1.6256,-17.8185,-0.0082,-0.0201,-0.0688,70,10.283,198,8.5274,1.7404,-12.3127,-0.0013,0.0181,0.0286,40
10.847,209,5.689,1.595,-17.8301,-0.0028,-0.0402,-0.106,70,10.334,199,8.4478,1.8431,-12.3456,-0.0852,-0.0019,0.0625,40
10.899,210,5.68,1.526,-17.7836,0.0107,-0.0585,-0.1374,70,10.386,200,8.8138,1.3857,-12.0807,-0.1724,-0.0285,0.1086,40
10.951,211,5.649,1.3005,-17.6335,0.0283,-0.0571,-0.1467,70,10.438,201,8.7198,1.5497,-12.2139,-0.0988,-0.0481,0.1127,40
11.003,212,5.5321,0.9688,-17.5763,0.0855,-0.0415,-0.082,70,10.49,202,8.6673,1.4811,-12.2589,-0.0077,-0.0355,0.0907,40
11.054,213,5.7265,1.5897,-17.7002,-0.1794,0.0029,-0.079,70,10.542,203,8.6142,1.4728,-12.2889,0.0245,-0.0232,0.0387,40
11.106,214,5.6701,1.5764,-17.701,-0.1765,0.0169,-0.0816,70,10.593,204,8.6056,1.4629,-12.2879,0.0441,-0.0069,0.0005,40
11.158,215,5.6043,1.5612,-17.6931,-0.0934,0.0072,-0.0827,70,10.645,205,8.4842,1.6465,-12.3575,0.0528,-0.0121,0.0019,40
11.21,216,5.5385,1.7008,-17.6491,-0.0291,-0.0004,-0.0785,70,10.697,206,8.5784,1.5373,-12.2569,0.0634,-0.015,0.0053,40
11.261,217,5.4761,1.7037,-17.663,-0.0849,0.0184,-0.0656,70,10.749,207,8.6252,1.4448,-12.2731,0.0998,-0.0342,-0.0108,40
11.313,218,5.502,1.7314,-17.5843,-0.0641,0.0316,-0.0258,70,10.801,208,8.5724,1.4824,-12.3721,0.1157,-0.0282,-0.0377,40
11.365,219,5.4924,1.6283,-17.5402,-0.0487,0.0586,0.0314,70,10.852,209,8.5128,1.536,-12.4087,0.1154,-0.0067,-0.0558,40
11.417,220,5.6265,1.7867,-17.6844,-0.0781,0.0686,0.0813,70,10.904,210,8.3698,1.6987,-12.5401,0.0515,-0.0055,-0.0323,40
11.469,221,5.682,1.8002,-17.7755,-0.1018,0.0512,0.1152,70,10.956,211,8.46,1.5448,-12.3655,0.0253,-0.007,-0.0088,40
11.52,222,5.6712,1.83,-17.7799,-0.1009,0.0205,0.1339,70,11.008,212,8.4759,1.536,-12.4369,0.0133,-0.0113,0.0069,40
11.572,223,5.6175,1.8827,-17.7274,-0.0999,-0.01,0.1405,70,11.059,213,8.5032,1.5298,-12.4459,-0.0081,-0.0046,0.0076,40
11.624,224,5.5733,1.8979,-17.635,-0.0864,-0.0256,0.1312,70,11.111,214,8.5241,1.4777,-12.4166,-0.0123,0.0017,-0.0125,40
11.676,225,5.5637,1.9392,-17.5278,-0.0277,-0.0293,0.118,70,11.163,215,8.5016,1.5395,-12.4029,-0.0137,0.0077,-0.0278,40
11.728,226,5.596,1.8619,-17.478,0.0116,-0.015,0.1059,70,11.215,216,8.4896,1.5456,-12.3861,-0.0314,0.0066,-0.0264,40
11.779,227,5.6756,1.7506,-17.4982,0.0568,-0.0004,0.1049,70,11.266,217,8.4916,1.5663,-12.394,-0.0304,-0.0043,-0.0309,40
11.831,228,5.7613,1.6688,-17.5631,0.0407,0.0153,0.1087,70,11.318,218,8.4866,1.629,-12.3764,-0.0322,-0.0123,-0.0266,40
11.883,229,5.8336,1.6975,-17.6317,0.012,0.0211,0.1063,70,11.37,219,8.5089,1.627,-12.3868,-0.038,-0.012,-0.013,40
11.935,230,5.8342,1.7351,-17.6443,0.0035,0.0113,0.0928,70,11.422,220,8.5013,1.6307,-12.4042,-0.0373,-0.0216,-0.0074,40
11.986,231,5.8044,1.7504,-17.6311,0.0255,-0.0052,0.077,70,11.474,221,8.5314,1.6163,-12.4132,-0.0291,-0.0254,-0.0027,40
12.038,232,5.7409,1.7372,-17.5786,0.0301,-0.0133,0.0605,70,11.525,222,8.5414,1.5619,-12.4436,-0.0111,-0.0532,-0.0105,40
12.09,233,5.6978,1.7119,-17.5445,0.0174,-0.0092,0.0478,70,11.577,223,8.5088,1.6008,-12.4862,0.0031,-0.0494,-0.0164,40
12.142,234,5.6874,1.6585,-17.5584,0.0082,0.0053,0.0399,70,11.629,224,8.5007,1.5948,-12.5361,0.0097,-0.0258,-0.027,40
12.194,235,5.6956,1.6349,-17.5645,0.0191,0.0148,0.0301,70,11.681,225,8.4886,1.6075,-12.5332,0.0247,-0.0032,-0.041,40
12.245,236,5.5945,1.4947,-17.481,0.0296,0.0372,0.0314,70,11.732,226,8.4641,1.6581,-12.4935,0.032,0.0336,-0.0267,40
12.297,237,5.1806,1.0871,-17.3015,0.192,0.0731,0.0915,70,11.784,227,8.4455,1.7156,-12.4749,0.0417,0.0531,-0.0141,40
12.349,238,5.0575,1.5879,-16.2257,0.1281,0.3237,0.1782,70,11.836,228,8.4637,1.6837,-12.4846,0.0413,0.0565,-0.0017,40
12.401,239,5.3354,1.3936,-15.4027,-0.1946,0.7643,0.2526,70,11.888,229,8.4665,1.6399,-12.4556,0.0289,0.045,0.0047,40
12.453,240,6.0986,1.3026,-15.6091,-0.1577,1.1214,0.3659,70,11.94,230,8.4318,1.7145,-12.4781,0.0177,0.0318,0.0159,40
12.505,241,6.8534,1.0571,-15.3506,0.1794,1.3746,0.461,70,11.991,231,8.4697,1.6595,-12.4133,0.0229,0.0039,0.0139,40
12.556,242,7.5966,0.6169,-15.1318,0.3574,1.6092,0.5089,70,12.043,232,8.5783,1.6511,-12.3994,0.0484,-0.0735,0.0024,40
12.608,243,8.3657,0.2782,-14.9279,0.7258,1.7208,0.5704,70,12.095,233,8.6481,1.5724,-12.3894,0.0774,-0.1143,0.0001,40
12.66,244,8.9668,-0.1164,-14.8427,0.7304,1.777,0.5736,70,12.147,234,8.5716,1.5507,-12.5056,0.072,-0.0892,-0.0038,40
12.712,245,9.8665,-0.8357,-13.6354,0.643,1.4067,0.5822,70,12.199,235,8.5354,1.6085,-12.5228,0.0549,-0.0571,-0.0076,40
12.764,246,9.9203,-1.0029,-13.1334,0.4024,1.1258,0.5238,70,12.25,236,8.4567,1.6752,-12.5873,0.0346,-0.0313,0.0057,40
12.815,247,9.4902,-1.2122,-12.7246,0.2786,0.9047,0.452,70,12.302,237,8.5028,1.6099,-12.5891,0.0135,0.0002,0.0129,40
