right_leg_timestamp,right_leg_index,right_leg_accel_x,right_leg_accel_y,right_leg_accel_z,right_leg_gyro_x,right_leg_gyro_y,right_leg_gyro_z,right_leg_battery_percentage,left_leg_timestamp,left_leg_index,left_leg_accel_x,left_leg_accel_y,left_leg_accel_z,left_leg_gyro_x,left_leg_gyro_y,left_leg_gyro_z,left_leg_battery_percentage
0.309,5,-1.1596,-0.0852,-0.9725,0.77,0.0534,-0.5455,97,0.77,14,-11.7785,2.3799,-8.6409,-0.0818,-0.1509,0.3684,64
0.361,6,-2.6039,1.5545,-2.6604,1.0661,0.7849,-0.7949,97,0.821,15,-10.6657,1.45,-8.0922,-0.2247,-0.6904,0.3654,64
0.412,7,-7.1566,-2.4866,-7.3321,0.6289,0.3051,-0.8497,97,0.873,16,-8.5723,0.3098,-7.7332,0.3664,-0.9746,0.0761,64
0.464,8,-13.1182,0.4795,-10.7418,0.8206,0.2846,-0.4767,97,0.925,17,-12.0995,2.1706,-10.2295,0.0912,-0.0205,0.133,64
0.516,9,-7.3504,-1.645,-11.0555,0.1445,0.4272,-0.8566,97,0.977,18,-14.1495,1.5661,-13.1532,0.3787,0.6959,0.3423,64
0.568,10,-2.6697,1.1653,-6.4398,0.048,0.6896,-0.5454,97,1.028,19,-12.8031,1.6873,-13.1086,0.7471,1.2188,0.3315,64
0.619,11,-2.5692,0.1227,-4.3096,0.1491,-0.0648,-0.442,97,1.08,20,-14.2822,4.1079,-12.1841,0.3959,0.8936,0.3387,64
0.671,12,-3.977,2.0007,-1.4541,0.0094,-0.081,-0.0959,97,1.132,21,-14.4187,2.029,-10.0197,0.146,0.0696,0.2746,64
0.723,13,-5.3016,3.6575,-2.7293,-0.048,0.6869,0.0423,97,1.184,22,-12.4118,1.8517,-8.5077,-0.1569,-0.5883,0.0173,64
0.775,14,-7.1646,4.7715,-7.2559,0.6634,1.1974,-0.4799,97,1.236,23,-9.4236,1.3267,-7.6799,-0.0275,-1.0702,-0.2351,64
0.827,15,-13.124,6.8959,-10.6861,0.172,1.6199,-0.2446,97,1.287,24,-11.4917,2.4081,-10.2363,-0.2355,-0.3519,0.0003,64
0.878,16,-9.7099,4.582,-10.0831,0.1326,1.1224,-0.079,97,1.339,25,-12.7832,2.312,-13.1582,-0.0877,0.454,0.433,64
0.93,17,-4.3917,1.0445,-7.8382,0.2507,1.0337,-0.4964,97,1.391,26,-11.8857,2.1218,-13.3076,0.4768,1.0423,0.628,64
0.982,18,-4.0942,0.1299,-5.503,-0.4703,0.8421,-0.1864,97,1.443,27,-13.6321,4.6177,-13.0378,0.5857,1.265,0.5993,64
1.034,19,-4.457,-0.3387,-1.0485,-0.2071,0.5857,0.0242,97,1.494,28,-14.0992,1.9668,-10.7806,-0.2104,0.7235,0.534,64
1.086,20,-5.0216,1.3108,1.1843,0.011,1.1734,0.1562,97,1.546,29,-12.3275,2.8842,-9.3646,0.1222,0.129,0.6207,64
1.137,21,-6.556,2.9989,-0.4584,0.702,1.6024,-0.0519,97,1.598,30,-9.5813,0.7857,-8.6715,0.1258,-0.5047,0.2933,64
1.189,22,-4.0132,-2.6254,-5.725,0.5037,0.5638,0.2334,97,1.65,31,-7.7201,1.8307,-9.2882,0.3141,-0.6565,0.073,64
1.241,23,-2.5409,-0.8104,-6.8194,0.5606,-0.1943,0.4582,97,1.702,32,-8.5643,1.7644,-12.4662,0.341,0.0036,0.4273,64
1.293,24,-0.0543,-0.1106,-8.1973,0.0269,0.1347,-0.258,97,1.754,33,-7.915,2.2427,-13.6368,0.2137,0.4919,0.5361,64
1.345,25,2.6553,1.3653,-3.3545,-0.3344,0.4191,-0.0521,97,1.805,34,-9.0628,3.2047,-12.966,0.8343,0.8344,0.5483,64
1.396,26,-0.2939,0.3057,-2.7041,-0.4025,-0.1404,0.1344,97,1.857,35,-11.9092,3.8949,-11.5117,0.0019,0.5635,0.4547,64
1.448,27,-1.2972,-0.5172,3.2249,-0.7863,0.5393,0.5344,97,1.909,36,-12.2831,3.0144,-9.3894,0.2551,0.0069,0.4876,64
1.5,28,-2.4811,0.129,-0.0573,-0.2757,1.1396,0.3437,97,1.961,37,-11.0738,2.3143,-8.694,-0.1467,-0.5261,0.301,64
1.552,29,-7.354,2.3942,-5.4323,0.1768,1.5777,-0.2816,97,2.013,38,-8.4081,1.1336,-7.7672,0.109,-0.9923,-0.1473,64
1.604,30,-13.2622,-3.0667,-9.3552,-0.1521,0.9726,-0.1659,97,2.064,39,-7.7386,2.3958,-11.1969,-0.1479,-0.2555,0.0582,64
1.656,31,-9.7048,-2.725,-9.3379,-0.2533,0.5909,-0.3812,97,2.116,40,-8.4905,3.2024,-13.8593,0.088,0.5244,0.4125,64
1.707,32,-4.5234,-1.6048,-6.7473,0.0839,0.6865,-0.5658,97,2.168,41,-8.8104,1.412,-14.6254,-0.3812,1.0936,0.5239,64
1.759,33,-2.2067,-2.8782,-3.2074,-0.5921,0.4685,-0.2599,97,2.22,42,-11.2505,3.0369,-13.2842,-0.1602,1.2457,0.5843,64
1.811,34,-2.0844,-1.1904,1.8109,-0.5175,0.3541,0.2434,97,2.271,43,-13.45,2.0369,-11.3329,-0.4779,0.7908,0.4578,64
1.863,35,-1.3046,0.5349,2.1846,0.2692,1.0044,0.1459,97,2.323,44,-12.4647,2.1599,-9.6198,0.2632,0.2139,0.3194,64
1.914,36,-4.0181,3.2151,-3.1412,0.8949,1.4791,-0.2517,97,2.375,45,-9.4394,1.4329,-8.3812,0.6413,-0.4848,0.1099,64
1.966,37,-0.2376,6.5772,-7.683,1.0137,1.4845,-0.5416,97,2.427,46,-7.8768,2.086,-9.395,0.4372,-0.2616,0.125,64
2.018,38,-0.1499,3.9281,-8.1295,0.683,0.4777,-0.0798,97,2.479,47,-8.6695,2.241,-12.5442,0.3426,0.5079,0.4277,64
2.07,39,2.555,0.3711,-9.1583,0.2371,0.3169,-0.5782,97,2.53,48,-7.4373,0.7908,-13.3618,0.1255,1.0816,0.3265,64
2.122,40,3.1513,1.1173,-4.5549,-0.432,0.4549,-0.1854,97,2.582,49,-9.3968,2.2448,-13.7888,-0.1161,1.4843,0.3543,64
2.173,41,1.4883,0.1322,0.6556,-0.1624,0.0721,-0.1514,97,2.634,50,-11.1609,1.7688,-11.6359,-0.6599,0.9896,0.371,64
2.225,42,-1.1021,-1.4057,2.774,-0.1686,0.7986,0.0133,97,2.686,51,-11.2146,1.9929,-10.1142,0.0044,0.3833,0.417,64
2.277,43,-3.1043,0.6757,0.4688,-0.5815,1.3289,0.1615,97,2.737,52,-9.6284,1.0269,-8.924,0.1105,-0.2966,0.3408,64
2.329,44,-6.2018,-4.3209,-5.0483,0.1904,0.4686,-0.2294,97,2.789,53,-7.4363,1.1742,-8.0572,0.2869,-0.8469,0.2238,64
2.381,45,-12.4213,-6.3117,-9.0749,-0.3187,0.0741,0.3721,97,2.841,54,-7.0157,1.4126,-10.8386,0.2314,-0.4821,0.4833,64
2.433,46,-9.4547,-5.1864,-9.3273,-0.4769,0.0632,-0.0324,97,2.893,55,-5.7901,1.7328,-13.5978,0.2191,0.1441,0.4894,64
2.484,47,-4.2055,-4.3264,-6.8998,-0.0276,0.3763,-0.3508,97,2.944,56,-6.0312,2.1842,-13.9111,0.3848,0.6154,0.3543,64
2.536,48,-1.1092,-4.7625,-2.3449,-0.6734,0.1113,-0.0401,97,2.996,57,-10.0103,3.0009,-13.3815,-0.0656,0.6363,0.2162,64
2.588,49,-1.2907,-2.4255,-2.3003,-0.4521,0.0507,0.4418,97,3.048,58,-11.5205,1.7362,-11.2516,-0.0647,0.1321,0.289,64
2.64,50,-0.7664,0.1422,2.0215,-0.2187,0.783,0.665,97,3.1,59,-10.849,1.7074,-10.0663,0.1256,-0.4619,0.2268,64
2.691,51,-5.2102,1.8444,-0.7041,0.5388,1.3175,-0.1069,97,3.152,60,-7.9045,1.6429,-8.8045,0.2007,-0.978,-0.0094,64
2.743,52,-1.1076,7.1144,-1.5611,-0.077,0.3558,-0.4359,97,3.203,61,-4.5259,2.0901,-8.9119,0.4893,-0.9658,0.0046,64
2.795,53,-1.2622,4.7705,-3.1895,-0.0994,-0.3461,-0.0182,97,3.255,62,-5.1139,2.4908,-12.1916,0.4125,-0.1193,0.2465,64
2.847,54,0.6662,1.0145,-4.5372,-0.4181,-0.4937,-0.4928,97,3.307,63,-5.0339,2.6396,-13.0517,-0.0081,0.5944,0.2024,64
2.899,55,3.1812,2.1697,-0.4986,-0.7946,-0.1173,-0.1945,97,3.359,64,-7.1052,3.5447,-12.1069,0.5956,1.1149,0.3763,64
2.951,56,1.0836,1.0204,1.5075,-0.8341,-0.4934,-0.0688,97,3.411,65,-11.7656,4.1527,-11.3203,0.0721,1.1229,0.4464,64
3.002,57,-1.1116,0.0885,5.7524,-0.7101,0.3513,0.1684,97,3.462,66,-11.5005,3.0425,-9.3968,0.495,0.5219,0.6423,64
3.054,58,-3.4868,0.4928,1.4872,-0.4437,1.0024,0.0812,97,3.514,67,-9.4644,2.4461,-8.4799,0.5404,-0.0711,0.5696,64
3.106,59,-8.8432,0.0365,-4.305,0.0324,1.0629,-0.2563,97,3.566,68,-7.1034,1.6712,-7.4505,0.6349,-0.6064,0.3327,64
3.158,60,-7.3891,5.8015,-3.4255,0.6879,1.1773,-0.3788,97,3.618,69,-7.3397,2.2058,-9.9861,0.0437,-0.0968,0.4529,64
3.21,61,-6.0903,3.9168,-5.2167,0.4954,0.3692,-0.1678,97,3.67,70,-6.4039,2.1943,-12.9756,0.6393,0.6301,0.5478,64
3.261,62,-2.0499,2.7417,-7.7643,0.0745,1.0155,-0.7543,97,3.721,71,-5.2545,1.0897,-14.5786,0.285,1.1708,0.453,64
3.313,63,1.1663,2.6813,-3.1859,-0.2515,1.0049,-0.3516,97,3.773,72,-8.1821,2.1344,-14.2717,-0.0005,1.3951,0.4327,64
3.365,64,-0.0263,1.7743,-0.2821,-0.1846,0.3831,-0.1942,97,3.825,73,-10.374,0.921,-12.4719,0.1614,0.9576,0.4491,64
3.417,65,-1.6374,1.5424,3.4225,-0.5617,1.0256,0.2299,97,3.877,74,-11.0188,1.2431,-10.5015,0.2805,0.4056,0.5151,64
3.469,66,-4.6809,1.3064,-1.5854,0.1163,1.4945,0.0967,97,3.928,75,-8.0192,0.5514,-9.3447,-0.1277,-0.313,0.3468,64
3.52,67,-8.9886,-3.8606,-6.5476,0.6936,0.8229,-0.6065,97,3.98,76,-4.4452,1.062,-9.0508,0.2761,-0.8693,0.0587,64
3.572,68,-3.8653,-5.2328,-7.538,0.4726,-0.0051,0.1798,97,4.032,77,-4.966,1.8119,-12.293,0.0817,-0.704,0.2558,64
3.624,69,-2.9695,-4.2856,-8.1371,0.152,0.3166,-0.0385,97,4.084,78,-3.9832,2.6967,-14.3682,0.0079,-0.4581,0.2912,64
3.676,70,0.5277,-1.93,-4.5981,0.2474,0.6062,-0.1298,97,4.136,79,-5.5106,2.2945,-14.0488,0.6395,-0.0443,0.3109,64
3.728,71,0.8575,-2.379,-3.2592,-0.4728,0.1487,0.1048,97,4.187,80,-10.8961,2.8671,-12.7863,0.4702,-0.1404,0.3537,64
3.779,72,-0.4594,-1.518,2.8198,-0.8138,0.4427,0.3826,97,4.239,81,-11.5875,2.1341,-9.9648,0.4508,-0.7433,0.3643,64
3.831,73,-0.2809,1.974,1.125,-0.8112,1.0691,0.3878,97,4.291,82,-10.0188,1.8549,-9.3851,0.3796,-1.1834,0.2449,64
3.883,74,-4.9153,4.6987,-4.5694,0.0311,1.5263,-0.186,97,4.343,83,-6.8488,1.6978,-8.1918,0.4289,-1.5045,-0.0589,64
3.935,75,-0.8924,3.6473,-8.7254,-0.5008,0.5082,-0.4937,97,4.394,84,-6.5786,1.8203,-9.2249,0.6413,-0.9915,0.2231,64
3.987,76,-0.5904,1.8946,-8.9885,-0.3404,-0.1307,0.0259,97,4.446,85,-9.0324,1.9972,-12.42,0.5525,-0.0127,0.5344,64
4.038,77,2.264,-2.3407,-8.7307,-0.8812,-0.2048,-0.3735,97,4.498,86,-9.381,0.781,-14.752,0.3077,0.7016,0.4172,64
4.09,78,1.2105,-1.7594,-4.9336,-1.2964,-0.1078,-0.001,97,4.55,87,-13.04,1.1949,-14.5015,-0.0095,0.7353,0.3472,64
4.142,79,0.4915,-1.2716,-1.7243,-1.0571,-0.4173,0.3449,97,4.602,88,-15.2066,0.7608,-11.8277,-0.3606,0.1387,0.3851,64
4.194,80,-0.573,0.5674,3.1496,-0.2902,0.4414,0.5309,97,4.654,89,-13.9729,0.7466,-9.841,0.0362,-0.4762,0.3472,64
4.246,81,-3.7055,0.3665,-1.6277,0.4867,1.0682,-0.0282,97,4.705,90,-10.9964,0.8634,-8.5294,0.0446,-0.9884,0.163,64
4.297,82,-5.2773,-4.5466,-6.5784,0.9245,0.2134,-0.2771,97,4.757,91,-7.1854,0.774,-8.383,0.2681,-1.2195,-0.0857,64
4.349,83,-1.1566,-5.6061,-6.8575,0.4985,-0.4212,0.3916,97,4.809,92,-8.6907,1.113,-11.0827,0.2292,-0.3586,0.3071,64
4.401,84,-0.546,-5.0369,-7.8601,0.1118,-0.0675,-0.1839,97,4.861,93,-9.6358,1.0885,-13.2525,0.3043,0.4492,0.4192,64
4.453,85,2.2964,-3.1579,-4.968,0.188,0.3349,-0.2577,97,4.913,94,-9.3873,1.0912,-14.124,0.6702,1.0387,0.4157,64
4.505,86,0.0069,-3.2566,-3.4238,0.0834,0.1071,-0.2653,97,4.964,95,-12.2811,2.2807,-12.5264,0.7407,1.1419,0.5037,64
4.556,87,-0.5147,-2.7112,2.6996,-0.3705,0.7402,0.1941,97,5.016,96,-13.174,2.3831,-11.0487,0.2965,0.6753,0.6436,64
4.608,88,-0.6954,-0.9418,1.7956,-0.539,1.2863,0.3232,97,5.068,97,-11.7117,1.4319,-9.9021,0.2231,0.0383,0.58,64
4.66,89,-4.8731,2.408,-4.0799,0.3051,1.6848,-0.3226,97,5.12,98,-9.3082,1.3569,-8.7798,0.1769,-0.6129,0.2611,64
4.712,90,-0.8616,7.5323,-7.4126,0.8992,1.6377,-0.8194,97,5.171,99,-7.4395,2.0676,-10.5155,-0.0433,-0.2839,0.3057,64
4.764,91,-0.6365,5.0124,-7.8699,0.6594,0.8637,-0.5386,97,5.223,100,-8.8336,2.5568,-13.3619,0.1971,0.5037,0.4759,64
4.815,92,2.2304,1.0863,-7.9048,0.4325,0.7037,-0.7596,97,5.275,101,-8.3347,1.6021,-14.0308,0.0877,1.0776,0.2592,64
4.867,93,2.3848,0.5968,-4.2857,-0.3377,0.4767,-0.2158,97,5.327,102,-11.3316,3.1803,-13.5082,0.2463,1.4394,0.072,64
4.919,94,0.5334,1.963,-0.0817,-0.0391,0.2318,-0.0545,97,5.379,103,-12.6916,2.4598,-11.653,-0.4581,0.9825,0.1038,64
4.971,95,-0.8944,2.5081,3.2511,0.0218,0.9152,0.1169,97,5.43,104,-12.4789,2.3522,-9.9292,0.0512,0.3324,0.3268,64
5.023,96,-2.9421,2.2002,-0.3026,0.3514,1.4139,0.0513,97,5.482,105,-10.8061,1.2086,-8.9469,-0.043,-0.3778,0.2808,64
5.074,97,-1.4229,-3.2083,-5.6113,-0.225,0.4262,0.388,97,5.534,106,-7.332,1.5948,-8.6504,0.1604,-0.8949,0.1376,64
5.126,98,1.3171,-1.9298,-6.6824,-0.1737,-0.2947,0.6685,97,5.586,107,-6.1754,1.8645,-11.6995,0.0841,-0.3567,0.4992,64
5.178,99,0.8442,-2.1547,-7.3203,-0.2143,0.2892,0.1508,97,5.638,108,-5.5418,1.8808,-14.2191,0.1358,0.2698,0.5694,64
5.23,100,3.3111,-2.1163,-5.1982,0.0308,0.6222,-0.1247,97,5.689,109,-7.2562,1.3226,-14.32,0.2436,0.7697,0.5237,64
5.282,101,0.7732,-3.4054,-3.101,-0.4258,0.2064,0.0097,97,5.741,110,-10.3309,1.858,-12.7525,-0.2342,0.6906,0.4909,64
5.333,102,0.0093,-3.0126,1.3767,-0.3749,0.2317,0.3706,97,5.793,111,-11.2012,1.4474,-10.1937,-0.0556,0.3658,0.5379,64
5.385,103,-1.1179,0.0083,0.8417,0.0149,0.9151,0.3227,97,5.845,112,-10.4795,1.2432,-9.1934,0.1489,-0.008,0.4419,64
5.437,104,-2.8047,2.6945,-2.8242,0.7093,1.4139,-0.2197,97,5.897,113,-8.2556,0.9309,-8.472,0.2185,-0.6052,0.1879,64
5.489,105,-6.1179,7.7414,-1.9138,1.2161,1.5731,-0.0506,97,5.949,114,-7.6943,1.2066,-10.9579,0.0203,-0.3419,0.2496,64
5.541,106,-4.6733,4.3021,-4.0684,0.8439,0.6215,0.2609,97,6.0,115,-8.8221,1.6263,-13.6849,-0.0336,0.3047,0.3874,64
5.593,107,-0.7159,-0.5531,-5.2117,0.3196,0.4629,-0.1155,97,6.052,116,-8.438,1.8362,-14.8284,0.0834,0.8557,0.3624,64
5.644,108,2.1725,0.0961,0.3053,-0.4201,0.151,0.4806,97,6.104,117,-11.5814,2.5774,-14.3321,0.2572,0.8062,0.2528,64
5.696,109,1.0768,1.5457,4.0005,-0.0123,0.1839,0.4568,97,6.156,118,-13.3952,1.6261,-11.668,0.0444,0.1055,0.2544,64
5.748,110,0.8128,4.0123,4.7141,-0.148,0.8802,0.5208,97,6.208,119,-12.5302,1.3799,-9.6992,0.2973,-0.5639,0.325,64
5.8,111,-2.8977,3.2588,-0.6069,0.5904,1.3884,-0.0397,97,6.26,120,-10.1043,0.9468,-8.5041,0.3601,-1.0524,0.2403,64
5.852,112,0.5801,3.1995,4.7555,0.1155,0.4076,0.4825,97,6.311,121,-6.5721,1.4254,-9.204,0.4952,-1.4089,0.1586,64
5.904,113,3.1183,-2.479,3.3268,-0.3393,-0.3083,0.8748,97,6.363,122,-6.9416,1.4212,-10.9386,0.2721,-0.3474,0.6497,64
5.956,114,4.4702,-2.896,0.7481,-0.1779,-0.1388,0.2558,97,6.415,123,-7.8528,2.9478,-13.3602,0.0427,0.4573,0.6006,64
6.007,115,5.9575,-1.73,3.337,-0.6694,0.0124,0.3629,97,6.467,124,-8.8263,2.7296,-14.5315,0.1936,0.8387,0.7438,64
6.059,116,5.0027,-0.9928,7.1168,-0.3263,-0.2961,0.2881,97,6.518,125,-11.9864,2.6613,-12.5889,-0.3053,0.3803,0.6351,64
6.111,117,3.1228,-1.1444,10.3927,-0.6481,0.4593,0.6326,97,6.57,126,-12.7913,1.9473,-10.0658,0.3482,-0.319,0.5021,64
6.163,118,-0.1603,-1.1897,4.427,-0.4016,1.0812,0.4618,97,6.622,127,-10.7384,1.8424,-7.994,0.1477,-0.8602,0.3471,64
6.215,119,-5.5583,-4.2156,0.6542,0.3413,0.5837,-0.2443,97,6.674,128,-7.4852,0.9046,-7.842,0.6567,-1.0831,0.1962,64
6.266,120,-9.3774,-7.8908,-4.4655,-0.4042,0.1464,-0.1119,97,6.726,129,-7.6658,0.4473,-10.2072,0.2343,-0.0796,0.5565,64
6.318,121,-6.0764,-6.7068,-5.5384,-0.3954,0.0539,-0.408,97,6.777,130,-7.9166,1.4705,-13.137,0.2611,0.6528,0.7677,64
6.37,122,-2.4847,-4.1656,-3.3305,-0.5572,0.449,-0.4174,97,6.829,131,-6.6351,1.3063,-15.2752,-0.4398,1.1873,0.882,64
6.422,123,-3.4666,-4.0876,-3.129,-0.3764,0.3336,-0.4331,97,6.881,132,-9.5038,2.9581,-15.4608,-0.2428,1.2886,1.0195,64
6.474,124,-5.0409,-2.8318,-0.1443,-0.7851,0.9426,0.085,97,6.933,133,-11.0151,2.4591,-12.4996,0.2939,0.461,1.0789,64
6.525,125,-6.2209,-0.7972,-1.4877,-1.1657,1.4339,0.3976,97,6.984,134,-9.8046,1.478,-9.3569,0.4237,-0.2025,1.0522,64
6.577,126,-1.8453,3.2649,-3.9149,-0.6611,0.4408,0.3827,97,7.036,135,-10.2039,1.0085,-8.1988,-0.1737,-0.2298,1.092,64
6.629,127,-0.0632,1.6943,-5.1539,-0.7405,0.3987,0.3339,97,7.088,136,-9.2089,1.4129,-7.5112,-0.2549,0.4655,1.544,64
