right_leg_timestamp,right_leg_index,right_leg_accel_x,right_leg_accel_y,right_leg_accel_z,right_leg_gyro_x,right_leg_gyro_y,right_leg_gyro_z,right_leg_battery_percentage
0.21,4,9.7626,-0.277,-10.3294,-0.213,-0.2609,-0.1978,75
0.262,5,11.0033,-0.4357,-12.4997,-0.1473,-0.7406,-0.3166,75
0.313,6,11.1981,0.0186,-13.0031,-0.3607,-1.1658,-0.3397,75
0.365,7,10.6528,0.2277,-13.2036,-0.7207,-1.3662,-0.4022,75
0.417,8,9.7616,0.6718,-13.2838,-0.7025,-1.515,-0.4962,75
0.469,9,9.0772,1.1331,-13.3844,-0.5217,-1.5527,-0.5519,75
0.52,10,8.3498,1.2643,-13.4947,-0.3528,-1.4591,-0.5767,75
0.572,11,7.8057,1.4355,-14.0136,-0.2537,-1.2439,-0.5139,75
0.624,12,7.7142,1.8121,-14.4306,-0.2187,-1.0574,-0.4459,75
0.676,13,7.4845,2.1027,-14.7408,-0.232,-0.8903,-0.3643,75
0.728,14,7.3388,2.3537,-14.9597,-0.2161,-0.7151,-0.2708,75
0.779,15,6.9384,2.4663,-15.1811,-0.2012,-0.5592,-0.1879,75
0.831,16,6.6604,2.4527,-15.5974,-0.2145,-0.4286,-0.1365,75
0.883,17,6.3909,2.4212,-15.8512,-0.2248,-0.3013,-0.0905,75
0.935,18,6.337,2.4707,-16.2442,-0.1966,-0.2123,-0.0325,75
0.986,19,6.4086,2.5872,-16.3522,-0.0386,-0.1713,-0.044,75
1.038,20,6.4285,2.6172,-16.5673,0.0448,-0.1585,-0.038,75
1.09,21,6.2372,2.6592,-16.6841,0.1704,-0.1205,-0.0913,75
1.142,22,6.0144,2.7506,-16.7793,0.2247,-0.095,-0.1763,75
1.193,23,6.014,2.7781,-16.836,0.242,-0.0984,-0.2483,75
1.245,24,6.1652,2.9087,-16.8204,0.2309,-0.1068,-0.2859,75
1.297,25,6.2231,2.9554,-16.8555,0.2185,-0.0846,-0.3072,75
1.349,26,6.1656,3.0719,-16.8569,0.2106,-0.0559,-0.309,75
1.401,27,6.0871,3.0884,-16.8967,0.1522,-0.0428,-0.2931,75
1.453,28,6.0486,3.0366,-16.8346,0.0888,-0.0283,-0.2528,75
1.505,29,6.1091,3.0119,-16.7872,0.0525,-0.0,-0.2029,75
1.556,30,6.1115,2.9895,-16.7568,0.0352,0.0434,-0.1215,75
1.608,31,6.1111,3.0875,-16.7724,0.0213,0.0845,-0.0363,75
1.66,32,5.9908,3.0952,-16.8903,0.0101,0.1069,0.0132,75
1.711,33,5.8106,2.9905,-16.9656,-0.024,0.0987,0.0321,75
1.763,34,5.7512,2.8724,-16.9881,-0.0737,0.0853,0.0624,75
1.815,35,5.9101,2.8772,-17.0164,-0.0185,0.0718,0.0853,75
1.867,36,5.9844,3.0074,-17.006,0.0253,0.074,0.0712,75
1.919,37,5.9714,3.0161,-16.9605,0.0098,0.0481,0.0605,75
1.97,38,6.0047,2.8224,-16.971,-0.0408,0.0265,0.0659,75
2.022,39,6.1198,2.8276,-16.9068,-0.0452,0.014,0.0791,75
2.074,40,6.2475,2.9526,-16.8656,-0.0288,-0.005,0.1108,75
2.126,41,6.4821,3.262,-16.7203,-0.059,-0.0078,0.1291,75
2.178,42,6.651,3.5192,-16.579,-0.1104,0.0073,0.1111,75
2.229,43,6.6061,3.5755,-16.5305,-0.1544,0.0185,0.0741,75
2.281,44,6.3159,3.5108,-16.7068,-0.2291,0.0064,0.0261,75
2.333,45,6.0289,3.2657,-16.831,-0.2606,0.0057,-0.0296,75
2.385,46,5.9377,3.1342,-16.855,-0.2216,0.0007,-0.0758,75
2.437,47,6.0375,3.1339,-16.9595,-0.1977,-0.0063,-0.0988,75
2.488,48,6.0985,3.1165,-16.8942,-0.0963,-0.0278,-0.1178,75
2.54,49,6.1122,3.1265,-16.9237,-0.0236,-0.0557,-0.1246,75
2.592,50,6.0331,3.289,-16.8387,-0.0388,-0.0819,-0.1023,75
2.644,51,5.9822,3.3999,-16.7454,-0.0376,-0.1188,-0.0722,75
2.695,52,5.9633,3.5664,-16.6633,-0.0782,-0.1287,-0.0479,75
2.747,53,6.0127,3.6859,-16.5668,-0.1043,-0.1307,-0.0287,75
2.799,54,6.1129,3.7636,-16.4662,-0.1304,-0.1203,0.0002,75
2.851,55,6.1422,3.919,-16.3867,-0.1645,-0.072,0.0584,75
2.903,56,6.1085,3.9858,-16.3785,-0.1821,-0.0167,0.1141,75
2.955,57,6.0453,4.0495,-16.4731,-0.1813,0.0287,0.1244,75
3.006,58,5.9832,4.013,-16.6192,-0.2063,0.0573,0.0991,75
3.058,59,5.9115,3.928,-16.6859,-0.153,0.0748,0.0574,75
3.11,60,5.9335,3.96,-16.5183,-0.0871,0.1024,0.0026,75
3.162,61,6.0344,3.9076,-16.5,-0.0854,0.1186,-0.0045,75
3.214,62,6.0985,3.795,-16.5515,-0.0456,0.1267,-0.0082,75
3.265,63,6.077,3.8317,-16.5245,-0.0327,0.1099,-0.0071,75
3.317,64,6.0622,3.7231,-16.4285,-0.0428,0.0825,0.0105,75
3.369,65,6.0787,3.6736,-16.3908,-0.0519,0.0556,0.0295,75
3.421,66,6.0926,3.5605,-16.4241,-0.0321,0.0385,0.0517,75
3.472,67,6.0481,3.3831,-16.6111,0.0173,0.0131,0.0592,75
3.524,68,6.0686,3.2642,-16.7007,0.162,-0.0247,0.0241,75
3.576,69,6.0406,3.3643,-16.5763,0.2312,-0.0485,-0.0044,75
3.628,70,6.1305,3.5438,-16.4833,0.23,-0.066,0.0404,75
3.68,71,6.2824,3.7328,-16.4424,0.1832,-0.0576,0.0938,75
3.732,72,6.2988,3.9709,-16.428,0.1099,-0.0517,0.1038,75
3.783,73,6.3173,3.8934,-16.5058,0.0348,-0.0469,0.083,75
3.835,74,6.3212,3.7967,-16.4501,-0.0266,-0.0461,0.07,75
3.887,75,6.3154,3.6948,-16.4752,-0.0829,-0.0418,0.0602,75
3.939,76,6.2673,3.5532,-16.4758,-0.0134,-0.0297,0.0321,75
3.99,77,6.1878,3.4956,-16.4939,0.0149,-0.0112,-0.005,75
4.042,78,6.1402,3.43,-16.5437,0.0419,0.012,-0.0384,75
4.094,79,6.1733,3.4854,-16.6423,0.0682,0.0226,-0.0564,75
4.146,80,6.2258,3.6145,-16.7666,0.0647,0.011,-0.0633,75
4.198,81,6.3668,3.7137,-16.7749,0.0583,-0.0244,-0.0822,75
4.249,82,6.3004,3.6325,-16.6432,0.0756,-0.0402,-0.1213,75
4.301,83,6.0596,3.483,-16.5342,0.0849,-0.0452,-0.1495,75
4.353,84,5.7953,3.3773,-16.4729,0.0188,-0.0221,-0.1295,75
4.405,85,5.7435,3.2963,-16.4825,-0.0017,0.0059,-0.0631,75
4.457,86,5.9764,3.3622,-16.7114,-0.0271,0.0268,0.0126,75
4.509,87,6.0875,3.5267,-16.8857,0.0336,0.0279,0.0382,75
4.56,88,6.1517,3.686,-16.8482,0.0262,-0.008,0.036,75
4.612,89,6.2323,3.7136,-16.7194,0.0001,-0.0273,0.0103,75
4.664,90,6.2051,3.7082,-16.4626,-0.0416,-0.0168,0.001,75
4.716,91,6.1973,3.6727,-16.3223,-0.0781,0.0258,0.0094,75
4.768,92,6.231,3.6735,-16.4007,-0.0373,0.0838,0.0027,75
4.819,93,6.2042,3.7311,-16.554,-0.0256,0.1127,-0.0196,75
4.871,94,6.1453,3.7499,-16.5536,-0.0529,0.1047,-0.017,75
4.923,95,6.2451,3.856,-16.4417,-0.1332,0.0782,0.0134,75
4.975,96,6.3029,3.8259,-16.3768,-0.1612,0.0738,0.0393,75
5.026,97,6.3006,3.89,-16.3479,-0.1492,0.0825,0.039,75
5.078,98,6.1458,3.7975,-16.3699,-0.1397,0.0771,-0.0101,75
5.13,99,5.9787,3.6547,-16.3958,-0.1096,0.0769,-0.0501,75
5.182,100,5.9627,3.6828,-16.3852,-0.059,0.0621,-0.0491,75
5.234,101,6.1332,3.6707,-16.5149,-0.0512,0.0436,-0.0404,75
5.285,102,6.2582,3.7483,-16.5403,0.0037,0.0206,-0.037,75
5.337,103,6.322,3.8498,-16.5559,-0.0085,-0.0293,-0.0086,75
5.389,104,6.3661,3.8605,-16.496,0.006,-0.0627,-0.0266,75
5.441,105,6.2647,3.9249,-16.3274,0.0182,-0.0804,-0.0498,75
5.493,106,6.1903,3.9182,-16.2617,0.0055,-0.0711,-0.065,75
5.544,107,6.2186,3.9937,-16.2142,-0.0049,-0.046,-0.0748,75
5.596,108,6.185,4.0309,-16.0946,0.0349,-0.0217,-0.0802,75
5.648,109,6.217,4.0605,-16.1574,0.0621,0.0104,-0.0723,75
5.7,110,6.2203,4.0632,-16.1603,0.0228,0.0339,-0.0592,75
5.752,111,6.149,3.9882,-16.0675,-0.0334,0.0549,-0.0205,75
5.804,112,6.1445,3.9705,-16.0893,-0.0232,0.0773,0.0057,75
5.855,113,6.2111,3.9684,-16.1663,-0.0212,0.0857,0.0168,75
5.907,114,6.2465,3.9444,-16.3017,-0.0255,0.087,0.0253,75
5.959,115,6.3199,3.9705,-16.3221,0.0033,0.0759,0.0189,75
6.011,116,6.3357,3.9844,-16.3902,0.047,0.0573,-0.0108,75
6.062,117,6.2744,4.0054,-16.4218,0.0761,0.0292,-0.0315,75
6.114,118,6.1806,3.9984,-16.3668,0.0713,0.0005,-0.0523,75
6.166,119,6.1687,4.0261,-16.3457,0.0764,-0.019,-0.0489,75
6.218,120,6.2509,4.1379,-16.3805,0.068,-0.0463,-0.0233,75
6.27,121,6.3268,4.1724,-16.4108,0.0437,-0.0717,-0.0121,75
6.321,122,6.2772,4.1431,-16.3943,0.031,-0.0954,-0.0343,75
6.373,123,6.1036,4.0316,-16.2343,0.0301,-0.1032,-0.0675,75
6.425,124,5.9372,3.8876,-16.1797,-0.0357,-0.0842,-0.0571,75
6.477,125,5.9686,3.8905,-16.1686,-0.0304,-0.0453,-0.0221,75
6.529,126,6.103,4.0391,-16.2982,0.0288,-0.0234,0.0047,75
6.58,127,6.2342,4.0716,-16.4647,0.0223,-0.0139,0.0192,75
6.632,128,6.1936,4.0829,-16.551,0.0525,-0.0228,-0.0119,75
6.684,129,6.0043,4.0723,-16.5154,0.0857,-0.0382,-0.0596,75
6.736,130,5.8458,4.048,-16.5104,0.0945,-0.0441,-0.081,75
6.788,131,5.8647,4.0804,-16.5752,0.0747,-0.0534,-0.064,75
6.839,132,6.0417,4.0872,-16.6696,0.0112,-0.0795,-0.015,75
6.891,133,6.0409,4.0341,-16.6427,-0.024,-0.1034,0.0186,75
6.943,134,5.8356,3.868,-16.5049,-0.0377,-0.1063,0.0303,75
6.995,135,5.7193,3.7941,-16.4039,-0.0303,-0.083,0.02,75
7.047,136,5.7512,3.8353,-16.5308,-0.0151,-0.0648,-0.0091,75
7.098,137,5.7952,3.9153,-16.6725,0.0067,-0.0451,-0.0148,75
7.15,138,5.8342,4.0205,-16.7585,-0.0073,-0.0422,0.0169,75
7.202,139,5.8648,4.1168,-16.8012,-0.0401,-0.0586,0.0368,75
7.254,140,5.8288,4.1427,-16.76,-0.0225,-0.0697,0.0232,75
7.306,141,5.7807,4.1534,-16.6578,0.0058,-0.0826,-0.0108,75
7.358,142,5.7421,4.1171,-16.6515,-0.0076,-0.0808,-0.0463,75
7.409,143,5.6757,4.1303,-16.7833,-0.0079,-0.0682,-0.0678,75
7.461,144,5.5932,4.145,-16.9258,0.0349,-0.0781,-0.0864,75
7.513,145,5.5217,4.0906,-16.9307,0.0284,-0.1114,-0.0964,75
7.565,146,5.4017,4.0328,-16.9539,0.0023,-0.1235,-0.0874,75
7.616,147,5.3053,4.0111,-16.8909,-0.03,-0.126,-0.0418,75
7.668,148,5.3028,4.0598,-16.887,-0.0234,-0.1098,-0.005,75
7.72,149,5.1901,4.1042,-16.8955,-0.0032,-0.092,0.0226,75
7.772,150,5.2,4.1027,-16.9731,0.0131,-0.0711,0.0409,75
7.824,151,5.252,4.1424,-17.0773,0.0132,-0.0626,0.0535,75
7.875,152,5.2857,4.1587,-17.178,-0.0055,-0.0737,0.058,75
7.927,153,5.347,4.1749,-17.2607,-0.008,-0.113,0.0331,75
7.979,154,5.3114,4.1055,-17.2867,-0.0064,-0.1539,0.0088,75
8.031,155,5.1578,4.0475,-17.2494,0.0169,-0.178,-0.0063,75
8.083,156,5.0466,4.0106,-17.2506,0.0279,-0.1835,-0.0162,75
8.134,157,4.9068,3.9588,-17.2391,0.0178,-0.1792,-0.0183,75
8.186,158,4.8145,3.973,-17.1299,0.033,-0.1756,-0.0108,75
8.238,159,4.8748,3.9859,-17.1034,0.0213,-0.1507,0.0193,75
8.29,160,4.9477,4.0826,-17.0923,-0.0193,-0.1101,0.0642,75
8.342,161,5.0536,4.1325,-17.1933,-0.0565,-0.0794,0.0883,75
8.393,162,5.0228,4.0832,-17.3105,-0.0661,-0.0527,0.0927,75
8.445,163,4.9185,4.0099,-17.3619,-0.071,-0.0366,0.0895,75
8.497,164,4.8332,3.9495,-17.3592,-0.0579,-0.0269,0.0872,75
8.549,165,4.7747,4.0166,-17.3155,-0.0325,-0.0197,0.0878,75
8.601,166,4.7911,4.1383,-17.3513,-0.0211,-0.0039,0.0821,75
8.652,167,4.8579,4.2723,-17.4119,-0.0284,0.0049,0.0685,75
8.704,168,4.884,4.3257,-17.3543,-0.0732,0.0023,0.0528,75
8.756,169,4.8833,4.3116,-17.2752,-0.0684,-0.0008,0.0293,75
8.808,170,4.8232,4.2585,-17.2462,-0.0414,0.004,0.0041,75
8.859,171,4.7788,4.1883,-17.2981,-0.035,0.0047,-0.0266,75
8.911,172,4.837,4.1405,-17.4172,-0.0248,0.0024,-0.0712,75
8.963,173,4.8972,4.1198,-17.3978,0.0256,0.0074,-0.1095,75
9.015,174,4.9178,4.1578,-17.321,0.0554,0.0125,-0.1181,75
9.067,175,4.8957,4.184,-17.2521,0.0519,0.0243,-0.1094,75
9.118,176,4.8127,4.1832,-17.264,0.0628,0.042,-0.1086,75
9.17,177,4.7212,4.1794,-17.3621,0.0811,0.0448,-0.1233,75
9.222,178,4.5944,4.1302,-17.4509,0.1001,0.037,-0.155,75
9.274,179,4.4725,4.1076,-17.481,0.1155,0.026,-0.1723,75
9.326,180,4.4859,4.1273,-17.5673,0.1308,0.0106,-0.1893,75
9.377,181,4.3988,4.1216,-17.5303,0.1168,-0.0206,-0.186,75
9.429,182,4.366,4.0819,-17.5157,0.0548,-0.037,-0.1416,75
9.481,183,4.4477,4.1312,-17.5395,0.0334,-0.0472,-0.0759,75
9.533,184,4.5596,4.2216,-17.5148,0.0249,-0.0627,-0.0348,75
9.584,185,4.5467,4.1942,-17.5107,0.0207,-0.0686,-0.0171,75
9.636,186,4.4757,4.1564,-17.5096,0.0094,-0.0737,-0.001,75
9.688,187,4.4082,4.0864,-17.5035,-0.0238,-0.0732,0.0133,75
9.74,188,4.3339,4.0596,-17.5388,-0.0356,-0.0673,0.0415,75
9.792,189,4.4542,4.1705,-17.6042,-0.0762,-0.0692,0.0693,75
9.843,190,4.5291,4.2896,-17.6307,-0.1009,-0.0727,0.0725,75
9.895,191,4.4698,4.3433,-17.5337,-0.0448,-0.0807,0.0611,75
9.947,192,4.3865,4.3431,-17.4783,-0.0413,-0.0749,0.0587,75
9.999,193,4.3285,4.2861,-17.4811,-0.058,-0.0547,0.0548,75
10.051,194,4.3567,4.2828,-17.5785,-0.0398,-0.0385,0.045,75
10.103,195,4.3666,4.2778,-17.6244,-0.0172,-0.0444,0.0353,75
10.154,196,4.3538,4.2284,-17.6646,-0.0331,-0.0551,0.0359,75
10.206,197,4.3189,4.1865,-17.5809,-0.0154,-0.0592,0.0266,75
10.258,198,4.319,4.1776,-17.5083,0.0258,-0.047,0.0231,75
10.31,199,4.3507,4.2346,-17.4901,0.0308,-0.029,0.0298,75
10.362,200,4.3219,4.2185,-17.4686,0.0039,-0.0118,0.0345,75
10.413,201,4.2353,4.1286,-17.4818,0.0056,0.02,0.0313,75
10.465,202,4.2384,4.1665,-17.5791,0.0394,0.0435,0.0224,75
10.517,203,4.3364,4.2818,-17.6059,0.0642,0.0425,0.0034,75
10.569,204,4.4612,4.3685,-17.5676,0.0582,0.04,-0.0026,75
10.62,205,4.5237,4.4137,-17.5701,0.0531,0.0436,-0.0154,75
10.672,206,4.4495,4.3551,-17.6115,0.0557,0.0502,-0.0508,75
10.724,207,4.3185,4.2006,-17.6423,0.0443,0.0512,-0.0779,75
10.776,208,4.234,4.058,-17.6684,0.0449,0.051,-0.07,75
10.828,209,4.2423,4.0132,-17.7107,0.0362,0.0375,-0.0373,75
10.879,210,4.2697,4.0005,-17.8164,0.0149,0.0217,0.0023,75
10.931,211,4.2968,4.0249,-17.8764,0.0002,-0.0079,0.0237,75
10.983,212,4.2806,4.1322,-17.742,0.019,-0.0562,0.0275,75
11.035,213,4.4397,4.276,-17.4724,0.007,-0.0859,0.0399,75
11.087,214,4.6893,4.4045,-17.2014,-0.0539,-0.0532,0.088,75
11.138,215,4.8647,4.4657,-17.1836,-0.1,0.0149,0.1471,75
11.19,216,4.7505,4.3339,-17.436,-0.0953,0.0687,0.1438,75
11.242,217,4.5304,4.209,-17.5238,-0.0709,0.0838,0.0742,75
11.294,218,4.2871,3.9574,-17.5549,-0.0412,0.0921,-0.0057,75
11.346,219,4.2997,3.7936,-17.4753,0.0328,0.1054,-0.0363,75
11.397,220,4.5574,3.4667,-17.4989,0.0587,0.1983,-0.0034,75
11.449,221,4.7452,3.1817,-16.2943,0.1464,0.3752,0.1002,75
11.501,222,4.6813,2.9856,-15.0529,0.3164,0.7013,0.2658,75
11.553,223,5.298,2.7177,-14.0805,0.2735,1.1902,0.5105,75
11.605,224,6.4833,2.2583,-13.7228,0.3551,1.547,0.7291,75
11.656,225,8.13,1.8689,-14.1983,0.7336,1.8074,0.8881,75
11.708,226,10.0686,1.37,-15.0983,1.1749,1.9975,0.9547,75
11.76,227,10.3078,4.0524,-19.0243,1.122,1.7092,0.6281,75
11.812,228,9.0573,3.8112,-16.1792,0.6843,1.4264,0.4959,75
11.864,229,8.7238,2.7373,-14.8965,0.5626,1.1167,0.3639,75
11.915,230,8.9665,1.8285,-13.812,0.4819,0.8309,0.2718,75
11.967,231,9.1817,1.3587,-13.0381,0.4766,0.6186,0.1921,75
12.019,232,9.3432,1.1736,-12.451,0.3613,0.4819,0.1634,75
12.07,233,9.4372,0.7766,-12.0098,0.3389,0.4162,0.1438,75
