right_leg_timestamp,right_leg_index,right_leg_accel_x,right_leg_accel_y,right_leg_accel_z,right_leg_gyro_x,right_leg_gyro_y,right_leg_gyro_z,right_leg_battery_percentage,left_leg_timestamp,left_leg_index,left_leg_accel_x,left_leg_accel_y,left_leg_accel_z,left_leg_gyro_x,left_leg_gyro_y,left_leg_gyro_z,left_leg_battery_percentage
0.017,0,10.5551,-1.2801,-15.8106,-0.3998,-1.7351,-0.6778,88,0.049,0,-10.3454,0.048,-7.2646,-0.5478,0.0138,0.2431,52
0.069,1,9.21,-0.0825,-14.5186,-0.2146,-1.9398,-0.7875,88,0.101,1,-10.0921,-0.4992,-6.7433,-0.3231,0.013,0.2016,52
0.121,2,7.7974,0.6071,-14.0571,-0.3277,-2.0891,-0.7179,88,0.153,2,-9.9348,0.5555,-7.7629,0.0352,0.079,0.0898,52
0.173,3,6.3427,0.8666,-15.2421,-0.4128,-2.1981,-0.5911,88,0.205,3,-10.7145,0.7606,-7.6811,0.3035,0.0158,0.012,52
0.224,4,5.3463,0.8496,-15.5087,-0.3458,-1.9793,-0.537,88,0.257,4,-10.6691,0.9696,-7.4798,0.3904,-0.0282,-0.0096,52
0.276,5,4.1908,0.8971,-15.4961,-0.5675,-1.4081,-0.3134,88,0.309,5,-10.4615,1.0395,-7.3363,0.4548,0.0529,-0.1509,52
0.328,6,3.0553,0.9352,-16.0299,-0.4566,-0.698,-0.1837,88,0.36,6,-10.573,0.783,-7.9084,0.3752,0.0112,-0.185,52
0.38,7,2.1047,1.9443,-16.7112,0.0278,-0.015,0.0004,88,0.412,7,-10.371,0.4749,-7.489,0.2721,-0.0616,-0.1565,52
0.432,8,2.1365,1.4538,-17.875,0.146,0.0916,-0.0921,88,0.464,8,-10.518,0.3251,-7.5382,0.1813,-0.0643,-0.1526,52
0.483,9,2.0153,1.0235,-19.309,-0.1244,0.0739,-0.225,88,0.516,9,-10.4255,0.2218,-7.4095,0.1165,-0.0955,-0.0716,52
0.535,10,2.2623,1.1845,-19.1035,0.0088,0.0109,-0.4507,88,0.567,10,-10.359,0.3406,-7.3005,0.1213,-0.0834,-0.0561,52
0.587,11,2.2198,1.1464,-18.7757,0.1011,-0.0193,-0.5693,88,0.619,11,-10.3629,0.2513,-7.2622,0.0833,-0.0788,0.014,52
0.639,12,1.9377,1.1238,-18.812,0.2152,0.0588,-0.5294,88,0.671,12,-10.1829,0.4021,-7.0663,0.0848,-0.0562,0.0018,52
0.691,13,1.5683,1.2957,-18.7752,0.2628,0.1804,-0.4532,88,0.723,13,-10.3542,0.3977,-7.3969,0.0895,-0.0428,-0.0502,52
0.742,14,1.3814,1.2833,-18.9778,0.3165,0.2636,-0.3325,88,0.775,14,-10.3525,0.4469,-7.3032,0.0357,-0.08,-0.0418,52
0.794,15,1.1952,1.3533,-18.5602,0.1051,0.337,-0.2035,88,0.826,15,-10.3131,0.3441,-7.1864,-0.0032,-0.0964,-0.052,52
0.846,16,1.4637,1.1004,-19.5342,0.1356,0.4216,-0.1202,88,0.878,16,-10.3418,0.4216,-7.1387,-0.1799,-0.0739,0.0117,52
0.898,17,2.0128,1.5123,-19.7394,0.358,0.3884,-0.1451,88,0.93,17,-10.156,-0.1531,-6.9665,-0.2174,-0.0451,0.1049,52
0.95,18,2.615,1.6567,-20.0707,0.2409,0.2283,-0.1481,88,0.982,18,-10.1597,-0.0383,-6.8783,-0.2316,0.0145,0.1559,52
1.001,19,2.5856,1.562,-19.8691,0.1421,0.1043,-0.1634,88,1.033,19,-10.1091,0.0274,-6.8965,-0.1316,0.0518,0.1609,52
1.053,20,2.3012,1.4397,-19.5217,0.0721,0.0263,-0.1826,88,1.085,20,-10.1287,0.0859,-6.994,-0.0032,0.0553,0.1032,52
1.105,21,2.0137,1.7759,-19.3516,0.0521,0.0024,-0.1179,88,1.137,21,-10.1808,0.408,-7.0202,0.1503,0.0566,0.0209,52
1.156,22,2.2815,1.8315,-19.6858,0.0112,-0.005,0.0079,88,1.189,22,-10.1877,0.3842,-7.1964,0.2199,0.0486,-0.0443,52
1.208,23,2.4498,1.9103,-19.8567,-0.0281,-0.0215,0.1101,88,1.241,23,-10.1767,0.329,-7.1872,0.1861,0.0378,-0.0471,52
1.26,24,2.4917,1.824,-19.8507,-0.0936,-0.0892,0.1772,88,1.292,24,-10.1906,0.2762,-7.221,0.1337,0.0355,-0.0125,52
1.312,25,2.5701,1.623,-19.6756,-0.1624,-0.1553,0.1733,88,1.344,25,-10.1606,0.3798,-7.1667,0.1046,0.0492,0.0142,52
1.364,26,2.7829,1.2874,-19.3032,-0.1015,-0.1461,0.0123,88,1.396,26,-10.2829,0.3704,-7.2994,0.0634,0.0852,0.0092,52
1.416,27,2.7926,1.1549,-18.7923,-0.0334,-0.0675,-0.1287,88,1.448,27,-10.2423,0.4485,-7.3029,0.0405,0.0913,0.044,52
1.468,28,2.6777,1.4941,-17.9948,0.1861,0.3036,-0.1993,88,1.5,28,-10.3134,0.4789,-7.3753,0.0275,0.1146,0.0358,52
1.519,29,2.9098,1.5163,-18.0816,0.1407,0.7035,-0.201,88,1.551,29,-10.3458,0.4092,-7.4785,-0.0024,0.1192,0.0528,52
1.571,30,3.3985,1.7031,-18.6204,0.3178,0.9562,-0.2341,88,1.603,30,-10.3404,0.4972,-7.5448,-0.0201,0.1162,0.0618,52
1.623,31,3.7961,1.8446,-18.7362,0.1606,1.091,-0.2691,88,1.655,31,-10.3462,0.6033,-7.5543,-0.0109,0.1193,0.0395,52
1.674,32,3.9891,1.6034,-18.5134,0.2595,1.091,-0.3102,88,1.706,32,-10.203,0.4679,-7.2349,0.0225,0.1747,0.0111,52
1.726,33,3.4697,1.4864,-16.8872,0.4035,1.2434,-0.232,88,1.758,33,-10.4319,0.6116,-7.552,-0.0114,0.2204,0.0455,52
1.778,34,3.2832,1.3522,-14.9517,0.4124,1.5858,-0.0675,88,1.81,34,-10.1878,0.638,-7.8592,-0.0816,0.2188,0.0549,52
1.83,35,4.6059,0.8638,-13.6351,-0.0814,1.8357,0.1573,88,1.862,35,-10.139,0.574,-8.4161,-0.0451,0.1758,0.026,52
1.882,36,2.8195,4.672,-17.9564,-0.6931,0.8757,0.7322,88,1.914,36,-10.06,0.7819,-8.9566,-0.1596,0.1182,0.0842,52
1.933,37,7.3235,2.13,-15.9233,-0.2745,0.8377,0.6561,88,1.965,37,-10.2839,0.2076,-8.08,-0.2733,-0.0229,0.1934,52
1.985,38,6.4337,2.4229,-15.2418,-0.1659,0.8104,0.5473,88,2.017,38,-10.2986,0.3187,-7.8949,-0.1525,-0.0542,0.1496,52
2.037,39,6.9307,0.9743,-14.6729,-0.126,0.7341,0.5386,88,2.069,39,-10.3958,0.4889,-7.9024,-0.0295,-0.0797,0.0975,52
2.089,40,7.5722,0.3672,-14.0553,-0.1752,0.6936,0.3978,88,2.121,40,-10.4373,0.7525,-7.9015,0.0039,-0.1186,0.0438,52
2.141,41,7.5045,0.3852,-13.91,-0.1981,0.7156,0.2988,88,2.172,41,-10.3481,0.9921,-7.7529,0.0323,-0.1014,-0.0444,52
2.192,42,8.8262,-0.1023,-12.1363,-0.2521,0.6505,0.2454,88,2.224,42,-10.1935,1.0031,-7.8989,0.0106,-0.0647,-0.1669,52
2.244,43,9.5699,-0.5916,-13.7641,-0.3475,0.0804,0.0989,88,2.276,43,-10.2238,0.6728,-7.5751,-0.0036,-0.0319,-0.2057,52
2.296,44,9.5899,-0.9534,-14.6916,-0.6431,-0.6143,0.0503,88,2.328,44,-10.2968,0.722,-7.7865,-0.0218,-0.0082,-0.188,52
2.348,45,8.0889,-0.612,-13.759,-0.5283,-1.0001,0.0336,88,2.38,45,-10.0759,0.4826,-8.0616,-0.089,-0.0083,-0.1867,52
2.4,46,6.2657,-0.3356,-11.9112,-0.3387,-0.6946,0.0016,88,2.431,46,-10.0832,0.2195,-8.1383,-0.0451,-0.068,-0.1785,52
2.451,47,9.8387,2.194,-16.6982,-0.4377,-1.1517,-0.1758,88,2.483,47,-10.252,0.2014,-7.9116,0.0199,-0.1362,-0.1244,52
2.504,48,12.4465,0.9289,-15.3275,-0.2204,-0.9342,-0.5744,88,2.535,48,-10.3474,0.4683,-7.6052,-0.0173,-0.1214,-0.1137,52
2.555,49,10.9382,1.2541,-14.3044,-0.1433,-0.6359,-0.3672,88,2.587,49,-10.3872,0.4793,-7.8201,-0.1665,-0.0523,-0.1008,52
2.607,50,10.448,0.7533,-14.2997,-0.3366,-0.4822,-0.2254,88,2.638,50,-10.2987,0.1931,-7.6542,-0.2363,-0.0423,-0.0411,52
2.659,51,10.6881,-0.2264,-13.3968,-0.5584,-0.6309,-0.1442,88,2.69,51,-10.3293,0.0628,-7.608,-0.2616,-0.0266,0.0223,52
2.711,52,11.6234,-0.7843,-16.2779,-0.1908,-1.094,-0.3454,88,2.742,52,-10.2627,-0.0675,-7.5616,-0.2101,-0.0266,0.0805,52
2.763,53,11.3391,-0.9324,-17.4916,-0.2492,-1.4719,-0.5131,88,2.794,53,-10.2085,0.0506,-7.5896,-0.0971,-0.0437,0.0587,52
2.814,54,10.2934,-0.1777,-17.5983,-0.1314,-1.7476,-0.5814,88,2.846,54,-10.3057,0.1013,-7.5597,-0.0824,-0.0635,0.0697,52
2.866,55,9.0516,0.4216,-17.2829,-0.1088,-1.9489,-0.5768,88,2.897,55,-10.2612,0.2253,-7.4432,-0.0436,-0.0762,0.065,52
2.918,56,7.7665,0.694,-17.0807,-0.0724,-2.0958,-0.4974,88,2.949,56,-10.2478,0.2649,-7.3363,-0.0423,-0.0689,0.0434,52
2.969,57,6.4665,0.9328,-17.0819,-0.0583,-2.203,-0.4499,88,3.001,57,-10.2787,0.2856,-7.3512,-0.0495,-0.0649,0.0304,52
3.021,58,5.097,0.8806,-17.1044,-0.0401,-2.2431,-0.3984,88,3.053,58,-10.2691,0.2853,-7.321,-0.0772,-0.0523,0.0243,52
3.073,59,3.7696,0.7292,-17.0251,-0.1275,-2.1188,-0.374,88,3.105,59,-10.379,0.314,-7.3809,-0.1409,-0.0136,0.0243,52
3.125,60,2.5907,0.7714,-16.9574,-0.1498,-1.8268,-0.3673,88,3.156,60,-10.3215,0.226,-7.2972,-0.2369,0.0265,0.0533,52
3.177,61,1.6586,0.8609,-17.0013,-0.089,-1.4596,-0.3374,88,3.208,61,-10.2642,0.0807,-7.232,-0.2957,0.0704,0.0937,52
3.228,62,0.8859,0.9301,-17.1081,-0.0371,-1.0284,-0.2771,88,3.26,62,-10.2923,0.0905,-7.2096,-0.3679,0.1017,0.1445,52
3.28,63,0.4418,1.016,-17.5623,0.0236,-0.6178,-0.2098,88,3.312,63,-10.2298,0.2414,-7.4628,-0.3718,0.1124,0.1541,52
3.332,64,0.183,1.202,-18.0193,0.1057,-0.3071,-0.1745,88,3.363,64,-10.219,-0.1667,-7.0708,-0.2536,0.0957,0.1108,52
3.384,65,0.1818,1.3577,-18.5813,0.2045,-0.0606,-0.1453,88,3.415,65,-11.2224,0.5456,-8.0703,-0.0115,0.1234,0.0098,52
3.435,66,0.1718,1.324,-18.4558,0.2459,0.116,-0.1528,88,3.467,66,-10.9527,0.5104,-7.6384,0.1107,0.0241,0.0021,52
3.487,67,0.1966,1.3004,-18.7659,0.0437,0.1338,-0.1559,88,3.519,67,-10.1102,-0.08,-7.4658,0.3393,-0.0267,-0.1101,52
3.539,68,0.4638,1.2777,-19.2898,-0.0918,0.1478,-0.2314,88,3.571,68,-10.5452,0.135,-7.6554,0.3986,-0.0592,-0.1567,52
3.591,69,0.4439,1.2466,-19.8067,0.1182,0.0792,-0.2474,88,3.622,69,-10.4536,0.2998,-7.4842,0.3416,-0.0698,-0.1354,52
3.643,70,0.3779,0.9957,-20.016,-0.1375,0.0467,-0.1074,88,3.674,70,-10.4836,0.291,-7.4767,0.2867,-0.0756,-0.1476,52
3.694,71,0.1354,0.7925,-19.9729,-0.1362,-0.0018,0.0399,88,3.726,71,-10.5203,0.233,-7.4349,0.1726,-0.0115,-0.1395,52
3.746,72,0.147,0.9093,-19.5339,-0.2261,0.0625,0.0973,88,3.777,72,-10.4849,0.0048,-7.5209,0.1133,-0.0108,-0.0703,52
3.798,73,0.138,0.7909,-19.4494,-0.0675,0.1606,0.1392,88,3.829,73,-10.3556,0.0073,-7.3721,0.0645,-0.0063,-0.0055,52
3.85,74,0.3941,0.8435,-19.3601,-0.0835,0.2756,0.2333,88,3.881,74,-10.3531,0.0968,-7.4037,0.0633,-0.0,0.0136,52
3.902,75,0.7211,1.0194,-19.7688,-0.0777,0.3201,0.2354,88,3.933,75,-10.3001,0.1339,-7.3557,0.0149,0.0152,0.0278,52
3.954,76,1.1224,1.7496,-19.9947,-0.0147,0.2942,0.2253,88,3.985,76,-10.319,0.0914,-7.3495,0.0181,0.0173,0.0441,52
4.005,77,1.2075,1.7222,-19.9069,0.0305,0.2268,0.1916,88,4.036,77,-10.2874,0.0962,-7.4654,0.0838,0.007,0.0238,52
4.057,78,1.0927,1.7329,-19.7044,-0.0447,0.1571,0.1235,88,4.088,78,-10.3518,0.1417,-7.4203,0.1225,-0.0106,0.0137,52
4.109,79,0.9831,1.6773,-19.3807,-0.0439,0.138,0.0214,88,4.14,79,-10.4031,0.287,-7.4476,0.1657,-0.0224,-0.0152,52
4.161,80,0.8596,1.5607,-19.048,-0.0281,0.1603,-0.0511,88,4.192,80,-10.3656,0.2467,-7.4001,0.1542,-0.0272,-0.0313,52
4.212,81,1.055,1.4885,-19.4455,-0.1565,0.1846,-0.1371,88,4.243,81,-10.3584,0.2244,-7.3869,0.1384,-0.0376,-0.0387,52
4.264,82,1.1878,1.5184,-19.424,-0.0682,0.2,-0.1897,88,4.295,82,-10.3426,0.2814,-7.3509,0.0854,-0.0431,-0.0374,52
4.316,83,1.2652,1.3308,-19.5562,-0.0951,0.1535,-0.1583,88,4.347,83,-10.3038,0.2158,-7.2893,0.0564,-0.0446,-0.0354,52
4.368,84,1.4063,1.27,-19.5733,-0.0033,0.1301,-0.1069,88,4.399,84,-10.309,0.2484,-7.3159,-0.0097,-0.0351,-0.0291,52
4.42,85,1.6401,1.3224,-19.6091,0.0034,0.0929,-0.009,88,4.451,85,-10.2631,-0.0136,-7.2511,-0.0617,-0.032,-0.0064,52
4.471,86,1.7598,1.2936,-19.6399,0.056,0.0785,0.0914,88,4.502,86,-10.2907,0.0876,-7.2481,-0.0621,-0.0218,0.0171,52
4.523,87,1.8022,1.6181,-19.402,0.0412,0.0863,0.1386,88,4.554,87,-10.3,0.1114,-7.2446,-0.0951,0.0015,0.0352,52
