right_leg_timestamp,right_leg_index,right_leg_accel_x,right_leg_accel_y,right_leg_accel_z,right_leg_gyro_x,right_leg_gyro_y,right_leg_gyro_z,right_leg_battery_percentage,left_leg_timestamp,left_leg_index,left_leg_accel_x,left_leg_accel_y,left_leg_accel_z,left_leg_gyro_x,left_leg_gyro_y,left_leg_gyro_z,left_leg_battery_percentage
0.019,0,-0.0432,0.24,-1.5197,0.0202,0.1179,0.0008,97,0.901,17,0.2112,0.9349,-1.3394,0.2281,0.1753,0.1685,64
0.07,1,-0.0881,0.0246,-1.6079,-0.126,0.0382,-0.0351,97,0.953,18,0.0567,1.5608,-1.3184,0.2117,0.1027,0.2159,64
0.122,2,-0.1104,0.0414,-1.8471,-0.1432,-0.022,-0.0923,97,1.004,19,0.0951,1.4399,-1.4614,0.1301,0.0976,0.2633,64
0.174,3,-0.1255,0.0684,-1.9762,-0.1308,-0.0442,-0.1242,97,1.056,20,0.0898,1.5435,-1.4699,0.0601,0.1118,0.273,64
0.225,4,-0.2643,-0.0077,-1.7571,-0.1177,-0.2531,-0.1941,97,1.108,21,0.1193,1.5536,-1.4323,-0.0407,0.1713,0.3083,64
0.277,5,-0.0735,0.4973,-2.4698,0.0396,-0.5066,-0.2754,97,1.16,22,0.1605,1.4038,-1.3928,-0.0093,0.21,0.3007,64
0.329,6,0.65,0.2534,-2.7502,-0.1065,-0.5672,-0.2669,97,1.212,23,0.1217,1.3372,-1.0956,0.0806,0.2169,0.2885,64
0.381,7,1.626,-0.0236,-3.3419,-0.6258,-0.6676,-0.1859,97,1.263,24,0.0796,1.294,-1.0751,0.3172,0.2238,0.2607,64
0.433,8,1.1351,0.6229,-4.7792,-0.9406,-1.0783,-0.2281,97,1.315,25,0.072,1.4546,-1.0319,0.3916,0.2129,0.2352,64
0.485,9,-0.4968,1.4062,-5.5985,-0.6711,-1.3927,-0.4122,97,1.367,26,0.0859,1.3296,-1.1579,0.3056,0.2201,0.2473,64
0.537,10,-1.2668,1.9694,-6.4449,-0.3844,-1.5976,-0.538,97,1.419,27,0.1137,1.4392,-1.112,0.1202,0.2674,0.2586,64
0.588,11,-1.6034,1.7589,-7.6104,-0.1529,-1.7717,-0.6883,97,1.47,28,0.0871,1.4494,-0.9471,0.0467,0.2914,0.2685,64
0.64,12,-2.86,2.8524,-9.0623,-0.0111,-1.8911,-0.7959,97,1.522,29,0.0506,1.381,-0.7646,0.0864,0.265,0.2975,64
0.692,13,-4.4194,2.9103,-9.3834,-0.3885,-1.9859,-0.8949,97,1.574,30,0.0334,1.5306,-0.7527,0.0517,0.1961,0.3353,64
0.744,14,-5.537,2.9679,-9.213,-0.2947,-2.0552,-0.9518,97,1.626,31,-0.0537,1.5246,-0.6969,-0.0981,0.0876,0.362,64
0.795,15,-6.2024,2.6312,-8.4491,-0.0839,-2.1057,-0.9854,97,1.678,32,-0.1699,1.7703,-1.1285,-0.2485,-0.0751,0.3427,64
0.847,16,-7.157,2.3526,-7.7988,0.0304,-2.0555,-0.8532,97,1.729,33,-0.2688,2.269,-1.5214,-0.8183,-0.2709,0.2493,64
0.899,17,-8.2534,2.2814,-7.0308,0.2135,-1.6928,-0.604,97,1.781,34,0.229,-0.2432,-0.3824,-1.0743,-0.2403,0.2132,64
0.951,18,-9.4332,2.2989,-6.6885,0.356,-1.1754,-0.2995,97,1.833,35,0.3595,2.163,-0.7238,-0.0718,-0.373,0.2038,64
1.003,19,-10.6608,2.7655,-7.1261,0.3806,-0.5752,0.0227,97,1.884,36,0.396,1.9366,-1.0963,0.4609,-0.2985,0.1726,64
1.055,20,-11.3232,2.8884,-8.1582,0.2582,-0.1856,0.3178,97,1.936,37,0.3904,2.1271,-1.5053,0.9941,-0.1962,0.2216,64
1.106,21,-11.706,3.6598,-9.0228,0.2087,-0.0234,0.4695,97,1.988,38,-0.0575,2.9531,-1.5433,1.0627,-0.17,0.3118,64
1.158,22,-11.7897,4.0111,-9.5548,0.0944,-0.0069,0.5414,97,2.04,39,-0.3642,2.6977,-2.2452,1.1353,-0.0928,0.3657,64
1.21,23,-11.801,3.9837,-9.598,0.0329,0.0035,0.4769,97,2.092,40,-0.4355,2.1699,-2.2478,1.312,0.0434,0.3361,64
1.261,24,-11.9786,3.709,-9.3513,0.0199,0.0742,0.3102,97,2.143,41,-0.3059,1.3946,-2.3017,0.7628,0.0855,0.4532,64
1.313,25,-12.1344,3.3732,-9.321,0.1231,0.1917,0.0937,97,2.195,42,-0.9616,2.4262,-2.0164,0.3672,0.1919,0.5721,64
1.365,26,-10.9271,4.2748,-8.6798,0.0893,0.3517,-0.1077,97,2.247,43,0.6116,0.4613,-2.2344,-0.3647,0.0992,0.5412,64
1.417,27,-11.727,4.6686,-10.0388,0.604,0.5217,-0.5946,97,2.299,44,0.6949,-0.298,-2.4444,-0.4503,0.1516,0.4725,64
1.469,28,-11.1705,4.4475,-9.6345,0.2939,0.4896,-0.7112,97,2.351,45,0.3422,0.6018,-2.3563,-0.2744,0.2517,0.4539,64
1.52,29,-10.9517,3.8521,-9.2753,0.2721,0.711,-0.7948,97,2.402,46,0.2732,0.7109,-2.0699,-0.2295,0.2543,0.3988,64
1.572,30,-11.6356,3.8528,-9.7816,0.0094,1.0449,-0.8153,97,2.454,47,0.2085,0.5673,-1.9273,0.0332,0.2368,0.3339,64
1.624,31,-11.8173,3.8969,-9.7967,0.0739,1.0843,-0.8153,97,2.506,48,0.1932,1.3084,-1.8558,0.2872,0.2255,0.264,64
1.676,32,-11.9683,3.2672,-9.8901,0.0617,0.9554,-0.9107,97,2.558,49,0.1874,1.2932,-1.6825,0.369,0.2179,0.276,64
1.728,33,-11.7258,2.6516,-10.0488,0.0622,0.7133,-1.0134,97,2.61,50,0.038,1.3483,-1.715,0.3907,0.1856,0.2964,64
1.779,34,-11.3998,2.4792,-9.9419,-0.0082,0.5311,-1.0717,97,2.661,51,-0.1031,1.8676,-1.7077,0.203,0.1641,0.3129,64
1.831,35,-10.7046,2.5978,-9.7442,-0.1493,0.4472,-1.0655,97,2.713,52,0.2197,0.7305,-1.5756,0.0381,0.1555,0.3233,64
1.883,36,-10.5359,2.1527,-9.7947,-0.0422,0.4153,-1.0592,97,2.765,53,0.149,1.3263,-1.4752,0.0835,0.1602,0.3085,64
1.935,37,-10.2275,1.9712,-9.8968,-0.1049,0.4683,-1.0301,97,2.817,54,0.0928,1.3127,-1.3763,0.1919,0.1359,0.2984,64
1.987,38,-9.9735,2.1531,-10.1235,-0.0172,0.4966,-0.7914,97,2.868,55,0.1345,1.311,-1.3612,0.2069,0.1348,0.2949,64
2.038,39,-9.9992,2.1439,-10.1483,-0.0299,0.5076,-0.5062,97,2.92,56,0.0435,1.5923,-1.1859,0.281,0.0829,0.3162,64
2.09,40,-10.0365,2.3682,-10.1492,0.0221,0.4777,-0.2395,97,2.972,57,0.0467,1.6867,-1.2647,0.1989,0.0804,0.3405,64
2.142,41,-10.0196,2.3528,-10.1115,0.0795,0.4392,-0.0479,97,3.024,58,0.1381,1.7672,-1.3587,0.3157,0.0984,0.3259,64
2.194,42,-10.0191,2.3841,-10.042,0.1845,0.4316,0.0646,97,3.076,59,0.1479,1.6599,-1.4142,0.4875,0.0974,0.3193,64
2.245,43,-10.0914,2.5221,-9.9555,0.24,0.4468,0.1608,97,3.127,60,0.0603,1.7911,-1.576,0.5437,0.1171,0.3183,64
2.297,44,-10.2,2.4765,-9.8306,0.2773,0.4285,0.2767,97,3.179,61,0.028,1.9766,-1.5208,0.5462,0.1622,0.34,64
2.349,45,-10.1868,2.521,-9.787,0.2746,0.385,0.3575,97,3.231,62,-0.0371,2.0816,-1.4528,0.4371,0.1947,0.3636,64
2.401,46,-9.9772,2.37,-10.1861,0.3562,0.3285,0.3739,97,3.283,63,-0.0626,1.1703,-1.3699,0.5303,0.1771,0.375,64
2.453,47,-9.7205,2.4166,-10.4571,0.3817,0.2618,0.3989,97,3.334,64,-0.0698,1.231,-1.5097,0.5732,0.164,0.3536,64
2.505,48,-9.8207,2.4077,-10.3314,0.2263,0.2055,0.4153,97,3.386,65,0.0275,1.3041,-1.5237,0.6561,0.1372,0.3353,64
2.556,49,-9.983,2.3311,-10.2587,0.2089,0.1544,0.3711,97,3.438,66,0.0071,1.5882,-1.6308,0.7382,0.1568,0.3615,64
2.608,50,-10.0392,2.3857,-10.1824,0.1922,0.1161,0.247,97,3.49,67,-0.1629,2.1328,-1.6403,0.713,0.1742,0.4321,64
2.66,51,-10.0677,2.2568,-10.2035,0.1348,0.0849,0.1595,97,3.542,68,0.0382,1.0307,-1.8007,0.4569,0.17,0.4611,64
2.712,52,-10.1715,2.0585,-10.2109,0.0239,0.0617,0.0646,97,3.593,69,-0.2699,2.2691,-1.6854,0.3578,0.1452,0.4279,64
2.764,53,-10.122,1.9962,-10.0611,0.0441,0.0285,-0.048,97,3.645,70,-0.2692,1.9614,-1.3115,0.6928,0.0696,0.4561,64
2.815,54,-10.1656,2.0923,-9.9905,0.0861,0.0492,-0.1072,97,3.697,71,-0.3159,2.6439,-0.1232,0.1717,0.0158,0.4154,64
2.867,55,-10.1237,2.1571,-9.9522,0.0998,0.0977,-0.1092,97,3.749,72,0.5004,1.2916,-1.2026,-0.0266,-0.0352,0.4166,64
2.919,56,-10.1689,2.0985,-9.9275,0.1021,0.1489,-0.118,97,3.801,73,0.6424,1.613,-1.4937,0.0556,0.0258,0.4092,64
2.971,57,-10.1125,1.883,-9.8687,0.0824,0.1876,-0.1324,97,3.852,74,0.3063,1.6637,-1.3847,0.0403,0.0497,0.4526,64
3.022,58,-10.0906,1.8403,-9.8617,0.1103,0.2496,-0.1587,97,3.904,75,0.0535,1.7764,-1.7278,0.0174,0.0277,0.4314,64
3.074,59,-10.1883,1.8564,-9.8854,0.1815,0.3324,-0.1647,97,3.956,76,-0.2752,2.1986,-1.682,-0.326,0.0046,0.4254,64
3.126,60,-10.3495,1.9905,-9.9154,0.193,0.3861,-0.1386,97,4.008,77,-0.0013,1.0805,-2.0315,-0.38,-0.0417,0.4138,64
3.178,61,-10.3778,2.0567,-9.9427,0.148,0.4372,-0.0675,97,4.059,78,0.1209,1.4039,-2.1717,-0.2844,0.0027,0.3997,64
3.23,62,-10.2245,2.3058,-9.9831,0.0149,0.4582,-0.0013,97,4.111,79,0.0185,1.4039,-1.9218,-0.0592,0.0832,0.3656,64
3.281,63,-10.2754,2.2704,-10.0716,-0.0569,0.4287,0.0671,97,4.163,80,0.0649,1.2336,-1.8979,0.0368,0.0872,0.3239,64
3.333,64,-10.0817,2.1701,-10.1523,-0.1641,0.3438,0.1174,97,4.215,81,0.1851,1.1127,-1.8145,0.3328,0.1034,0.2499,64
3.385,65,-9.724,1.9268,-10.2594,-0.2452,0.2565,0.1612,97,4.267,82,0.2503,0.9632,-1.8026,0.4459,0.1017,0.2489,64
3.437,66,-9.6313,1.8306,-10.4169,-0.2106,0.2352,0.2055,97,4.318,83,0.3414,0.8384,-2.0658,0.5934,0.1279,0.2672,64
3.488,67,-9.6085,1.7529,-10.0525,-0.16,0.2502,0.2589,97,4.37,84,0.2539,1.2221,-2.0172,0.6534,0.1695,0.292,64
3.54,68,-9.6827,1.8354,-9.5883,0.1598,0.27,0.2474,97,4.422,85,-0.1741,2.4401,-1.7233,0.5498,0.1905,0.348,64
3.592,69,-9.7282,1.9185,-9.713,0.2454,0.3208,0.2633,97,4.474,86,0.3316,0.6926,-1.5808,0.0184,0.1131,0.4194,64
3.644,70,-9.5787,1.875,-9.7211,0.2843,0.3517,0.2141,97,4.526,87,0.2341,1.113,-1.7889,-0.0263,0.0568,0.3906,64
3.696,71,-9.5533,1.6685,-10.1263,0.3991,0.3851,0.0738,97,4.577,88,0.2488,0.566,-1.9255,-0.0071,0.1349,0.3827,64
3.748,72,-9.5844,1.9236,-10.5113,0.5373,0.3871,-0.031,97,4.629,89,0.0958,1.0863,-1.6899,0.1939,0.1288,0.3602,64
3.799,73,-9.5413,1.8924,-10.5729,0.3518,0.3295,-0.035,97,4.681,90,0.0807,1.549,-1.7181,0.2315,0.1207,0.3827,64
3.851,74,-9.6013,1.8531,-10.5218,0.1761,0.2609,-0.03,97,4.732,91,0.168,1.3036,-1.6909,-0.0592,0.0608,0.3791,64
3.903,75,-9.5724,1.7405,-10.1981,0.0861,0.2165,-0.0517,97,4.784,92,0.2868,0.9925,-1.7552,-0.1507,0.0143,0.3557,64
3.955,76,-9.5589,1.7786,-10.095,0.1473,0.2431,-0.1431,97,4.836,93,0.2682,0.9456,-1.9429,-0.1251,0.0639,0.3593,64
4.007,77,-9.4983,1.8309,-10.1977,0.232,0.2771,-0.1938,97,4.888,94,0.2539,1.0521,-1.8556,0.0124,0.0861,0.3602,64
4.058,78,-9.4416,1.8764,-10.1734,0.2157,0.2997,-0.2092,97,4.94,95,0.1941,1.0303,-1.8982,0.1195,0.1212,0.3627,64
4.11,79,-9.3408,2.1421,-9.9661,0.2029,0.2604,-0.2055,97,4.991,96,0.2714,1.3468,-1.8941,0.322,0.1137,0.3466,64
4.162,80,-9.2579,1.8702,-9.8755,0.1721,0.2657,-0.1527,97,5.043,97,0.1842,1.6112,-1.8874,0.3609,0.1486,0.3848,64
4.214,81,-9.1616,1.1815,-10.0929,-0.004,0.3064,-0.1002,97,5.095,98,0.3355,1.3768,-1.7789,0.1835,0.1501,0.4015,64
4.266,82,-9.2402,1.097,-9.9885,0.0543,0.342,-0.2007,97,5.147,99,0.3359,1.1764,-1.6449,0.0395,0.1396,0.4122,64
4.317,83,-9.3601,1.2104,-9.923,0.1829,0.348,-0.2547,97,5.199,100,0.2765,1.0373,-1.707,0.0244,0.1736,0.4099,64
4.369,84,-9.322,1.539,-9.9364,0.2051,0.3301,-0.2474,97,5.25,101,0.2291,1.0966,-1.6045,0.0562,0.1872,0.4082,64
4.421,85,-9.379,1.5657,-10.1456,0.2432,0.2988,-0.1954,97,5.302,102,0.1588,1.2894,-1.5812,0.0359,0.198,0.4037,64
4.473,86,-9.3903,1.1437,-10.3967,0.0574,0.2792,-0.1376,97,5.354,103,0.0822,1.4221,-1.4461,-0.0584,0.2024,0.392,64
4.524,87,-9.3468,1.394,-10.2248,0.0194,0.24,-0.165,97,5.406,104,0.2014,0.7939,-1.4795,-0.2637,0.1902,0.3809,64
4.576,88,-9.4841,1.3472,-10.0694,0.0942,0.198,-0.213,97,5.458,105,0.1888,0.7575,-1.3894,-0.2595,0.1896,0.353,64
4.628,89,-9.5329,1.3932,-9.938,0.086,0.1975,-0.2285,97,5.509,106,0.1723,0.8622,-1.3396,-0.1625,0.1798,0.3352,64
4.68,90,-9.4512,1.4178,-10.0253,0.1204,0.2163,-0.2433,97,5.561,107,0.144,1.0281,-1.18,-0.0713,0.1607,0.3262,64
4.732,91,-9.3198,1.5498,-10.1596,0.1713,0.2108,-0.2901,97,5.613,108,0.1513,0.9869,-1.144,-0.0356,0.1453,0.3205,64
4.783,92,-9.3096,1.6087,-10.1794,0.1627,0.1605,-0.3143,97,5.665,109,0.1402,1.0795,-1.1628,-0.0216,0.141,0.3329,64
4.835,93,-9.3968,1.4774,-10.0994,0.095,0.1277,-0.3123,97,5.716,110,0.1098,1.0722,-1.0605,-0.0015,0.1354,0.3301,64
4.887,94,-9.4562,1.4005,-9.8852,0.0556,0.1492,-0.3201,97,5.768,111,0.1142,1.2122,-1.0561,0.017,0.1152,0.3339,64
4.939,95,-9.4667,1.3002,-9.7897,0.0351,0.196,-0.3061,97,5.82,112,-0.0285,1.0906,-0.7093,0.0688,0.0421,0.322,64
4.991,96,-9.415,1.2461,-9.8609,0.1031,0.2268,-0.2974,97,5.872,113,0.0544,1.2179,-1.032,0.0867,-0.0398,0.2988,64
5.042,97,-9.4225,1.1994,-10.0004,0.141,0.2365,-0.2588,97,5.924,114,0.1839,1.1445,-1.2471,0.1086,0.0482,0.2906,64
5.094,98,-9.3819,1.1902,-10.1167,0.0747,0.2432,-0.1902,97,5.975,115,0.136,1.3088,-1.3141,0.1443,0.1228,0.2716,64
5.146,99,-9.4233,1.2233,-10.0697,0.0757,0.2326,-0.1231,97,6.027,116,0.1149,1.3753,-1.1685,0.1933,0.1892,0.2703,64
5.198,100,-9.5543,1.2074,-9.9814,0.0998,0.2219,-0.0682,97,6.079,117,0.0109,1.6445,-1.0375,0.1342,0.1964,0.2747,64
5.25,101,-9.5373,1.2697,-9.9999,0.1368,0.2261,-0.0139,97,6.131,118,0.0881,1.7482,-1.1743,-0.0521,0.1571,0.2769,64
5.301,102,-9.4762,1.3411,-10.0898,0.1422,0.2437,0.0372,97,6.183,119,0.0764,2.4473,-1.1274,-0.4046,0.0966,0.2487,64
5.353,103,-9.5039,1.3516,-10.0759,0.0977,0.2488,0.0774,97,6.234,120,0.0804,1.4162,-0.7453,-0.6286,0.054,0.2308,64
5.405,104,-9.5499,1.462,-10.112,0.0812,0.253,0.0829,97,6.286,121,-0.0532,1.4662,-0.4761,-0.3955,0.0933,0.2722,64
5.457,105,-9.4434,1.3894,-10.1901,0.0446,0.2348,0.0816,97,6.338,122,-0.064,1.7299,-1.1753,-0.1889,0.0279,0.3052,64
5.509,106,-9.2896,1.2505,-10.2131,-0.0343,0.2248,0.121,97,6.39,123,0.0063,1.9077,-0.6766,-0.041,-0.0457,0.3437,64
5.56,107,-9.5141,0.9574,-10.1131,-0.0714,0.2441,0.185,97,6.442,124,0.1158,1.7824,-0.7614,0.1301,-0.0761,0.3643,64
5.612,108,-9.788,0.8634,-9.9079,-0.0383,0.2706,0.217,97,6.493,125,0.4485,1.7686,-1.0099,0.4866,-0.0027,0.3992,64
5.664,109,-9.8408,1.4278,-9.8617,0.1465,0.2655,0.2094,97,6.545,126,0.3369,2.103,-1.2414,0.7544,0.066,0.4398,64
5.716,110,-9.8511,1.5919,-10.0198,0.2383,0.2678,0.244,97,6.597,127,0.0321,2.6711,-1.2326,1.1991,0.126,0.3754,64
5.768,111,-9.8056,1.3105,-10.0908,0.0921,0.2667,0.3845,97,6.649,128,-0.2659,2.4791,-1.3952,1.4633,0.2247,0.3508,64
5.819,112,-9.2024,1.4472,-10.188,0.0486,0.222,0.4258,97,6.701,129,-0.4777,1.0805,-1.6844,1.5679,0.3729,0.3784,64
5.871,113,-9.3865,1.4783,-10.2355,0.1636,0.192,0.1986,97,6.753,130,-0.282,1.0266,-1.6273,1.0542,0.198,0.3451,64
5.923,114,-9.3369,1.7741,-10.1627,0.1857,0.1309,-0.0129,97,6.804,131,-0.0276,1.0416,-1.5888,0.7256,0.2081,0.4023,64
5.975,115,-8.9303,2.0727,-10.0808,0.1177,0.086,-0.3016,97,6.856,132,-0.1432,1.4,-1.5469,0.3697,0.2063,0.445,64
6.027,116,-8.6904,2.2322,-10.1138,0.1724,0.0804,-0.6788,97,6.908,133,-0.0257,1.0916,-1.6836,-0.0381,0.0306,0.4323,64
6.078,117,-8.8727,1.9697,-9.974,0.0912,0.0964,-1.0261,97,6.96,134,0.0768,1.8098,-2.0923,-0.6637,-0.1238,0.3615,64
6.13,118,-9.1251,1.1641,-9.9069,0.1527,0.1263,-1.3439,97,7.012,135,0.0339,1.3244,-1.0068,-1.1223,-0.2499,0.3195,64
6.182,119,-9.5379,1.2959,-10.0037,0.2338,0.1875,-1.5364,97,7.063,136,-0.0685,1.5741,-1.8579,-0.3932,-0.2782,0.3782,64
6.234,120,-10.1674,0.8783,-9.8297,0.4134,0.2133,-1.5773,97,7.115,137,0.1197,1.6395,-1.8296,0.1343,-0.1116,0.4129,64
6.285,121,-10.6685,0.5052,-9.9678,0.3276,0.2715,-1.3782,97,7.167,138,0.0051,1.6688,-1.716,0.3553,0.0021,0.3936,64
6.337,122,-10.72,0.4139,-9.7597,0.1007,0.1812,-0.9079,97,7.219,139,-0.0208,1.4009,-1.5596,0.4323,0.0202,0.3727,64
6.389,123,-9.9645,-0.3526,-9.7846,0.1407,0.1052,-0.472,97,7.27,140,0.1771,1.6359,-1.6528,0.3564,0.0308,0.3323,64
6.441,124,-9.7967,-1.0802,-10.2101,0.1542,0.1931,-0.0824,97,7.322,141,0.2364,1.3964,-1.5351,0.3474,0.1064,0.303,64
6.493,125,-9.5565,-0.2388,-10.0359,0.1819,0.295,0.381,97,7.374,142,0.1925,0.8228,-1.6055,0.2779,0.0958,0.2658,64
6.544,126,-9.5815,-0.1626,-9.7914,0.189,0.3341,0.7347,97,7.426,143,0.6499,1.4317,-1.7863,0.2439,0.0297,0.1946,64
6.596,127,-8.9757,0.8802,-10.0788,0.2902,0.3435,0.7331,97,7.478,144,0.4257,1.5914,-1.8754,0.3823,0.0037,0.2365,64
6.648,128,-8.827,1.6356,-10.5907,0.2434,0.3059,0.5475,97,7.529,145,0.3319,1.5623,-2.0232,0.4392,0.0081,0.2702,64
6.7,129,-8.8233,0.5121,-10.4218,-0.0162,0.2271,0.3499,97,7.581,146,0.3038,1.6664,-1.7633,0.552,0.0201,0.2996,64
6.752,130,-9.3154,0.8884,-10.0567,-0.147,0.2252,-0.0206,97,7.633,147,0.271,1.5388,-1.881,0.4986,0.0327,0.3456,64
6.804,131,-9.8697,0.6936,-9.6836,0.0392,0.2451,-0.2944,97,7.685,148,0.2747,1.6352,-1.9484,0.5922,0.0567,0.3745,64
6.855,132,-10.1233,-0.0128,-9.5484,0.0203,0.2628,-0.2265,97,7.737,149,0.0216,2.0037,-2.119,0.6348,0.1437,0.4081,64
6.907,133,-9.8454,-0.0508,-9.5796,-0.0245,0.2903,-0.0513,97,7.788,150,0.1107,1.592,-2.221,0.6162,0.2624,0.4522,64
6.959,134,-9.9133,-0.174,-9.9343,0.207,0.3108,0.1833,97,7.84,151,0.3505,2.0792,-1.9274,0.7136,0.3469,0.4658,64
7.011,135,-10.0574,-0.0084,-9.9712,0.0388,0.336,0.5158,97,7.892,152,0.3079,1.7542,-1.6962,0.5976,0.371,0.4714,64
7.063,136,-9.5594,0.151,-10.0652,0.0729,0.2876,0.7462,97,7.944,153,0.3115,0.9978,-1.5802,0.5047,0.3628,0.49,64
7.114,137,-9.0886,0.8547,-10.2168,0.1347,0.3299,0.8526,97,7.995,154,0.0979,1.6169,-1.4576,0.4936,0.322,0.4992,64
7.166,138,-9.1527,1.0622,-10.0164,0.1008,0.4202,0.8985,97,8.047,155,-0.0281,1.2334,-0.9602,0.3055,0.184,0.4719,64
7.218,139,-9.3841,1.2131,-9.9813,0.093,0.4747,0.8145,97,8.099,156,-0.1292,2.2204,-0.7397,-0.0777,0.0502,0.3903,64
7.27,140,-9.5737,1.3048,-10.0362,0.1834,0.4722,0.595,97,8.151,157,0.3708,1.2026,-1.0991,0.0244,-0.0012,0.352,64
7.322,141,-9.4751,1.3954,-10.0736,0.1841,0.4761,0.2779,97,8.203,158,0.004,2.4657,-1.1174,0.0911,-0.0151,0.3719,64
7.373,142,-9.4564,1.4403,-10.0546,0.2109,0.4841,-0.0612,97,8.255,159,-0.0278,1.949,-1.4708,-0.2469,-0.0001,0.381,64
7.425,143,-9.5733,1.4312,-10.0678,0.2023,0.4981,-0.3873,97,8.306,160,0.0904,1.0136,-1.8052,-0.5135,-0.0114,0.3975,64
7.477,144,-9.6154,1.2776,-10.0222,0.095,0.4651,-0.6753,97,8.358,161,0.1934,0.3525,-1.8209,-0.4963,-0.002,0.3616,64
7.529,145,-9.2771,1.2813,-10.1593,0.1182,0.3586,-0.93,97,8.41,162,0.2394,0.496,-1.7258,-0.154,-0.0291,0.2878,64
7.58,146,-8.9565,0.9554,-10.19,0.0819,0.254,-1.0407,97,8.462,163,0.1644,1.1897,-1.7969,0.2033,0.0374,0.2629,64
7.632,147,-8.76,0.6614,-10.08,-0.1024,0.2109,-0.9644,97,8.514,164,0.0694,1.1502,-1.771,0.3375,0.1237,0.2773,64
7.684,148,-8.5446,0.8428,-9.8476,-0.0726,0.1867,-0.7968,97,8.565,165,-0.0437,1.4361,-1.7198,0.3425,0.1775,0.3124,64
7.736,149,-8.3763,0.9642,-9.659,-0.2052,0.2172,-0.4807,97,8.617,166,-0.0136,1.1161,-1.5826,0.3205,0.1911,0.3163,64
7.788,150,-8.2641,0.6065,-9.6737,-0.4469,0.2773,-0.1893,97,8.669,167,0.0815,1.2215,-1.5015,0.3917,0.1771,0.3048,64
7.839,151,-8.2307,0.8768,-9.8389,-0.3509,0.365,-0.053,97,8.721,168,-0.0352,1.835,-1.3865,0.4917,0.1819,0.3253,64
7.891,152,-8.3849,0.8734,-9.9238,-0.1615,0.4003,-0.0044,97,8.772,169,-0.3326,2.5586,-1.4104,0.2929,0.2046,0.3841,64
7.943,153,-8.4923,0.9372,-9.9986,-0.0451,0.3672,0.0193,97,8.824,170,-0.1291,1.0388,-1.4639,0.2166,0.1918,0.3818,64
7.995,154,-8.5186,1.2689,-10.1701,0.0984,0.3032,0.0818,97,8.876,171,-0.0325,1.235,-1.3976,0.2001,0.1267,0.371,64
8.047,155,-8.4806,1.4185,-10.3267,0.0569,0.2506,0.1748,97,8.928,172,0.1143,0.935,-1.5015,0.2179,0.1459,0.3606,64
8.098,156,-8.4222,1.3421,-10.3482,0.0008,0.1912,0.2441,97,8.98,173,0.0418,0.5693,-1.4895,0.3381,0.1914,0.3395,64
8.15,157,-8.6341,1.3975,-10.0906,0.0633,0.1783,0.2068,97,9.031,174,0.0305,1.0136,-1.6128,0.3896,0.1361,0.3334,64
8.202,158,-8.9184,1.5665,-9.8779,0.1571,0.1942,0.1656,97,9.083,175,0.0176,1.436,-1.5731,0.3914,0.1529,0.3634,64
8.254,159,-9.0169,1.7433,-9.9549,0.1989,0.1972,0.1579,97,9.135,176,-0.0617,1.5876,-1.3766,0.3175,0.1373,0.3719,64
8.306,160,-8.8574,1.5871,-10.1911,0.1448,0.1606,0.1478,97,9.187,177,0.0413,1.3612,-1.4712,0.2925,0.126,0.3689,64
8.357,161,-8.6658,1.6305,-10.2278,0.1207,0.1204,0.1094,97,9.238,178,0.0237,1.6061,-1.4336,0.2314,0.1311,0.3721,64
8.409,162,-8.7586,1.8499,-10.0349,0.1732,0.1058,0.0747,97,9.29,179,0.0275,1.7622,-1.3758,0.0785,0.1143,0.371,64
8.461,163,-9.063,1.8055,-9.8458,0.092,0.1087,0.0865,97,9.342,180,0.1836,1.5854,-1.3087,0.1171,0.1004,0.3524,64
8.513,164,-8.9914,1.4678,-9.8823,0.0336,0.1157,0.0046,97,9.394,181,0.1344,1.7363,-1.3003,0.1485,0.1038,0.3567,64
8.565,165,-8.806,1.492,-9.9625,0.0727,0.1363,-0.118,97,9.446,182,0.1461,1.759,-1.3084,0.0939,0.1347,0.3708,64
8.616,166,-8.7679,1.3917,-10.0863,0.0905,0.1894,-0.1714,97,9.497,183,0.0968,1.7125,-1.222,0.0742,0.1218,0.357,64
8.668,167,-8.6749,1.465,-10.0329,0.0859,0.2299,-0.1687,97,9.549,184,0.3171,1.32,-1.1659,0.2393,0.0853,0.3417,64
8.72,168,-8.8448,1.4226,-10.0005,0.0934,0.2813,-0.148,97,9.601,185,0.246,1.3065,-1.3465,0.3647,0.1158,0.3467,64
8.772,169,-9.0398,1.4608,-9.9156,0.1091,0.312,-0.1667,97,9.653,186,0.1624,1.4275,-1.3743,0.3149,0.1678,0.3689,64
8.824,170,-9.1403,1.5627,-9.9376,0.1412,0.3064,-0.2079,97,9.705,187,0.1462,0.9362,-1.2525,0.2579,0.1635,0.3786,64
8.875,171,-9.1419,1.4541,-10.0597,0.1089,0.2985,-0.2486,97,9.756,188,0.1705,1.0789,-1.2662,0.2592,0.125,0.3614,64
8.927,172,-9.0907,1.5267,-10.0399,0.1224,0.267,-0.3062,97,9.808,189,0.1274,1.4072,-1.2948,0.2402,0.1468,0.3722,64
8.979,173,-9.0568,1.4371,-10.0411,0.1016,0.2429,-0.3047,97,9.86,190,0.1601,1.2741,-1.1832,0.1665,0.1511,0.3927,64
9.03,174,-8.8985,1.2201,-10.0079,0.0756,0.2466,-0.302,97,9.912,191,-0.0168,1.641,-1.1044,-0.0389,0.1314,0.3816,64
9.082,175,-8.9429,1.2356,-9.9871,0.1251,0.266,-0.3079,97,9.964,192,0.0212,1.7109,-1.0069,-0.1431,0.0587,0.3553,64
9.134,176,-9.0238,1.2543,-9.9455,0.1112,0.2785,-0.2553,97,10.015,193,0.1596,1.5683,-1.1208,-0.092,0.1307,0.3254,64
9.186,177,-8.9922,1.2454,-10.0025,0.0853,0.2833,-0.1866,97,10.067,194,0.0604,1.2911,-0.9799,0.2537,0.0717,0.3324,64
9.238,178,-8.8719,1.135,-10.1512,0.0781,0.2963,-0.1277,97,10.119,195,-0.0262,1.967,-1.2222,0.3372,0.0759,0.3428,64
9.289,179,-8.9151,1.1416,-10.1917,0.1163,0.289,-0.0848,97,10.17,196,-0.1653,2.2756,-1.1131,0.2963,0.1252,0.3652,64
9.341,180,-9.0627,1.3362,-10.1173,0.1478,0.2441,-0.0301,97,10.222,197,-0.2369,2.4133,-1.0803,0.308,0.1083,0.3836,64
9.393,181,-9.1898,1.4162,-10.1955,0.1458,0.1954,0.0112,97,10.274,198,0.0477,1.9063,-1.1025,-0.0097,0.0658,0.3815,64
9.445,182,-8.9944,1.3262,-10.0967,0.1402,0.1664,0.0154,97,10.326,199,-0.0106,1.6773,-1.0784,0.0069,0.0212,0.3605,64
9.497,183,-9.0192,1.3877,-10.0103,0.147,0.1575,0.004,97,10.378,200,0.1211,1.5699,-1.3379,0.0268,-0.0058,0.3557,64
9.548,184,-9.0509,1.3982,-9.9777,0.1391,0.1661,-0.0012,97,10.429,201,0.1734,1.6538,-1.2229,0.1658,0.0664,0.3462,64
9.601,185,-8.9278,1.3653,-9.924,0.0865,0.1848,0.0283,97,10.481,202,0.1429,1.625,-1.3196,0.2264,0.0867,0.3586,64
9.652,186,-8.8436,1.1415,-10.0475,0.0424,0.2207,0.0553,97,10.533,203,0.0875,1.6587,-1.2971,0.2797,0.1229,0.3689,64
9.704,187,-8.8529,0.9394,-10.046,0.0242,0.2641,0.0652,97,10.585,204,-0.0056,1.8248,-1.2267,0.2682,0.125,0.3783,64
9.756,188,-8.8183,1.0487,-9.9402,0.088,0.2824,0.0731,97,10.636,205,0.0759,1.5734,-1.2411,0.2261,0.1187,0.3801,64
9.807,189,-8.9807,1.1527,-9.9128,0.1422,0.3025,0.0881,97,10.688,206,0.0703,1.7641,-1.1978,0.1978,0.1087,0.3784,64
9.859,190,-9.1015,1.2693,-9.9094,0.2193,0.2953,0.0495,97,10.74,207,0.2066,1.2597,-1.2266,0.0479,0.1081,0.3733,64
9.911,191,-9.1874,1.4879,-9.995,0.1855,0.2692,0.0248,97,10.792,208,0.1012,1.3779,-1.1807,-0.0241,0.1005,0.356,64
9.963,192,-9.1058,1.4317,-10.0995,0.0829,0.2491,0.0094,97,10.844,209,0.1767,1.1864,-1.1804,-0.0999,0.0511,0.3299,64
10.015,193,-8.879,1.2719,-10.0901,0.0123,0.2376,-0.0325,97,10.895,210,0.2051,1.1308,-1.2522,0.0179,0.0487,0.3212,64
10.066,194,-8.8141,1.0215,-10.0338,0.0025,0.255,-0.0738,97,10.947,211,0.1883,1.2482,-1.2948,0.1572,0.059,0.3241,64
10.118,195,-8.8571,0.984,-9.9087,0.0512,0.2857,-0.1103,97,10.999,212,0.1441,1.421,-1.3286,0.2189,0.0771,0.3363,64
10.17,196,-8.9922,1.0103,-9.9505,0.1413,0.3031,-0.1357,97,11.051,213,0.0796,1.5782,-1.2625,0.2366,0.0825,0.3442,64
10.222,197,-9.0687,1.035,-10.0451,0.1839,0.2929,-0.157,97,11.103,214,0.1384,1.534,-1.3136,0.2824,0.0954,0.3378,64
10.274,198,-9.0642,1.1646,-10.0913,0.2044,0.2607,-0.1767,97,11.154,215,0.1655,1.5335,-1.4176,0.3736,0.1213,0.3602,64
10.325,199,-9.0388,1.1578,-10.1126,0.131,0.2357,-0.1783,97,11.206,216,0.0888,1.6602,-1.3741,0.3808,0.1554,0.3875,64
10.377,200,-9.0227,1.1869,-10.0592,0.1178,0.2146,-0.1951,97,11.258,217,0.0943,1.6652,-1.259,0.2132,0.136,0.3944,64
10.429,201,-8.9669,1.0782,-10.004,0.0549,0.2152,-0.1859,97,11.31,218,-0.1403,1.8955,-1.1137,0.0362,0.086,0.368,64
10.481,202,-8.8554,1.1107,-9.9372,0.0306,0.2173,-0.1618,97,11.361,219,-0.061,1.8049,-1.2693,-0.0965,0.0251,0.3572,64
10.533,203,-8.7387,0.9599,-9.9256,0.0378,0.2432,-0.1328,97,11.413,220,0.033,1.8527,-1.2877,-0.0594,0.0137,0.3577,64
10.584,204,-8.71,0.9048,-9.8908,0.0654,0.2934,-0.1172,97,11.465,221,0.0531,1.7536,-1.3988,0.0099,0.0243,0.3638,64
10.636,205,-8.7851,1.0194,-9.9317,0.1628,0.3318,-0.1123,97,11.517,222,0.0499,1.7553,-1.3739,-0.0119,0.0296,0.3679,64
10.688,206,-8.8689,1.0733,-9.9493,0.18,0.356,-0.0965,97,11.569,223,0.093,1.5371,-1.3978,-0.0729,0.0381,0.3601,64
10.74,207,-8.8711,1.1121,-9.9393,0.1843,0.3734,-0.1053,97,11.62,224,0.1455,1.5577,-1.4916,-0.078,0.0298,0.3366,64
10.791,208,-8.8308,1.0203,-10.0584,0.1996,0.3839,-0.1556,97,11.672,225,0.1508,1.5018,-1.2549,0.0478,0.0878,0.2997,64
10.843,209,-8.8248,0.998,-10.128,0.2245,0.3617,-0.2204,97,11.724,226,0.0611,1.4671,-1.1716,0.2564,0.0687,0.2967,64
10.895,210,-8.8691,1.0767,-10.097,0.2363,0.3029,-0.2667,97,11.776,227,0.0488,1.5748,-1.3287,0.2994,0.0784,0.3023,64
10.947,211,-8.7865,1.1174,-9.9784,0.2005,0.2478,-0.2663,97,11.827,228,0.1066,1.4892,-1.4458,0.2561,0.0911,0.3311,64
10.999,212,-8.505,1.0647,-9.9248,0.099,0.2471,-0.2132,97,11.879,229,0.1457,1.4363,-1.4914,0.2261,0.1124,0.3611,64
11.05,213,-8.3075,0.7172,-9.9726,0.0216,0.2817,-0.1867,97,11.931,230,0.1121,1.4579,-1.4693,0.1908,0.1337,0.3835,64
11.102,214,-8.3013,0.6014,-9.898,0.0247,0.3234,-0.1541,97,11.983,231,0.1137,1.205,-1.4826,0.1416,0.1301,0.3832,64
11.154,215,-8.4049,0.5614,-9.8724,0.0674,0.3468,-0.1102,97,12.035,232,0.1759,1.1142,-1.5245,0.1045,0.1247,0.3794,64
11.206,216,-8.5032,0.5163,-9.9402,0.1189,0.3492,-0.0614,97,12.086,233,0.1021,1.3085,-1.4261,0.0912,0.128,0.38,64
11.258,217,-8.4959,0.5835,-10.0112,0.1165,0.3346,0.0022,97,12.138,234,0.0629,1.2543,-1.4319,0.0285,0.1217,0.3838,64
11.309,218,-8.4905,0.5649,-10.0882,0.0843,0.3167,0.0688,97,12.19,235,0.0488,1.4216,-1.3881,-0.0642,0.0937,0.3805,64
11.361,219,-8.4681,0.6129,-10.0441,0.0891,0.2852,0.1116,97,12.241,236,0.0993,1.2958,-1.4452,-0.1046,0.0837,0.3786,64
11.413,220,-8.355,0.7949,-9.9978,0.0967,0.2687,0.1365,97,12.293,237,0.1229,1.2539,-1.4124,-0.0765,0.0849,0.3704,64
11.465,221,-8.3914,0.876,-10.0013,0.0846,0.281,0.1536,97,12.345,238,0.1254,1.1666,-1.4073,0.0195,0.0775,0.3534,64
11.517,222,-8.4161,0.865,-9.9912,0.0612,0.2821,0.1376,97,12.397,239,0.0908,1.1617,-1.4382,0.154,0.0826,0.3335,64
11.568,223,-8.4803,0.911,-9.9768,0.0738,0.2593,0.0708,97,12.449,240,0.1304,1.3262,-1.4457,0.1698,0.0786,0.3322,64
11.62,224,-8.4199,0.9788,-9.9302,0.1098,0.2154,-0.0172,97,12.5,241,0.1146,1.4049,-1.4187,0.1923,0.0935,0.3461,64
11.672,225,-8.3273,0.8721,-9.9184,0.0935,0.1955,-0.0799,97,12.553,242,0.098,1.4349,-1.4241,0.2091,0.099,0.3578,64
11.724,226,-8.2427,0.8169,-9.9174,0.0721,0.2045,-0.1225,97,12.604,243,0.0926,1.5036,-1.4315,0.1956,0.1176,0.3718,64
11.776,227,-8.2216,0.8405,-9.8575,0.0921,0.2266,-0.1401,97,12.656,244,0.0934,1.4395,-1.3744,0.1792,0.1271,0.3809,64
11.827,228,-8.2415,0.7414,-9.8278,0.0753,0.2498,-0.1266,97,12.708,245,0.0965,1.6264,-1.4032,0.137,0.1193,0.3888,64
11.879,229,-8.2437,0.6461,-9.7129,0.0748,0.2819,-0.0945,97,12.76,246,0.1071,1.6088,-1.307,0.0954,0.1438,0.3959,64
11.931,230,-8.1264,0.497,-9.6356,0.063,0.3446,-0.0506,97,12.812,247,0.1834,1.431,-1.3592,-0.0564,0.1602,0.4089,64
11.983,231,-8.0847,0.5576,-9.7969,0.1069,0.3933,-0.0106,97,12.863,248,0.1529,1.4542,-1.3263,-0.1291,0.2158,0.4304,64
12.034,232,-8.1238,0.6,-9.9504,0.1252,0.4052,0.0397,97,12.915,249,0.0565,1.2187,-1.0853,-0.1275,0.1901,0.4242,64
12.086,233,-8.1855,0.6589,-10.0073,0.1326,0.3861,0.0862,97,12.967,250,0.1284,1.2001,-1.1639,-0.1463,0.1211,0.3915,64
12.138,234,-8.2534,0.7879,-10.0773,0.1335,0.3593,0.1087,97,13.019,251,0.1613,1.1519,-1.124,-0.1154,0.1177,0.3684,64
12.19,235,-8.2268,0.8439,-10.0427,0.0897,0.3158,0.1099,97,13.071,252,0.2027,1.2672,-1.1304,-0.0602,0.0999,0.3469,64
12.242,236,-8.2246,0.8266,-10.005,0.071,0.2772,0.0718,97,13.122,253,0.1354,1.1277,-1.0152,0.0631,0.127,0.3191,64
12.293,237,-8.2292,0.8223,-9.9806,0.0809,0.2426,0.0149,97,13.174,254,0.0801,1.2665,-0.9295,0.1089,0.0743,0.3026,64
12.345,238,-8.1151,0.7629,-9.9545,0.0705,0.2099,-0.0338,97,13.226,255,0.0773,1.3619,-1.0749,0.152,0.0505,0.296,64
12.397,239,-8.0641,0.6834,-9.9586,0.0706,0.1889,-0.0765,97,13.278,256,0.1294,1.3701,-1.2439,0.1282,0.0558,0.2782,64
12.449,240,-8.0733,0.5892,-9.8847,0.083,0.1818,-0.108,97,13.33,257,0.1862,1.6166,-1.4644,0.0462,0.1047,0.2624,64
12.501,241,-8.0192,0.5274,-9.8259,0.0132,0.2185,-0.0975,97,13.381,258,0.129,1.1257,-1.3016,-0.1325,0.1332,0.2387,64
12.552,242,-8.1247,0.5135,-9.8615,0.0119,0.2401,-0.0539,97,13.433,259,0.0179,1.4806,-0.3303,0.0813,0.1059,0.2548,64
12.604,243,-8.0637,0.8956,-9.7734,0.0117,0.2557,-0.0135,97,13.485,260,0.1194,1.3293,-0.6955,0.1709,0.0932,0.2831,64
12.656,244,-8.2276,0.63,-9.893,0.0173,0.2826,0.037,97,13.537,261,0.0075,1.2947,-0.7386,0.3351,0.0659,0.2792,64
12.708,245,-8.1331,0.6669,-9.9223,-0.0745,0.2847,0.1134,97,13.589,262,0.0764,1.2213,-0.9936,0.3564,0.045,0.2958,64
12.76,246,-7.9027,0.6462,-9.848,-0.0388,0.2793,0.1058,97,13.64,263,0.0008,1.6944,-1.0243,0.4253,0.0516,0.3171,64
12.811,247,-7.7305,0.8781,-9.7326,0.0449,0.2819,0.05,97,13.692,264,0.0123,1.6157,-1.1174,0.4213,0.0337,0.3223,64
12.863,248,-7.8205,0.7341,-9.7422,-0.0107,0.3817,0.0699,97,13.744,265,0.0187,1.6673,-1.1744,0.4611,0.0077,0.3304,64
12.915,249,-7.8804,0.4003,-9.5895,-0.0557,0.4944,0.1287,97,13.796,266,0.0259,1.6564,-1.2634,0.4114,-0.0052,0.3436,64
12.967,250,-7.7314,0.1987,-9.6854,0.035,0.5593,0.1678,97,13.848,267,-0.0622,1.654,-1.5413,0.4053,-0.0026,0.3414,64
13.019,251,-7.7959,0.4964,-9.9781,0.2726,0.5438,0.1124,97,13.899,268,-0.011,1.7524,-1.5732,0.4835,0.0268,0.3653,64
13.07,252,-7.5082,0.9531,-9.8751,0.326,0.4208,-0.0348,97,13.951,269,-0.1008,1.9493,-1.6069,0.4185,0.0465,0.3909,64
13.122,253,-7.541,0.3629,-10.1361,0.4253,0.2842,-0.1929,97,14.003,270,-0.1136,1.8325,-1.6952,0.3022,0.0649,0.4026,64
13.174,254,-7.6113,0.5244,-9.989,0.2428,0.1663,-0.1792,97,14.055,271,0.0094,1.6765,-1.7327,0.2588,0.0677,0.4091,64
13.226,255,-7.6478,0.287,-9.8647,0.1671,0.0994,-0.2691,97,14.107,272,-0.0599,2.1713,-1.6825,0.1396,0.0673,0.4394,64
13.278,256,-7.7746,0.4665,-9.7502,0.2543,0.0408,-0.3656,97,14.158,273,-0.0925,1.9918,-1.6511,-0.0945,0.0407,0.4553,64
13.329,257,-7.7167,0.5435,-9.7731,0.249,0.0078,-0.4431,97,14.21,274,0.099,1.5766,-1.8528,-0.2027,0.0232,0.4555,64
13.381,258,-7.6111,0.5526,-9.6982,0.2545,0.0088,-0.5472,97,14.262,275,0.1498,1.6126,-1.7714,-0.1643,0.0771,0.4334,64
13.433,259,-7.8226,0.3924,-9.6783,0.2395,0.0531,-0.6338,97,14.314,276,0.0853,1.5342,-1.8188,-0.1474,0.1228,0.4097,64
13.485,260,-7.8673,0.2868,-9.6222,0.2153,0.1141,-0.6469,97,14.366,277,0.1691,1.2647,-1.564,-0.0088,0.1261,0.3695,64
13.536,261,-8.0054,0.0675,-9.7261,0.2158,0.1659,-0.6249,97,14.417,278,0.1586,1.3238,-1.5897,0.0622,0.1284,0.3018,64
13.588,262,-8.1717,0.1255,-9.7355,0.2254,0.1952,-0.5527,97,14.469,279,0.2147,1.4214,-1.6247,-0.0187,0.1354,0.266,64
13.64,263,-8.2345,0.0322,-9.8067,0.2243,0.203,-0.468,97,14.521,280,-0.0508,1.6932,-1.5477,-0.0802,0.1356,0.2653,64
13.692,264,-8.1447,0.1812,-9.789,0.1532,0.216,-0.3645,97,14.573,281,0.1137,1.8804,-1.5654,-0.1092,0.0796,0.2751,64
13.744,265,-8.2105,0.2401,-9.799,0.1202,0.2482,-0.2729,97,14.624,282,0.1047,1.9224,-1.4521,-0.1307,0.097,0.3068,64
13.796,266,-8.2084,0.1918,-9.8002,0.0804,0.2452,-0.1122,97,14.676,283,0.1186,1.8652,-1.6558,-0.0684,0.1309,0.3536,64
13.847,267,-8.0619,-0.2407,-9.5845,-0.1928,0.2475,0.1456,97,14.728,284,0.1325,1.6829,-1.4658,0.0396,0.1625,0.4031,64
13.899,268,-8.1861,-0.2308,-9.6825,-0.3298,0.2562,0.3719,97,14.78,285,0.3399,1.5007,-1.4567,0.0961,0.1852,0.4798,64
13.951,269,-7.7379,0.1964,-9.6846,-0.0842,0.251,0.4121,97,14.831,286,0.2416,1.4909,-1.1887,0.1552,0.1994,0.5242,64
14.003,270,-7.8777,0.4152,-9.7277,-0.1351,0.2702,0.49,97,14.883,287,0.1263,1.4037,-0.8984,0.1399,0.1813,0.5303,64
14.055,271,-7.9026,0.3445,-9.7443,-0.172,0.2994,0.7157,97,14.935,288,0.1636,1.3,-0.9497,0.2049,0.146,0.504,64
14.106,272,-7.6969,1.3752,-9.5994,-0.7655,0.382,0.8423,97,14.987,289,0.1757,1.2682,-0.9304,0.2122,0.1253,0.4885,64
14.158,273,-7.5476,2.2548,-8.1288,-0.7736,0.5066,0.5669,97,15.039,290,0.2029,1.2387,-0.9138,0.2141,0.1046,0.4662,64
14.21,274,-7.0992,2.4822,-6.3429,-1.1555,0.9113,0.3442,97,15.09,291,0.2575,1.1374,-1.0458,0.185,0.0921,0.4331,64
14.262,275,-5.6056,2.2048,-7.5236,-0.5865,1.4111,-0.0731,97,15.142,292,0.2405,1.2555,-1.065,0.2321,0.1023,0.395,64
14.314,276,-4.4615,1.8562,-8.2259,-0.2926,1.663,-0.3449,97,15.194,293,0.2628,1.3093,-1.1376,0.1856,0.1062,0.3686,64
14.365,277,-8.5164,0.4839,-11.3941,0.3934,1.8656,-0.4302,97,15.246,294,0.2569,0.9538,-1.1874,0.2842,0.1333,0.327,64
14.417,278,-8.0642,-0.0522,-12.5079,0.1784,1.4344,-0.2158,97,15.297,295,0.2134,0.8747,-1.0954,0.3701,0.1105,0.2728,64
14.469,279,-6.8986,0.9452,-11.3724,-0.1031,1.2128,0.0345,97,15.349,296,0.1409,1.5229,-1.1819,0.2863,0.042,0.2635,64
14.521,280,-6.0409,1.7902,-10.4716,-0.0956,0.9958,0.1081,97,15.401,297,0.1948,1.5609,-1.3073,0.2204,0.0257,0.2956,64
14.573,281,-5.3998,1.8343,-9.6427,-0.0133,0.8009,0.0455,97,15.453,298,0.2038,1.4833,-1.3559,0.159,0.0516,0.3208,64
14.624,282,-5.1887,1.6585,-9.3433,0.0658,0.6463,-0.0012,97,15.505,299,0.139,1.5405,-1.2882,0.1619,0.0765,0.3277,64
14.676,283,-4.7133,1.7364,-8.9569,0.1483,0.5122,-0.0725,97,15.556,300,0.1217,1.589,-1.1774,0.1421,0.0618,0.3268,64
14.728,284,-4.0895,1.942,-8.5695,0.1229,0.4138,-0.0939,97,15.608,301,0.1583,1.5369,-1.2978,0.1001,0.0518,0.3172,64
14.78,285,-3.8477,2.1224,-8.4369,0.1335,0.3306,-0.0995,97,15.66,302,0.1372,1.4651,-1.373,0.0684,0.1098,0.3051,64
14.832,286,-3.792,2.0948,-7.9505,0.0918,0.2755,-0.0914,97,15.712,303,0.0502,1.4961,-1.2659,0.0945,0.1308,0.2937,64
14.883,287,-3.5443,2.1315,-8.2263,0.0195,0.259,-0.0937,97,15.764,304,0.0986,1.5968,-1.0827,0.0799,0.1149,0.2776,64
14.935,288,-3.6287,2.3546,-8.1843,0.1068,0.1974,-0.216,97,15.815,305,0.0753,1.475,-1.1123,0.1974,0.0409,0.2686,64
14.987,289,-3.8409,2.3931,-8.3942,0.2022,0.149,-0.405,97,15.867,306,0.1478,1.5321,-1.2967,0.4328,0.0229,0.265,64
