right_leg_timestamp,right_leg_index,right_leg_accel_x,right_leg_accel_y,right_leg_accel_z,right_leg_gyro_x,right_leg_gyro_y,right_leg_gyro_z,right_leg_battery_percentage,left_leg_timestamp,left_leg_index,left_leg_accel_x,left_leg_accel_y,left_leg_accel_z,left_leg_gyro_x,left_leg_gyro_y,left_leg_gyro_z,left_leg_battery_percentage
0.712,13,5.7304,-0.416,-17.5946,-0.1128,-0.7707,0.2419,88,0.179,3,8.7088,2.3636,-9.8666,-0.0715,-0.1308,0.0415,51
0.764,14,5.3089,-0.2523,-17.467,-0.1751,-0.7031,0.2498,88,0.231,4,8.7286,2.2453,-9.9258,-0.071,-0.0998,0.0283,51
0.816,15,4.9843,-0.204,-17.5593,-0.1598,-0.6021,0.2372,88,0.283,5,8.7898,2.0369,-9.9687,-0.056,-0.0746,0.0084,51
0.868,16,4.8774,-0.1994,-17.7067,-0.1324,-0.499,0.2189,88,0.335,6,8.714,2.3167,-9.9982,-0.0015,-0.028,-0.0189,51
0.92,17,4.9564,-0.2555,-17.8672,-0.1087,-0.3789,0.1708,88,0.386,7,8.7135,2.2959,-10.0321,-0.1089,0.0117,-0.041,51
0.971,18,4.9551,-0.2627,-18.0418,-0.1392,-0.2623,0.1431,88,0.438,8,8.6017,2.3042,-9.9015,-0.1136,0.0418,-0.0498,51
1.023,19,4.8877,-0.2295,-18.0729,-0.1676,-0.1775,0.1395,88,0.49,9,8.7254,2.0833,-9.9381,-0.0408,0.059,-0.0449,51
1.075,20,4.8351,-0.3353,-18.2018,-0.1221,-0.1125,0.1125,88,0.542,10,8.7112,2.1287,-9.9617,-0.11,0.0876,-0.0727,51
1.127,21,4.6665,-0.384,-18.2511,-0.0801,-0.0573,0.0741,88,0.594,11,8.6367,2.162,-9.7248,-0.0194,0.1315,-0.082,51
1.179,22,4.4083,-0.2253,-18.254,-0.1271,0.0511,0.0903,88,0.645,12,8.7057,2.0086,-9.6549,0.1145,0.1076,-0.0628,51
1.23,23,4.4531,-0.1267,-18.3949,-0.1623,0.1474,0.0797,88,0.697,13,8.5993,2.4145,-9.593,0.1445,0.0683,-0.0344,51
1.282,24,4.7629,-0.1283,-18.4229,-0.1049,0.1777,0.0007,88,0.749,14,8.5453,2.5102,-9.5354,0.1476,0.0328,-0.0011,51
1.334,25,4.7061,-0.0919,-18.4708,-0.0404,0.1521,-0.0578,88,0.801,15,8.4365,2.6978,-9.6081,-0.0278,-0.0115,-0.0057,51
1.386,26,4.6056,-0.0952,-18.5464,0.0214,0.12,-0.0574,88,0.853,16,8.7415,2.2779,-9.7704,-0.0093,0.006,-0.0159,51
1.437,27,4.5321,-0.1083,-18.5229,0.024,0.0834,-0.0569,88,0.905,17,8.7265,2.3934,-9.6784,-0.032,0.0364,-0.0442,51
1.489,28,4.4069,-0.2253,-18.3108,0.1061,0.0241,-0.0699,88,0.956,18,8.6735,2.5105,-9.6204,0.1003,0.0499,-0.0248,51
1.541,29,4.2752,-0.4254,-18.2554,0.224,0.0347,-0.0668,88,1.008,19,8.6192,2.6915,-9.5656,0.1273,0.0313,-0.0025,51
1.593,30,4.2116,-0.5035,-18.3106,0.1475,0.0044,-0.0684,88,1.06,20,8.564,2.6553,-9.601,0.095,-0.004,0.0251,51
1.645,31,4.2603,-0.9156,-18.3964,0.195,0.031,-0.0431,88,1.112,21,8.5663,2.6154,-9.6077,0.0591,-0.0348,0.0417,51
1.696,32,4.267,-0.9589,-18.5611,0.1254,-0.0391,-0.0135,88,1.163,22,8.6605,2.3973,-9.7289,0.0551,-0.0327,0.0433,51
1.748,33,4.2505,-0.821,-18.534,0.0879,-0.0696,0.039,88,1.215,23,8.6285,2.572,-9.7089,0.0398,-0.036,0.0467,51
1.8,34,4.3295,-0.7483,-18.4682,0.0325,-0.0822,0.0826,88,1.267,24,8.6227,2.5623,-9.6496,-0.0564,-0.0441,0.0461,51
1.852,35,4.4332,-0.7054,-18.4242,0.0193,-0.069,0.1062,88,1.319,25,8.7171,2.4155,-9.7389,-0.1826,-0.0807,0.0409,51
1.904,36,4.4803,-0.6192,-18.4521,0.0088,-0.0475,0.1283,88,1.371,26,8.7476,2.3931,-9.7549,-0.1911,-0.0846,0.0308,51
1.956,37,4.5254,-0.5999,-18.4522,-0.0227,-0.0101,0.1546,88,1.422,27,8.7504,2.2558,-9.8113,-0.2186,-0.0789,0.0155,51
2.007,38,4.495,-0.504,-18.4759,-0.0492,0.0282,0.1605,88,1.474,28,8.6937,2.3928,-9.8085,-0.2031,-0.0653,0.0059,51
2.059,39,4.4451,-0.4693,-18.5861,-0.0295,0.0337,0.127,88,1.526,29,8.6825,2.3072,-9.7791,-0.1827,-0.0615,0.0025,51
2.111,40,4.418,-0.4814,-18.6369,0.0042,0.0284,0.0893,88,1.577,30,8.699,2.3263,-9.7937,-0.1624,-0.0573,-0.0031,51
2.163,41,4.3424,-0.469,-18.6946,-0.0144,0.0167,0.0656,88,1.629,31,8.6694,2.2831,-9.7302,-0.1428,-0.0506,-0.0058,51
2.215,42,4.3074,-0.51,-18.666,-0.0171,-0.0047,0.0547,88,1.681,32,8.6902,2.3557,-9.7991,-0.1168,-0.0534,-0.006,51
2.266,43,4.4124,-0.547,-18.5468,-0.0034,-0.0311,0.0455,88,1.733,33,8.6683,2.3121,-9.8038,-0.1005,-0.0379,-0.0105,51
2.318,44,4.517,-0.5596,-18.4851,-0.002,-0.0307,0.0234,88,1.785,34,8.6468,2.3678,-9.8111,-0.0964,-0.0292,-0.0154,51
2.37,45,4.6043,-0.534,-18.5054,-0.0211,-0.0106,0.0151,88,1.836,35,8.6627,2.2902,-9.7621,-0.0618,-0.0295,-0.0144,51
2.422,46,4.6278,-0.4428,-18.5249,-0.0518,0.019,0.0409,88,1.888,36,8.7032,2.3089,-9.8162,-0.074,-0.0193,-0.0257,51
2.473,47,4.6471,-0.4143,-18.5721,-0.0847,0.0326,0.0676,88,1.94,37,8.6689,2.3359,-9.7722,-0.0607,-0.0062,-0.0362,51
2.525,48,4.5616,-0.3925,-18.5412,-0.076,0.0308,0.0439,88,1.992,38,8.6595,2.2795,-9.7423,-0.0153,-0.0113,-0.0328,51
2.577,49,4.4642,-0.3997,-18.5111,-0.0162,0.0338,0.0078,88,2.043,39,8.6892,2.4956,-9.8289,0.2758,0.0344,-0.0182,51
2.629,50,4.4949,-0.4305,-18.5843,0.0185,0.0333,-0.0083,88,2.095,40,8.6754,2.6664,-9.9122,0.2715,0.0284,-0.0171,51
2.681,51,4.5389,-0.4565,-18.6589,0.0138,0.0397,-0.0179,88,2.147,41,8.661,2.5922,-9.9532,0.2556,0.0371,-0.0169,51
2.732,52,4.5694,-0.3819,-18.5975,0.0136,0.0412,-0.032,88,2.199,42,8.6034,2.6687,-9.9218,0.2369,0.0398,-0.0104,51
2.784,53,4.5708,-0.2643,-18.4758,-0.0246,0.0561,-0.0347,88,2.251,43,8.6022,2.6096,-9.87,0.1881,0.022,0.0001,51
2.836,54,4.4927,-0.247,-18.4084,-0.0264,0.0721,-0.0407,88,2.302,44,8.5183,2.6998,-9.9726,0.0741,0.0012,0.0022,51
2.887,55,4.4618,-0.4139,-18.425,0.0082,0.0862,-0.0795,88,2.354,45,8.7571,2.239,-10.0219,0.0472,-0.0167,0.0126,51
2.939,56,4.4558,-0.5816,-18.4438,0.0576,0.0807,-0.1282,88,2.406,46,8.7317,2.3842,-10.0035,0.1159,0.0048,0.0206,51
2.991,57,4.4095,-0.7054,-18.5744,0.124,0.0521,-0.1439,88,2.458,47,8.7073,2.4581,-9.9645,0.1927,0.0195,0.0348,51
3.043,58,4.3689,-0.7994,-18.7295,0.1437,0.0167,-0.1319,88,2.51,48,8.7046,2.4711,-10.0714,0.1672,0.0238,0.0505,51
3.095,59,4.3154,-0.8749,-18.7679,0.1192,-0.0204,-0.0828,88,2.561,49,8.5799,2.5732,-10.0297,0.0672,0.043,0.0352,51
3.147,60,4.2418,-0.8686,-18.6963,0.1033,-0.0499,-0.0058,88,2.613,50,8.5692,2.3272,-9.9015,0.1051,0.0547,0.0367,51
3.199,61,4.2396,-0.7655,-18.5799,0.0423,-0.065,0.0908,88,2.665,51,8.5485,2.411,-9.938,0.0127,0.015,0.0418,51
3.25,62,4.2687,-0.7485,-18.4706,-0.014,-0.0675,0.165,88,2.717,52,8.5814,2.4888,-10.0564,-0.1549,-0.0054,0.0212,51
3.302,63,4.458,-0.7629,-18.4126,-0.0294,-0.0596,0.1897,88,2.768,53,8.649,2.2398,-10.09,-0.2563,-0.0104,-0.0024,51
3.354,64,4.6119,-0.6917,-18.4473,-0.0489,-0.0404,0.1919,88,2.82,54,8.6956,2.0186,-10.0316,-0.2325,0.004,-0.0226,51
3.406,65,4.681,-0.583,-18.5129,-0.0696,-0.0279,0.2014,88,2.872,55,8.659,2.1785,-9.9544,-0.1981,-0.0115,-0.0256,51
3.458,66,4.7888,-0.5082,-18.4932,-0.0814,-0.0173,0.1855,88,2.924,56,8.7199,2.1636,-9.9934,-0.1938,-0.0369,-0.02,51
3.509,67,4.8329,-0.4502,-18.4245,-0.089,0.0049,0.1485,88,2.976,57,8.7066,2.1456,-9.9282,-0.1338,-0.0219,-0.0306,51
3.561,68,4.8116,-0.4093,-18.3858,-0.0904,0.0308,0.1061,88,3.027,58,8.7049,2.0275,-9.8653,-0.0414,-0.0041,-0.0415,51
3.613,69,4.8021,-0.4082,-18.4171,-0.0849,0.0489,0.0618,88,3.079,59,8.6389,2.475,-9.959,-0.0208,-0.004,-0.0507,51
3.664,70,4.8145,-0.4871,-18.4968,-0.0875,0.0516,0.0314,88,3.131,60,8.6808,2.2911,-9.9319,-0.0188,0.014,-0.0615,51
3.716,71,4.8182,-0.5029,-18.5808,-0.089,0.047,0.0088,88,3.183,61,8.5972,2.3913,-9.86,0.0285,0.0314,-0.0575,51
3.768,72,4.7737,-0.5077,-18.5866,-0.0858,0.0247,-0.014,88,3.234,62,8.5951,2.4359,-9.8308,0.1452,0.0402,-0.0334,51
3.82,73,4.7085,-0.4752,-18.4804,-0.0753,0.0165,-0.0424,88,3.286,63,8.6821,2.4527,-9.9211,0.1158,0.0082,-0.0099,51
3.872,74,4.6728,-0.3773,-18.2877,-0.0612,0.0216,-0.0535,88,3.338,64,8.7261,2.3828,-9.9919,0.1581,0.0307,-0.0027,51
3.923,75,4.5484,-0.3867,-18.2452,-0.0108,0.0375,-0.0617,88,3.39,65,8.6504,2.4992,-9.9329,0.1502,0.0372,0.001,51
3.975,76,4.5411,-0.4864,-18.3227,0.0457,0.0568,-0.087,88,3.442,66,8.6079,2.5144,-9.9186,0.1591,0.0293,0.0103,51
4.027,77,4.6823,-0.6494,-18.389,0.0764,0.0722,-0.1277,88,3.493,67,8.6894,2.4417,-9.889,0.1542,0.0413,0.0101,51
4.079,78,4.7722,-0.645,-18.4352,0.1311,0.0738,-0.1114,88,3.545,68,8.6903,2.4637,-9.7927,0.1779,0.0211,0.0291,51
4.131,79,4.7851,-0.5544,-18.4449,0.126,0.0801,-0.093,88,3.597,69,8.6894,2.4765,-9.9349,0.1835,0.0188,0.0502,51
4.182,80,4.7895,-0.5164,-18.314,0.1004,0.0845,-0.0867,88,3.649,70,8.384,2.9015,-9.7085,0.0952,0.0616,0.0195,51
4.234,81,4.7618,-0.5499,-18.1833,0.1452,0.0907,-0.1114,88,3.701,71,9.6069,1.5214,-9.8042,-0.1016,-0.0769,0.0471,51
4.286,82,4.654,-0.5851,-18.1709,0.1905,0.1074,-0.1518,88,3.752,72,9.4922,2.4218,-9.7839,-0.0896,-0.1077,0.0376,51
4.338,83,4.5988,-0.6037,-18.2586,0.2469,0.1062,-0.1664,88,3.804,73,9.3149,2.2256,-9.8126,-0.0428,-0.073,0.0217,51
4.389,84,4.7258,-0.6101,-18.3485,0.2225,0.0945,-0.1552,88,3.856,74,9.099,2.4598,-9.8961,-0.0767,-0.0612,0.0005,51
4.441,85,4.8782,-0.623,-18.4044,0.1697,0.0728,-0.1401,88,3.908,75,8.8503,2.4646,-9.7054,0.0491,-0.0002,-0.0159,51
4.493,86,4.9924,-0.6007,-18.3548,0.1024,0.051,-0.1188,88,3.96,76,8.8186,2.433,-9.7205,0.0357,-0.0159,-0.0195,51
4.545,87,5.0434,-0.5759,-18.2284,0.0508,0.0383,-0.0921,88,4.011,77,8.7271,2.592,-9.77,0.0579,-0.0217,-0.012,51
4.597,88,5.0981,-0.5571,-18.0845,0.0365,0.0493,-0.0705,88,4.063,78,8.5904,2.6368,-9.7611,-0.078,-0.0238,-0.0266,51
4.648,89,5.1855,-0.5486,-18.0729,0.0284,0.0763,-0.056,88,4.115,79,8.8755,2.1513,-9.7927,-0.0765,-0.0258,-0.0217,51
4.7,90,5.1953,-0.5175,-18.1186,0.0165,0.0836,-0.0389,88,4.167,80,8.8338,2.404,-9.8348,-0.0126,-0.0209,-0.0201,51
4.752,91,5.1495,-0.5378,-18.1978,0.015,0.0685,-0.0333,88,4.218,81,8.744,2.4599,-9.8567,0.0396,-0.02,-0.0045,51
4.804,92,5.0713,-0.625,-18.1456,0.0034,0.0464,-0.0492,88,4.27,82,8.7399,2.4571,-9.9205,0.0315,-0.0235,0.0039,51
4.856,93,5.0173,-0.6015,-17.9323,-0.016,0.0447,-0.0749,88,4.322,83,8.6177,2.4925,-9.8903,0.0418,-0.0365,0.0189,51
4.908,94,5.0493,-0.6888,-17.9329,-0.0033,0.0508,-0.0825,88,4.374,84,8.6436,2.4944,-9.9665,0.0734,-0.0643,0.0476,51
4.959,95,5.2197,-0.833,-18.0897,0.0488,0.0385,-0.0841,88,4.425,85,8.6755,2.4719,-10.1281,0.0737,-0.061,0.0617,51
5.011,96,5.3045,-0.9153,-18.2626,0.0196,0.0167,-0.0533,88,4.477,86,8.6153,2.5235,-10.1108,0.0055,-0.0248,0.0391,51
5.063,97,5.2364,-0.838,-18.2589,-0.0203,-0.0181,0.0459,88,4.529,87,8.6043,2.3363,-10.0451,0.0187,0.0173,0.0224,51
5.115,98,5.222,-0.68,-18.1388,-0.0835,-0.0396,0.125,88,4.581,88,8.6001,2.3557,-9.9513,0.0035,0.0005,0.0227,51
5.166,99,5.2718,-0.6312,-18.0398,-0.0761,-0.0472,0.1363,88,4.633,89,8.4036,2.6682,-9.8877,-0.0409,-0.0359,0.0268,51
5.218,100,5.2357,-0.7008,-18.0999,-0.0131,-0.057,0.1055,88,4.684,90,8.586,2.3675,-9.9502,-0.1535,-0.1053,0.0444,51
5.27,101,5.2374,-0.7254,-18.1667,0.0038,-0.057,0.0961,88,4.736,91,8.7203,2.4266,-10.1268,-0.2196,-0.1371,0.0461,51
5.322,102,5.332,-0.6955,-18.2018,-0.0574,-0.0588,0.1149,88,4.788,92,8.79,2.1015,-10.1587,-0.2141,-0.1091,0.0185,51
5.374,103,5.4115,-0.6205,-18.1615,-0.0914,-0.0526,0.1543,88,4.84,93,8.714,2.1388,-10.178,-0.1002,-0.0961,0.0183,51
5.425,104,5.3559,-0.4114,-18.0947,-0.0781,-0.0291,0.1665,88,4.891,94,8.6668,2.4622,-10.3024,0.0064,-0.0885,0.0342,51
5.477,105,5.2552,-0.2464,-18.0627,-0.0615,-0.002,0.1487,88,4.943,95,8.7887,2.2057,-10.4299,-0.0656,-0.0721,0.0155,51
5.529,106,5.2414,-0.2701,-18.1554,-0.0949,0.0212,0.1082,88,4.995,96,8.6636,2.3135,-10.2831,-0.0685,-0.0458,-0.0047,51
5.581,107,5.2115,-0.4038,-18.1706,-0.0927,0.022,0.0389,88,5.047,97,8.6515,2.1484,-10.2152,0.0334,-0.0701,0.0272,51
5.633,108,5.1814,-0.4036,-18.1162,-0.0391,0.0021,-0.0267,88,5.099,98,8.7016,2.2233,-10.4168,0.1274,-0.0808,0.0509,51
5.684,109,5.1002,-0.438,-18.0971,-0.0281,-0.0174,-0.0757,88,5.15,99,8.7714,2.1457,-10.5432,0.1479,-0.0349,0.0398,51
5.736,110,5.0696,-0.6034,-18.1393,0.005,-0.0297,-0.1294,88,5.202,100,8.7174,2.2544,-10.5397,0.1043,-0.0063,0.0248,51
5.788,111,5.1796,-0.7322,-18.1895,0.0627,-0.0454,-0.1854,88,5.254,101,8.7744,2.1752,-10.5357,0.0832,0.0373,0.0173,51
5.84,112,5.3062,-0.6959,-18.1193,0.056,-0.0424,-0.1743,88,5.306,102,8.7502,2.1798,-10.466,0.0872,0.0479,0.0196,51
5.891,113,5.3371,-0.558,-17.9645,-0.0045,-0.0159,-0.1011,88,5.358,103,8.7265,2.2303,-10.4995,0.1011,0.0589,0.031,51
5.943,114,5.338,-0.557,-18.0141,-0.0279,0.0299,-0.0122,88,5.409,104,8.6482,2.4166,-10.5005,0.0377,0.0892,0.0168,51
5.995,115,5.2604,-0.5023,-18.0373,-0.0436,0.0685,0.0256,88,5.461,105,8.9517,1.9262,-10.4653,-0.1967,0.0714,-0.0231,51
6.047,116,5.2279,-0.4266,-17.9517,-0.0044,0.0817,0.0153,88,5.513,106,8.6604,2.2835,-10.253,-0.0341,0.0955,-0.0327,51
6.099,117,5.1096,-0.4295,-18.0311,0.0514,0.0765,-0.0027,88,5.565,107,8.6507,2.1266,-10.1139,-0.0229,0.0469,-0.0075,51
6.151,118,5.2563,-0.577,-18.2178,0.0926,0.0528,0.0005,88,5.617,108,8.7292,2.1353,-10.2535,0.0586,0.0039,0.0197,51
6.202,119,5.36,-0.5584,-18.1927,0.0818,0.0373,0.0276,88,5.668,109,8.8057,2.0338,-10.2675,0.0888,0.0193,0.004,51
6.254,120,5.3996,-0.4586,-18.0356,0.0113,0.0578,0.0775,88,5.72,110,8.7077,2.1787,-10.2272,0.1067,0.0358,-0.0123,51
6.306,121,5.328,-0.3432,-17.912,-0.0126,0.0898,0.1009,88,5.772,111,8.6696,2.2622,-10.2418,0.1101,0.0323,-0.0044,51
6.358,122,5.2335,-0.2654,-17.9148,-0.0231,0.1265,0.0767,88,5.824,112,8.5043,2.4799,-10.2087,-0.03,0.0297,-0.0269,51
6.41,123,5.2034,-0.3037,-17.9848,-0.0066,0.1383,0.0241,88,5.875,113,8.969,1.8495,-10.1391,-0.1506,-0.0091,-0.0276,51
6.461,124,5.2572,-0.4302,-18.009,0.0036,0.1166,-0.0277,88,5.927,114,8.8997,2.2255,-10.1219,-0.0117,-0.0074,-0.0154,51
6.513,125,5.3223,-0.5756,-17.9801,0.0389,0.0699,-0.057,88,5.979,115,8.9019,2.1519,-10.1412,0.0498,-0.0181,0.0036,51
6.565,126,5.3645,-0.686,-17.9163,0.0736,0.0353,-0.0562,88,6.031,116,8.8816,2.176,-10.2694,0.0677,0.0051,0.0005,51
6.617,127,5.4259,-0.8084,-17.9399,0.0673,0.0219,-0.0313,88,6.083,117,8.8303,2.1586,-10.2826,0.0355,0.0764,-0.0246,51
6.668,128,5.4904,-0.8504,-18.0057,0.0737,0.0045,0.002,88,6.134,118,8.7381,2.2317,-10.1546,-0.0139,0.0987,-0.0407,51
6.72,129,5.5468,-0.7922,-18.0338,0.0615,-0.0252,0.052,88,6.186,119,8.5953,2.3204,-10.0469,0.0144,0.0942,-0.02,51
6.772,130,5.4857,-0.6898,-18.0276,0.0291,-0.0525,0.0929,88,6.238,120,8.558,2.3897,-9.9725,-0.018,0.0481,0.0044,51
6.824,131,5.4324,-0.6228,-17.9841,0.0091,-0.0693,0.0998,88,6.29,121,8.5919,2.4393,-10.0553,-0.1708,-0.0125,0.0048,51
6.876,132,5.4523,-0.5856,-17.9635,0.0058,-0.074,0.0855,88,6.342,122,8.6129,2.2419,-10.0205,-0.2019,-0.0516,0.0121,51
6.927,133,5.4922,-0.6041,-17.9837,-0.01,-0.0777,0.0701,88,6.393,123,8.6368,2.1984,-10.075,-0.25,-0.0935,0.0207,51
6.979,134,5.4515,-0.6831,-17.9623,-0.0131,-0.0773,0.0646,88,6.445,124,8.6812,2.1576,-10.1263,-0.2024,-0.1048,0.0268,51
7.031,135,5.4294,-0.7134,-17.9449,-0.0375,-0.0543,0.0738,88,6.497,125,8.7757,2.0771,-10.242,-0.1843,-0.0944,0.0186,51
7.083,136,5.3935,-0.6995,-17.9455,-0.0515,-0.0377,0.0697,88,6.549,126,8.7641,2.1147,-10.2055,-0.1235,-0.0506,-0.0057,51
7.134,137,5.3497,-0.7518,-17.9422,-0.0341,-0.0261,0.0464,88,6.601,127,8.7186,2.21,-10.1411,-0.1008,-0.037,-0.0137,51
7.186,138,5.3449,-0.9056,-17.9913,0.0452,-0.0336,0.0303,88,6.653,128,8.7092,2.2134,-10.1415,-0.07,-0.0421,-0.0054,51
7.238,139,5.3424,-0.9455,-18.0582,0.0462,-0.0315,0.0465,88,6.704,129,8.737,2.2036,-10.2012,-0.0688,-0.0444,-0.0052,51
7.29,140,5.3168,-0.9646,-18.073,0.0062,-0.0309,0.072,88,6.756,130,8.7697,2.2141,-10.2377,-0.0679,-0.0279,-0.0137,51
7.342,141,5.3148,-0.8756,-18.0908,0.0271,-0.0529,0.0908,88,6.808,131,8.7423,2.2252,-10.1931,-0.0528,-0.005,-0.0194,51
7.393,142,5.2987,-0.7628,-18.0875,0.0223,-0.0669,0.0837,88,6.86,132,8.7059,2.2948,-10.1453,-0.0433,-0.0069,-0.0151,51
7.445,143,5.3053,-0.7493,-18.077,0.0101,-0.0793,0.0504,88,6.912,133,8.6891,2.316,-10.1374,-0.0413,-0.0094,-0.0076,51
7.497,144,5.3122,-0.8393,-18.0768,0.0255,-0.0843,0.0272,88,6.963,134,8.6892,2.2999,-10.1524,-0.0476,-0.01,-0.0002,51
7.549,145,5.1889,-0.9217,-18.0628,0.0279,-0.0737,0.0447,88,7.015,135,8.7316,2.2346,-10.1932,-0.0375,0.0039,0.0008,51
7.601,146,5.1424,-0.9509,-18.0992,-0.0361,-0.045,0.0771,88,7.067,136,8.7492,2.2,-10.2,-0.0085,0.0377,-0.0116,51
7.653,147,5.1908,-0.9249,-18.1653,-0.0657,-0.0442,0.0805,88,7.119,137,8.7945,2.0017,-10.135,0.0768,0.0909,-0.0241,51
7.704,148,5.1461,-0.8493,-18.1847,-0.0211,-0.067,0.0392,88,7.171,138,8.6746,2.4446,-10.0034,0.0923,0.0632,-0.0144,51
7.756,149,5.0849,-0.7947,-18.1512,-0.0058,-0.0669,-0.0082,88,7.222,139,8.7237,2.3367,-10.0096,0.0404,0.0251,0.0009,51
7.808,150,5.1425,-0.77,-18.1542,-0.025,-0.0538,-0.0381,88,7.274,140,8.7028,2.3655,-10.0116,-0.0001,0.0044,0.011,51
7.86,151,5.1638,-0.7891,-18.1571,-0.0187,-0.0474,-0.0559,88,7.326,141,8.7276,2.2933,-10.0145,0.0046,-0.0315,0.0225,51
7.912,152,5.0877,-0.832,-18.1377,-0.015,-0.0301,-0.0686,88,7.378,142,8.8221,2.1456,-10.1568,0.0252,-0.0283,0.0159,51
7.963,153,5.0187,-0.8748,-18.1815,-0.0098,-0.013,-0.077,88,7.429,143,8.8149,2.1441,-10.2212,-0.0172,0.0055,-0.0171,51
8.015,154,5.0486,-0.7958,-18.2741,-0.0172,-0.0043,-0.0822,88,7.481,144,8.7129,2.322,-10.1146,0.0334,0.0546,-0.041,51
8.067,155,5.1015,-0.7577,-18.3648,-0.0271,-0.0223,-0.1068,88,7.533,145,8.6265,2.4844,-9.9473,0.0243,0.0513,-0.0373,51
8.119,156,5.1323,-0.6921,-18.4208,-0.0454,-0.0531,-0.1172,88,7.585,146,8.7001,2.3689,-9.9696,-0.0214,0.0374,-0.0333,51
8.171,157,5.0821,-0.4668,-18.4418,-0.084,-0.0726,-0.1005,88,7.637,147,8.6745,2.4042,-10.0086,-0.0462,0.0348,-0.0366,51
8.222,158,5.0582,-0.5166,-18.3767,-0.1266,-0.0762,-0.0847,88,7.688,148,8.6926,2.3171,-9.9668,-0.0576,0.037,-0.0405,51
8.274,159,4.9776,-0.4466,-18.2931,-0.1173,-0.0772,-0.0817,88,7.74,149,8.6693,2.3415,-9.9204,-0.0422,0.0407,-0.0349,51
8.326,160,4.9158,-0.4219,-18.1293,-0.0584,-0.062,-0.0758,88,7.792,150,8.6477,2.4062,-9.8907,-0.0278,0.0384,-0.0314,51
8.378,161,4.8647,-0.3753,-18.065,-0.0285,-0.0241,-0.0533,88,7.844,151,8.6504,2.3957,-9.8648,-0.0315,0.0224,-0.0279,51
8.429,162,4.8427,-0.3621,-18.1692,-0.0694,0.0275,-0.0178,88,7.895,152,8.6683,2.3642,-9.8744,-0.0317,0.0123,-0.0304,51
8.481,163,4.8936,-0.4153,-18.2875,-0.0621,0.0616,-0.006,88,7.947,153,8.718,2.2941,-9.852,0.0348,0.027,-0.0261,51
8.533,164,4.9762,-0.3822,-18.2897,-0.0617,0.0686,-0.0178,88,7.999,154,8.6105,2.5035,-9.8151,0.1268,0.0437,-0.0169,51
8.585,165,4.9706,-0.3204,-18.2054,-0.0303,0.0593,-0.0239,88,8.051,155,8.6022,2.5256,-9.8219,0.1229,0.0057,0.0099,51
8.637,166,4.8242,-0.3064,-18.202,0.0096,0.0591,-0.0227,88,8.103,156,8.58,2.5655,-9.8919,0.0731,-0.0155,0.0208,51
8.688,167,4.7148,-0.3818,-18.2879,0.0357,0.0668,-0.024,88,8.155,157,8.7367,2.2956,-9.9699,0.0195,-0.0127,0.0165,51
8.74,168,4.7626,-0.5069,-18.4158,0.0495,0.0578,-0.0266,88,8.206,158,8.6853,2.3874,-9.8643,0.084,0.0079,0.0117,51
8.792,169,4.8393,-0.4759,-18.4493,0.0362,0.0255,-0.0159,88,8.258,159,8.6841,2.4785,-9.8864,0.1432,0.0036,0.0266,51
8.844,170,5.013,-0.4333,-18.3228,0.0204,-0.0127,-0.0036,88,8.31,160,8.6734,2.5093,-9.9715,0.1222,-0.0003,0.039,51
8.896,171,5.1562,-0.4403,-18.142,0.0095,-0.0272,0.016,88,8.362,161,8.5785,2.6214,-9.9942,-0.053,0.0199,0.006,51
8.947,172,5.2137,-0.4271,-18.0145,0.0159,-0.0066,0.0317,88,8.413,162,8.6928,2.354,-9.8921,-0.1191,0.0415,-0.0161,51
8.999,173,5.197,-0.3574,-18.0654,0.0255,0.0418,0.0266,88,8.465,163,8.6447,2.5196,-9.9006,-0.205,0.0435,-0.0361,51
9.051,174,5.1818,-0.344,-18.1438,0.037,0.0709,0.0134,88,8.517,164,8.5887,2.4397,-9.7245,-0.1171,0.0213,-0.0142,51
9.103,175,5.1674,-0.3254,-18.2123,0.0427,0.0713,0.0005,88,8.569,165,8.598,2.3396,-9.7,-0.0566,-0.0425,0.0212,51
9.154,176,5.122,-0.3374,-18.2187,0.0409,0.0534,-0.0103,88,8.621,166,8.6454,2.4302,-9.799,0.1352,-0.0581,0.0498,51
9.206,177,5.1066,-0.3104,-18.157,0.0525,0.0379,-0.0276,88,8.672,167,8.8005,2.2663,-10.0104,0.0617,-0.0511,0.0324,51
9.258,178,4.9804,-0.3218,-17.9065,0.0619,0.0186,-0.0575,88,8.724,168,8.7793,2.3071,-10.0474,0.0729,0.0195,-0.0041,51
9.31,179,4.9062,-0.3903,-17.9622,0.1573,0.0371,-0.1062,88,8.776,169,8.7628,2.3168,-9.9968,0.0258,0.0761,-0.0397,51
9.361,180,4.9742,-0.4786,-18.2223,0.2279,0.0315,-0.1906,88,8.827,170,8.682,2.4067,-9.8668,0.0206,0.1081,-0.0553,51
9.413,181,4.9981,-0.6088,-18.3261,0.2358,-0.0337,-0.2655,88,8.879,171,8.6678,2.4255,-9.77,0.0061,0.1095,-0.0574,51
9.465,182,4.9062,-0.5827,-18.2133,0.2275,-0.1666,-0.2848,88,8.931,172,8.6678,2.4556,-9.7239,-0.014,0.1059,-0.0614,51
9.517,183,4.9685,-0.4909,-18.1186,0.1739,-0.2098,-0.2556,88,8.983,173,8.6348,2.4997,-9.6585,0.0119,0.1105,-0.058,51
9.569,184,5.0518,-0.5453,-18.2198,0.1013,-0.2002,-0.2047,88,9.035,174,8.6161,2.5187,-9.5939,0.0082,0.0966,-0.0507,51
9.62,185,5.1059,-0.6628,-18.4262,0.0569,-0.1625,-0.1444,88,9.086,175,8.5746,2.552,-9.5388,0.0134,0.0748,-0.0383,51
9.672,186,5.1723,-0.5601,-18.3859,0.0417,-0.0945,-0.0921,88,9.138,176,8.5896,2.5495,-9.5312,-0.0354,0.0422,-0.0256,51
9.724,187,5.1818,-0.4988,-18.3268,-0.0006,-0.0578,-0.0502,88,9.19,177,8.586,2.5215,-9.4847,-0.0333,0.0177,-0.0105,51
9.776,188,5.1351,-0.4942,-18.3273,-0.0095,-0.0532,-0.0229,88,9.242,178,8.623,2.4558,-9.5203,-0.0194,0.0016,-0.0033,51
9.828,189,5.0204,-0.5156,-18.2547,-0.0094,-0.0473,-0.0173,88,9.293,179,8.6307,2.4764,-9.5396,0.0193,0.007,-0.0053,51
9.879,190,4.8705,-0.5091,-18.1761,-0.0131,-0.0245,-0.0368,88,9.345,180,8.6268,2.5186,-9.5431,0.0406,0.0214,-0.013,51
9.931,191,4.8116,-0.5845,-18.25,-0.0018,-0.0002,-0.0512,88,9.397,181,8.5728,2.5968,-9.4694,0.0393,0.0215,-0.0126,51
9.983,192,4.8088,-0.9544,-18.2838,-0.0036,0.0301,-0.035,88,9.449,182,8.5988,2.5895,-9.4849,0.0457,0.0001,-0.0007,51
10.035,193,4.8021,-0.8697,-18.4319,-0.0158,0.044,-0.0024,88,9.501,183,8.6491,2.5549,-9.5718,0.058,-0.0008,0.0062,51
10.086,194,4.7581,-0.7661,-18.5574,-0.0641,0.0619,0.0378,88,9.552,184,8.637,2.5442,-9.5815,0.0492,0.0107,-0.003,51
10.138,195,4.8787,-0.5838,-18.483,-0.1346,0.0552,0.0642,88,9.604,185,8.618,2.5585,-9.5477,0.0319,0.0185,-0.0132,51
10.19,196,4.9582,-0.3622,-18.3577,-0.143,0.0296,0.0758,88,9.656,186,8.6097,2.5596,-9.5141,0.0353,0.0198,-0.0183,51
10.242,197,4.9986,-0.1765,-18.2227,-0.1343,0.026,0.0853,88,9.708,187,8.6237,2.5558,-9.5148,0.023,0.0031,-0.0181,51
10.294,198,4.9729,-0.1401,-18.1578,-0.1681,0.0213,0.0857,88,9.76,188,8.6554,2.5313,-9.4908,0.0198,-0.008,-0.0158,51
10.345,199,4.8508,-0.4029,-18.1904,-0.1695,0.0296,0.0937,88,9.811,189,8.6044,2.5982,-9.4728,0.0362,-0.0101,-0.0101,51
10.397,200,4.8324,-0.4561,-18.3552,-0.1242,0.0394,0.0838,88,9.863,190,8.5512,2.6165,-9.5006,0.0416,-0.0205,0.0007,51
10.449,201,4.8662,-0.4633,-18.4297,-0.146,0.0397,0.0844,88,9.915,191,8.5717,2.5945,-9.5703,0.0738,-0.0108,0.0131,51
10.501,202,4.9689,-0.3647,-18.3415,-0.1537,0.0188,0.1089,88,9.967,192,8.5537,2.591,-9.6297,0.0801,0.0026,0.0181,51
10.553,203,5.1473,-0.2226,-18.1337,-0.1272,-0.0052,0.1385,88,10.018,193,8.5018,2.6893,-9.5623,0.0729,0.0315,0.0112,51
10.604,204,5.2488,-0.0664,-18.0434,-0.0887,-0.0054,0.1541,88,10.07,194,8.8164,2.3435,-9.7669,-0.0958,-0.0132,-0.0138,51
10.656,205,5.2247,0.0821,-18.0296,-0.0584,0.0104,0.1318,88,10.122,195,8.5586,2.7255,-9.6688,-0.0641,-0.0057,-0.0228,51
10.708,206,5.2047,0.0768,-18.1232,-0.0373,0.038,0.0753,88,10.174,196,8.6031,2.4667,-9.6203,-0.1104,-0.0147,-0.013,51
10.76,207,5.2082,0.0013,-18.2004,-0.0122,0.0505,0.0365,88,10.226,197,8.4787,2.6715,-9.508,-0.0627,-0.0411,0.0198,51
10.811,208,5.136,-0.0804,-18.2291,-0.0083,0.0671,0.0237,88,10.277,198,8.5508,2.5598,-9.5052,0.0217,-0.0636,0.0526,51
10.863,209,5.0763,-0.3004,-18.3166,-0.0151,0.1096,0.019,88,10.329,199,8.6575,2.5096,-9.652,0.019,-0.0607,0.0464,51
10.915,210,5.1549,-0.1691,-18.1148,-0.128,0.2145,0.0384,88,10.381,200,8.6435,2.53,-9.6461,0.0279,-0.012,0.0182,51
10.967,211,5.1607,-0.1298,-18.266,-0.1692,0.2251,0.0832,88,10.433,201,8.5898,2.5865,-9.5976,-0.0108,0.0099,-0.0017,51
11.019,212,5.2952,-0.1136,-18.4206,-0.0697,0.1456,0.1375,88,10.484,202,8.5722,2.6065,-9.5656,-0.0105,0.0162,-0.0026,51
11.07,213,5.3809,-0.0709,-18.4677,-0.034,0.0525,0.1686,88,10.536,203,8.5885,2.6056,-9.5513,-0.0352,0.006,0.0019,51
11.122,214,5.4946,-0.0888,-18.4712,-0.0875,-0.0554,0.1753,88,10.588,204,8.5812,2.6295,-9.5841,-0.0856,0.0001,-0.001,51
11.174,215,5.5195,-0.0824,-18.2869,-0.0984,-0.1659,0.1851,88,10.64,205,8.5726,2.6775,-9.5549,-0.1309,-0.0032,-0.0061,51
11.226,216,5.4197,-0.0248,-17.9968,-0.0944,-0.2293,0.19,88,10.692,206,8.6533,2.5242,-9.5419,-0.1671,-0.0056,-0.0109,51
11.278,217,5.2059,0.1657,-17.3578,-0.1166,-0.1914,0.1746,88,10.743,207,8.6413,2.5633,-9.5109,-0.1597,0.0122,-0.0204,51
11.329,218,5.0383,0.2886,-16.7537,-0.2456,0.0093,0.1391,88,10.795,208,8.6052,2.5933,-9.4334,-0.1634,0.0175,-0.0294,51
11.381,219,4.91,0.4869,-16.3239,-0.2856,0.3028,0.0955,88,10.847,209,8.6032,2.634,-9.3725,-0.1559,-0.0031,-0.0193,51
11.433,220,5.0843,0.5075,-16.0047,-0.2893,0.5121,0.0756,88,10.899,210,8.6108,2.6252,-9.3735,-0.1537,-0.0199,-0.008,51
11.485,221,5.4718,-0.0152,-17.3864,-0.3326,0.7679,0.1249,88,10.951,211,8.607,2.6262,-9.3675,-0.1399,-0.0315,0.002,51
11.536,222,4.087,0.3726,-20.6943,0.0479,0.9659,0.176,88,11.002,212,8.6226,2.6088,-9.3745,-0.1139,-0.0399,0.0151,51
11.588,223,1.2623,3.0797,-22.325,0.1724,0.5283,0.0278,88,11.054,213,8.6377,2.5973,-9.4074,-0.0978,-0.0397,0.0233,51
11.64,224,2.7919,1.9743,-20.5084,0.2365,0.6217,0.0404,88,11.106,214,8.6319,2.5387,-9.4396,-0.0784,-0.0271,0.0249,51
11.692,225,4.1663,0.715,-19.0766,0.2451,0.5678,0.0414,88,11.158,215,8.6474,2.5789,-9.4473,-0.054,-0.0079,0.0291,51
11.744,226,5.3993,0.1548,-17.967,0.1387,0.4412,0.0596,88,11.21,216,8.6778,2.5279,-9.4753,-0.0401,0.0108,0.0323,51
11.795,227,5.9939,-0.5123,-17.0178,-0.2621,0.3371,0.1249,88,11.261,217,8.6593,2.5339,-9.4438,-0.0667,0.0349,0.0312,51
11.847,228,7.2017,-0.8814,-16.5335,-0.3824,0.1636,0.1108,88,11.313,218,8.7781,2.5296,-9.4267,-0.1249,0.0131,0.0264,51
11.899,229,6.3826,-0.7984,-17.4327,-0.2272,-0.0387,-0.0086,88,11.365,219,8.7502,2.6217,-9.3411,-0.1766,0.0197,0.032,51
11.951,230,6.1805,-0.3056,-18.0641,-0.1836,-0.121,-0.1065,88,11.416,220,8.6619,2.5789,-9.0561,-0.1578,-0.0164,0.0749,51
12.003,231,6.1,-0.0546,-18.759,-0.3496,-0.403,-0.1623,88,11.468,221,8.5738,2.435,-9.0867,-0.0743,-0.0777,0.1311,51
12.055,232,5.6097,-0.0361,-18.7827,0.0095,-0.7113,-0.1593,88,11.52,222,8.5528,2.2792,-9.242,-0.0098,-0.127,0.1476,51
12.106,233,5.2951,0.5245,-18.039,0.062,-0.8809,-0.0956,88,11.572,223,8.5473,2.1148,-9.4908,0.0272,-0.1313,0.1235,51
12.158,234,5.1899,0.6907,-17.0704,0.092,-0.8247,-0.0728,88,11.624,224,8.6841,2.0299,-9.447,0.0737,-0.1201,0.0764,51
12.21,235,5.1969,0.7125,-16.0166,0.1016,-0.5409,-0.0703,88,11.675,225,8.672,2.1275,-9.4581,0.0847,-0.1655,0.0456,51
12.262,236,5.7276,0.6885,-14.7603,0.3465,0.0428,-0.1108,88,11.727,226,8.7554,2.2284,-9.7862,0.1482,-0.1735,0.0414,51
12.314,237,6.4263,0.5882,-13.8543,0.429,0.7096,-0.1603,88,11.779,227,8.8177,2.2771,-9.896,0.1116,-0.1254,0.0129,51
12.365,238,8.2303,0.0189,-12.9661,0.6428,1.1962,-0.2735,88,11.831,228,8.8116,2.2159,-9.8727,0.0646,-0.0767,-0.0127,51
12.417,239,11.2726,-0.8526,-12.4348,0.8151,1.5514,-0.3145,88,11.882,229,8.8465,1.6492,-9.8839,0.0609,-0.0013,-0.0591,51
12.469,240,10.376,-0.4751,-15.9104,1.2274,0.5774,-0.2012,88,11.934,230,8.6508,2.6448,-9.8072,0.4391,0.0269,-0.0258,51
