right_leg_timestamp,right_leg_index,right_leg_accel_x,right_leg_accel_y,right_leg_accel_z,right_leg_gyro_x,right_leg_gyro_y,right_leg_gyro_z,right_leg_battery_percentage,left_leg_timestamp,left_leg_index,left_leg_accel_x,left_leg_accel_y,left_leg_accel_z,left_leg_gyro_x,left_leg_gyro_y,left_leg_gyro_z,left_leg_battery_percentage
0.302,5,-0.4983,-0.3847,-3.0456,-0.097,0.4646,0.0854,97,0.666,12,2.9038,1.3213,-6.8375,0.6621,-1.501,-0.2007,64
0.354,6,-0.3372,-0.098,-2.7648,0.0413,0.4492,0.0417,97,0.718,13,1.0021,0.7318,-5.9315,0.694,-1.7364,-0.2949,64
0.405,7,-0.1768,0.116,-2.4633,-0.1229,0.4122,0.0691,97,0.769,14,-1.4039,0.531,-5.6773,0.2838,-1.9082,-0.2001,64
0.457,8,-0.1795,0.284,-2.4307,-0.4499,0.3399,0.1051,97,0.821,15,-3.116,0.867,-7.0192,-0.0739,-2.0335,-0.2307,64
0.509,9,-0.2962,-0.1113,-2.482,-0.5613,0.3532,0.0927,97,0.873,16,-4.6177,1.4389,-6.7734,-0.021,-2.1174,-0.3045,64
0.561,10,-0.9305,-1.4409,-2.5987,-0.4425,0.3738,0.0298,97,0.925,17,-5.851,1.7362,-7.4822,0.1697,-2.1174,-0.306,64
0.612,11,0.8031,2.034,-2.3998,0.2958,0.1628,-0.1923,97,0.976,18,-7.1025,1.5975,-6.874,0.1118,-1.92,-0.2895,64
0.664,12,0.5867,1.8264,-2.3903,0.3746,0.1354,-0.1557,97,1.028,19,-8.3315,1.4797,-6.425,0.111,-1.4987,-0.2126,64
0.716,13,0.3117,1.2114,-2.3167,0.5715,0.0613,-0.2215,97,1.08,20,-8.7838,1.1777,-6.9912,0.3133,-0.8322,-0.0968,64
0.768,14,0.264,0.9193,-2.3464,0.572,-0.0205,-0.2134,97,1.132,21,-9.1665,1.4386,-7.9477,0.3179,-0.2348,0.0416,64
0.82,15,0.1582,0.4393,-2.5083,0.4249,-0.0033,-0.1607,97,1.184,22,-9.5327,1.4596,-9.2866,0.2021,0.1362,0.1689,64
0.871,16,0.1035,0.3477,-2.6169,0.4311,0.0206,-0.1431,97,1.235,23,-9.7559,1.7421,-10.2344,0.1734,0.3134,0.299,64
0.923,17,0.0131,0.3185,-2.7903,0.331,0.0588,-0.0888,97,1.287,24,-9.7649,1.8221,-10.9841,0.0734,0.3394,0.3965,64
0.975,18,0.017,0.3856,-2.8271,0.0282,0.2934,0.0356,97,1.339,25,-9.7901,1.6723,-11.3644,0.0354,0.2676,0.4293,64
1.027,19,0.0154,0.3009,-3.0284,-0.1063,0.2953,0.0647,97,1.391,26,-9.8199,1.4398,-11.4919,0.0349,0.1574,0.4237,64
1.079,20,-0.1315,-0.0499,-3.0783,-0.1707,0.3177,0.0617,97,1.442,27,-9.9314,1.3129,-11.5335,0.0454,0.0782,0.4106,64
1.13,21,-0.3748,-0.0841,-3.0544,-0.0835,0.3182,0.0183,97,1.494,28,-9.9463,1.2721,-11.3839,0.1033,0.0195,0.3722,64
1.182,22,-0.2282,0.1531,-2.9404,0.0132,0.3158,-0.016,97,1.546,29,-9.9453,1.3274,-11.1288,0.1407,-0.0233,0.3349,64
1.234,23,-0.4174,-0.415,-2.8712,-0.0258,0.265,-0.0147,97,1.598,30,-9.9317,1.4326,-10.8513,0.163,-0.0321,0.3227,64
1.286,24,-0.348,-0.2898,-2.9208,0.0238,0.2421,-0.0503,97,1.65,31,-9.9222,1.5441,-10.7041,0.1371,0.0128,0.3429,64
1.338,25,-0.3822,-0.4655,-2.9419,0.0345,0.2354,-0.0633,97,1.701,32,-9.8951,1.5854,-10.756,0.0758,0.0946,0.373,64
1.389,26,-0.5847,-0.7113,-2.9298,0.1368,0.232,-0.0995,97,1.753,33,-9.9494,1.6465,-10.8331,0.0668,0.1618,0.3899,64
1.441,27,-0.3046,-0.4769,-2.7398,0.3399,0.1444,-0.167,97,1.805,34,-10.0539,1.674,-10.9432,0.0602,0.1873,0.3954,64
1.493,28,-0.3746,-0.5251,-2.9491,0.3784,0.076,-0.187,97,1.857,35,-10.0444,1.6967,-10.9407,0.1058,0.1935,0.3963,64
1.545,29,-0.31,-0.2842,-3.0733,0.3728,0.1145,-0.1778,97,1.909,36,-10.0339,1.9114,-11.0418,0.1176,0.2041,0.3841,64
1.597,30,-0.2987,-0.0973,-3.0761,0.2764,0.1666,-0.1335,97,1.96,37,-10.065,1.9681,-11.0697,0.131,0.2066,0.3778,64
1.648,31,-0.2566,-0.0289,-2.8595,-0.0248,0.3236,-0.0272,97,2.012,38,-10.0874,1.9025,-10.9735,0.0999,0.1802,0.369,64
1.7,32,-0.3795,-0.4203,-3.2674,-0.0629,0.345,-0.0209,97,2.064,39,-10.0561,1.874,-11.0064,0.0603,0.1467,0.3537,64
1.752,33,-0.4065,-0.4914,-3.2005,-0.015,0.4211,-0.04,97,2.115,40,-10.0678,1.9231,-11.0471,0.0387,0.1345,0.3657,64
1.804,34,-0.5957,-0.6003,-3.0211,0.1454,0.436,-0.0705,97,2.167,41,-10.0148,1.8546,-11.074,0.0082,0.0999,0.3741,64
1.856,35,-0.4469,-0.4925,-2.8216,0.132,0.4343,-0.0523,97,2.219,42,-9.9725,1.8984,-11.009,0.0452,0.0627,0.3907,64
1.907,36,-0.4162,-0.5121,-2.5868,0.1417,0.3758,-0.0479,97,2.271,43,-9.8733,2.0122,-10.893,0.0763,0.0393,0.4144,64
1.959,37,-0.3445,-0.3395,-2.6759,0.1152,0.3271,-0.0357,97,2.323,44,-9.7964,2.0562,-10.7885,0.0856,0.0455,0.4468,64
2.011,38,-0.4984,-0.4908,-2.5906,-0.0341,0.4562,0.0242,97,2.374,45,-9.7212,2.0306,-10.7145,0.0722,0.0813,0.4693,64
2.063,39,-0.5282,-0.7865,-2.6963,-0.0542,0.3865,0.0015,97,2.426,46,-9.6768,2.0688,-10.904,0.072,0.1303,0.4897,64
2.115,40,-0.476,-0.5914,-2.6376,0.008,0.3473,-0.022,97,2.478,47,-9.6308,2.1017,-11.0517,0.0783,0.1592,0.4901,64
2.166,41,-0.4973,-0.6103,-2.6232,-0.0337,0.3247,-0.026,97,2.53,48,-9.6327,2.1042,-11.0804,0.1075,0.172,0.4851,64
2.218,42,-0.4931,-0.6809,-2.6374,-0.0985,0.2993,-0.0284,97,2.581,49,-9.6376,2.1301,-11.0455,0.0679,0.1786,0.4973,64
2.27,43,-0.4729,-0.6425,-2.682,-0.1138,0.2922,-0.0352,97,2.633,50,-9.6298,2.2539,-10.9421,0.0735,0.1684,0.4989,64
2.322,44,-0.5433,-0.7631,-2.6027,-0.0838,0.2954,-0.0464,97,2.685,51,-9.6365,2.3396,-10.8971,0.0491,0.1657,0.4927,64
2.374,45,-0.6087,-0.8403,-2.5515,0.0217,0.2417,-0.0797,97,2.737,52,-9.62,2.5267,-10.8162,-0.002,0.1667,0.4712,64
2.425,46,-0.5135,-0.8028,-2.631,0.0526,0.2039,-0.0897,97,2.789,53,-9.5488,2.5831,-10.8397,-0.0381,0.1745,0.4245,64
2.477,47,-0.4472,-0.675,-2.6292,0.0665,0.2129,-0.0873,97,2.84,54,-9.5072,2.503,-10.8265,0.0289,0.1946,0.3497,64
2.529,48,-0.4804,-0.6125,-2.5827,0.0117,0.2449,-0.07,97,2.892,55,-9.4875,2.5907,-10.8649,0.0545,0.2022,0.2652,64
2.581,49,-0.5453,-0.7834,-2.6499,0.0135,0.2213,-0.0781,97,2.944,56,-9.4684,2.5274,-10.9296,0.074,0.1946,0.2228,64
2.633,50,-0.7605,-1.1989,-2.8214,0.174,0.2149,-0.1203,97,2.996,57,-9.4429,2.4543,-10.9036,0.1069,0.1736,0.2075,64
2.684,51,-0.7378,-0.5468,-2.6388,0.3259,0.1049,-0.1704,97,3.047,58,-9.4918,2.4063,-10.8059,0.2013,0.1531,0.1668,64
2.736,52,-0.7023,-0.4704,-2.6941,0.2142,0.0894,-0.129,97,3.099,59,-9.4276,2.4347,-10.6602,0.2941,0.1645,0.1641,64
2.788,53,-0.5142,-0.2186,-2.8441,0.0465,0.1463,-0.0823,97,3.151,60,-9.2899,2.5452,-10.8819,0.2792,0.1858,0.2037,64
2.84,54,-0.5794,-0.5821,-2.8721,-0.081,0.1906,-0.0446,97,3.203,61,-9.2829,2.511,-10.9555,0.2665,0.1835,0.2639,64
2.891,55,-0.6222,-0.7927,-2.9776,-0.1422,0.232,-0.034,97,3.255,62,-9.2943,2.3924,-11.0597,0.2262,0.1556,0.3082,64
2.943,56,-0.874,-1.1499,-2.9314,-0.1043,0.2738,-0.0435,97,3.307,63,-9.3822,2.2201,-10.9955,0.2228,0.1095,0.3326,64
2.995,57,-0.6934,-0.8039,-2.8798,-0.0446,0.255,-0.0588,97,3.358,64,-9.4084,2.1801,-10.8563,0.2267,0.073,0.3495,64
3.047,58,-0.6035,-0.7491,-2.9826,-0.0464,0.255,-0.0473,97,3.41,65,-9.3869,2.2671,-10.8142,0.2105,0.0646,0.3749,64
3.099,59,-0.606,-0.7604,-3.0189,-0.012,0.2817,-0.0632,97,3.462,66,-9.2874,2.3074,-10.8217,0.1979,0.0754,0.4204,64
3.151,60,-0.7445,-0.9825,-3.0216,0.1008,0.2844,-0.0924,97,3.514,67,-9.2855,2.2379,-10.8187,0.1556,0.0773,0.4449,64
3.202,61,-0.3501,-0.6767,-2.8837,0.1034,0.2624,-0.0717,97,3.566,68,-9.3416,2.3424,-10.8646,0.1359,0.0652,0.4501,64
3.254,62,-0.3999,-0.7506,-2.9083,0.0165,0.269,-0.0437,97,3.617,69,-9.39,2.3593,-10.7177,0.1185,0.0537,0.4582,64
3.306,63,-0.4685,-0.8519,-3.0144,-0.039,0.2804,-0.0361,97,3.669,70,-9.327,2.3888,-10.7982,0.0691,0.0622,0.474,64
3.358,64,-0.4643,-0.7955,-2.9537,-0.0776,0.3096,-0.0317,97,3.721,71,-9.3324,2.3039,-10.8353,0.0495,0.0747,0.4689,64
3.41,65,-0.7106,-1.0917,-2.9741,0.0368,0.2859,-0.0603,97,3.773,72,-9.3439,2.1883,-10.8309,0.0599,0.0863,0.4501,64
3.461,66,-0.273,-0.4815,-2.8517,0.0587,0.2696,-0.0745,97,3.824,73,-9.3825,2.1944,-10.8414,0.0731,0.0933,0.4199,64
3.513,67,-0.3721,-0.608,-2.9068,0.0432,0.2632,-0.0717,97,3.876,74,-9.3183,2.3204,-10.8536,0.1059,0.1038,0.4071,64
3.565,68,-0.4316,-0.588,-2.9355,0.085,0.2699,-0.0927,97,3.928,75,-9.2538,2.441,-10.8758,0.1175,0.1061,0.4026,64
3.617,69,-0.3145,-0.4295,-2.8273,0.0474,0.2938,-0.0824,97,3.98,76,-9.1999,2.4577,-10.9041,0.132,0.1087,0.3879,64
3.668,70,-0.4035,-0.5998,-2.8552,0.0272,0.2907,-0.0833,97,4.032,77,-9.1874,2.4925,-10.8678,0.1318,0.1105,0.3746,64
3.72,71,-0.4521,-0.6794,-2.8205,0.0936,0.2839,-0.1066,97,4.083,78,-9.1967,2.4139,-10.7877,0.1446,0.1116,0.3642,64
3.772,72,-0.6031,-0.5134,-2.6954,0.4883,0.1242,-0.1895,97,4.135,79,-9.1704,2.232,-10.6074,0.1795,0.1059,0.3329,64
3.824,73,-0.57,-0.3689,-2.7798,0.4596,0.0203,-0.1782,97,4.187,80,-9.2113,2.3659,-10.6977,0.1594,0.1522,0.2958,64
3.876,74,-0.4768,-0.4789,-3.0183,0.393,0.052,-0.1763,97,4.239,81,-9.1355,2.4908,-10.7915,0.2025,0.2302,0.2629,64
3.927,75,-0.2957,-0.4282,-2.77,0.2645,0.139,-0.1464,97,4.29,82,-9.2241,2.4716,-10.9997,0.1943,0.2729,0.2372,64
3.979,76,-0.4675,-0.5871,-2.895,0.1281,0.1881,-0.1105,97,4.342,83,-9.3462,2.4345,-10.9365,0.1819,0.2453,0.1881,64
4.031,77,-0.3378,-0.5081,-2.9595,0.0902,0.2249,-0.0901,97,4.394,84,-9.3735,2.5048,-10.9395,0.1909,0.1925,0.1528,64
4.083,78,-0.3809,-0.6196,-2.9708,0.0705,0.2702,-0.0752,97,4.446,85,-9.2236,2.4595,-10.9525,0.1511,0.1706,0.167,64
4.135,79,-0.3643,-0.5032,-2.9066,0.0577,0.3203,-0.0688,97,4.498,86,-9.0703,2.3916,-10.9707,0.1261,0.1476,0.1938,64
4.186,80,-0.3437,-0.245,-2.7237,-0.0279,0.347,-0.0465,97,4.549,87,-9.0017,2.3769,-10.9168,0.0753,0.1156,0.2265,64
4.238,81,-0.4511,-0.3065,-2.866,-0.0498,0.3351,-0.0366,97,4.601,88,-8.9467,2.2535,-10.8307,0.0667,0.077,0.2651,64
4.29,82,-0.4445,-0.3642,-2.8729,-0.0395,0.358,-0.0431,97,4.653,89,-8.8574,2.3112,-10.8728,0.0825,0.0536,0.3082,64
4.341,83,-0.3657,-0.3661,-2.7285,0.0918,0.365,-0.0686,97,4.704,90,-8.8447,2.2434,-10.8616,0.0862,0.0412,0.357,64
4.393,84,-0.2213,-0.1186,-2.5032,0.1772,0.3365,-0.0818,97,4.756,91,-8.9601,2.3135,-10.8862,0.0885,0.0329,0.4006,64
4.445,85,-0.3002,-0.2439,-2.4141,0.1855,0.2678,-0.091,97,4.808,92,-9.0735,2.2925,-10.891,0.1017,0.0219,0.4283,64
4.497,86,-0.3245,-0.3915,-2.4952,0.3107,0.1831,-0.1365,97,4.86,93,-9.1921,2.0719,-10.7652,0.1551,0.0141,0.4246,64
4.549,87,-0.1542,-0.4458,-2.5212,0.2891,0.2029,-0.1231,97,4.912,94,-9.2479,2.1326,-10.9112,0.2498,0.0276,0.4205,64
4.601,88,-0.2402,-0.4279,-2.6358,0.2076,0.216,-0.1135,97,4.963,95,-9.2255,2.2303,-10.9112,0.2935,0.0306,0.4284,64
4.653,89,-0.3956,-0.6497,-2.6841,0.2569,0.2236,-0.1402,97,5.015,96,-9.2316,2.2448,-10.8347,0.3173,0.0071,0.4463,64
4.705,90,-0.5587,-0.8129,-2.6006,0.4585,0.1648,-0.1735,97,5.067,97,-9.2544,2.2159,-10.7259,0.3122,-0.0227,0.4709,64
4.756,91,-0.5039,-0.6849,-2.5317,0.4912,0.0645,-0.18,97,5.119,98,-9.2862,2.3301,-10.8063,0.2867,-0.0133,0.4839,64
4.808,92,-0.3854,-0.6342,-2.7424,0.4484,0.044,-0.1903,97,5.17,99,-9.1993,2.3445,-10.8539,0.2891,0.0023,0.4455,64
4.86,93,-0.3752,-0.5394,-2.7473,0.3691,0.0933,-0.1459,97,5.222,100,-9.1726,2.3855,-10.9866,0.2921,0.0112,0.3412,64
4.912,94,-0.2799,-0.423,-2.6969,0.2521,0.1337,-0.0879,97,5.274,101,-9.2121,2.4398,-10.941,0.3365,0.0115,0.2215,64
4.963,95,-0.2662,-0.5147,-2.7061,0.0692,0.1964,-0.0297,97,5.326,102,-9.3103,2.3791,-10.7965,0.3267,0.0251,0.1277,64
5.015,96,-0.2683,-0.6158,-2.7347,-0.0213,0.228,-0.0034,97,5.378,103,-9.3843,2.1556,-10.7187,0.2754,0.0679,0.0686,64
5.067,97,-0.3124,-0.5514,-2.8295,-0.0375,0.2506,-0.0005,97,5.429,104,-9.4503,1.8345,-10.7474,0.2521,0.1322,0.0523,64
5.119,98,-0.3557,-0.5875,-2.8948,-0.025,0.2796,-0.0123,97,5.481,105,-9.5198,1.5301,-10.7617,0.1828,0.1878,0.0584,64
5.171,99,-0.3983,-0.6002,-2.7372,0.0251,0.2857,-0.028,97,5.533,106,-9.6021,1.5245,-10.8043,0.1081,0.2068,0.1071,64
5.222,100,-0.3914,-0.5766,-2.6246,-0.0157,0.2559,-0.0347,97,5.585,107,-9.5992,1.4245,-10.9432,0.101,0.1931,0.1917,64
5.274,101,-0.3767,-0.5329,-2.8018,-0.0525,0.2547,-0.0481,97,5.636,108,-9.5765,1.4618,-11.1063,0.0776,0.1595,0.294,64
5.326,102,-0.371,-0.5222,-2.839,-0.0901,0.3185,-0.0433,97,5.688,109,-9.5909,1.455,-11.1998,0.0724,0.1112,0.3743,64
5.378,103,-0.4797,-0.6735,-2.7462,-0.0787,0.3432,-0.0552,97,5.74,110,-9.595,1.509,-11.0767,0.093,0.0648,0.4364,64
5.43,104,-0.5189,-0.6503,-2.6866,0.0611,0.3045,-0.1,97,5.792,111,-9.5793,1.5444,-10.9063,0.1222,0.0245,0.4789,64
5.481,105,-0.3741,-0.2829,-2.6321,0.107,0.225,-0.1331,97,5.844,112,-9.5839,1.7124,-10.826,0.1174,0.0155,0.5013,64
5.533,106,-0.4125,-0.2704,-2.8037,0.1925,0.1681,-0.1605,97,5.895,113,-9.5222,1.8073,-10.8022,0.1481,0.0486,0.5117,64
5.585,107,-0.3832,-0.1712,-2.8076,0.1753,0.1942,-0.1502,97,5.947,114,-9.4839,2.0017,-10.8669,0.1389,0.1119,0.5136,64
5.637,108,-0.3272,-0.0251,-2.8066,0.073,0.255,-0.1027,97,5.999,115,-9.5409,2.1235,-10.9107,0.0998,0.1429,0.4832,64
5.689,109,-0.3643,-0.011,-2.8173,0.1339,0.2579,-0.1239,97,6.051,116,-9.5258,2.1886,-10.9783,0.0631,0.1357,0.4417,64
5.74,110,-0.4778,-0.1632,-2.8157,0.195,0.2706,-0.1361,97,6.103,117,-9.5066,2.2168,-10.9501,0.0463,0.1201,0.3965,64
5.792,111,-0.3681,0.1321,-2.6237,0.2812,0.2238,-0.1464,97,6.154,118,-9.5032,2.1842,-10.895,0.0714,0.1007,0.339,64
5.844,112,-0.4361,-0.2505,-2.8033,0.3458,0.1391,-0.1554,97,6.206,119,-9.5133,2.1591,-10.8159,0.0786,0.08,0.266,64
5.896,113,-0.4139,-0.217,-2.8798,0.3649,0.1247,-0.1658,97,6.258,120,-9.454,2.1791,-10.7544,0.1256,0.0823,0.1799,64
5.948,114,-0.3874,-0.2575,-2.959,0.3484,0.1277,-0.1579,97,6.31,121,-9.3412,2.2753,-10.7974,0.1046,0.1131,0.1214,64
5.999,115,-0.415,-0.3913,-2.941,0.2959,0.137,-0.1381,97,6.362,122,-9.308,2.2993,-10.8399,0.0968,0.1417,0.1057,64
6.051,116,-0.3651,-0.2317,-2.9753,0.2654,0.1435,-0.1199,97,6.413,123,-9.3413,2.2513,-10.8202,0.0829,0.1633,0.1163,64
6.103,117,-0.3601,-0.1677,-2.9936,0.1764,0.1557,-0.0841,97,6.465,124,-9.3399,2.146,-10.846,0.046,0.1716,0.1431,64
6.155,118,-0.5631,-0.309,-3.1634,0.0102,0.2676,-0.0259,97,6.517,125,-9.39,2.3132,-10.9131,0.0201,0.1736,0.1922,64
6.207,119,-0.5644,-0.4465,-3.2369,-0.0306,0.2738,-0.0313,97,6.569,126,-9.4357,2.1941,-10.9949,0.0301,0.1626,0.2455,64
6.258,120,-0.5235,-0.4665,-3.1705,-0.0041,0.2927,-0.0443,97,6.62,127,-9.4612,2.1566,-11.0411,0.0468,0.1388,0.3146,64
6.31,121,-0.5814,-0.3567,-3.0809,0.0887,0.3049,-0.0619,97,6.672,128,-9.4893,2.1197,-10.8455,0.0687,0.1042,0.3887,64
6.362,122,-0.5305,-0.2764,-3.0023,0.0558,0.3142,-0.0401,97,6.724,129,-9.5119,2.1867,-10.705,0.0494,0.1033,0.4912,64
6.414,123,-0.5007,-0.3392,-2.9674,-0.0455,0.3329,-0.0126,97,6.776,130,-9.4156,2.0897,-10.5249,0.0871,0.1081,0.6055,64
6.466,124,-0.5529,-0.5429,-2.9567,-0.0619,0.3498,-0.0212,97,6.828,131,-9.3439,2.2548,-10.7448,0.0439,0.103,0.6874,64
6.517,125,-0.4736,-0.4561,-2.8759,-0.0571,0.3496,-0.0241,97,6.879,132,-9.2721,2.2691,-10.8426,0.0575,0.0827,0.7262,64
6.569,126,-0.3987,-0.4453,-2.7866,-0.0869,0.3567,-0.0099,97,6.931,133,-9.2127,2.3504,-10.8735,0.0808,0.0674,0.7268,64
6.621,127,-0.4933,-0.5426,-2.8205,-0.2151,0.4345,0.0203,97,6.983,134,-9.0969,2.4866,-10.8591,0.1124,0.0587,0.7155,64
6.673,128,-0.5083,-0.5675,-2.8764,-0.1291,0.3711,-0.0187,97,7.034,135,-8.9883,2.577,-10.8394,0.1151,0.0604,0.6947,64
6.725,129,-0.6213,-0.7162,-2.8768,0.0052,0.3536,-0.0552,97,7.086,136,-8.9421,2.6533,-10.6957,0.1156,0.0635,0.6583,64
6.776,130,-0.3341,-0.2039,-2.6785,-0.052,0.3257,-0.0552,97,7.138,137,-8.9752,2.7417,-10.5873,0.0973,0.0826,0.6097,64
6.828,131,-0.3331,-0.2643,-2.8877,-0.1315,0.2968,-0.0408,97,7.19,138,-8.9231,2.7511,-10.4537,0.0918,0.1317,0.5609,64
6.88,132,-0.472,-0.4746,-2.8572,-0.112,0.3017,-0.0575,97,7.242,139,-8.801,2.6134,-10.6047,0.0351,0.2129,0.53,64
6.932,133,-0.8953,-0.8371,-2.9045,0.0917,0.2468,-0.1126,97,7.293,140,-8.8835,2.5514,-10.6518,0.0384,0.2504,0.5066,64
6.983,134,-0.6711,-0.1076,-2.7327,0.0632,0.2103,-0.1146,97,7.345,141,-8.8961,2.6005,-10.68,0.0498,0.282,0.4791,64
7.035,135,-0.5166,-0.0579,-2.9298,-0.1195,0.2813,-0.0696,97,7.397,142,-8.7021,2.7908,-10.8487,0.0705,0.3012,0.4532,64
7.087,136,-0.5442,-0.2822,-2.9853,-0.3922,0.3225,-0.004,97,7.449,143,-8.4899,2.9283,-11.0555,0.07,0.2866,0.4552,64
7.139,137,-0.7487,-0.8347,-3.1125,-0.2988,0.3275,-0.0422,97,7.501,144,-8.505,2.7721,-11.0661,0.0678,0.2327,0.4401,64
7.19,138,-1.4415,-1.319,-3.1854,0.1835,0.2965,-0.1365,97,7.552,145,-8.6079,2.5924,-10.7485,0.1106,0.1414,0.4033,64
7.242,139,-1.2045,-0.3467,-3.0865,0.3561,0.2319,-0.1542,97,7.604,146,-8.7973,2.7941,-10.5964,0.1448,0.115,0.3676,64
7.294,140,-1.1296,-0.6172,-3.2454,0.3888,0.1952,-0.1673,97,7.656,147,-8.6334,2.8577,-10.5075,0.2118,0.1389,0.3523,64
7.346,141,-0.8489,-0.3817,-3.0669,0.3427,0.2126,-0.1465,97,7.708,148,-8.3674,2.9551,-10.6639,0.2153,0.1695,0.3587,64
7.398,142,-1.0084,-0.194,-3.039,0.1278,0.3173,-0.0845,97,7.76,149,-8.3266,2.9737,-10.7179,0.1873,0.1662,0.3364,64
7.449,143,-0.885,-0.6025,-3.1278,-0.0208,0.2771,-0.0362,97,7.811,150,-8.3186,2.9754,-10.7501,0.1567,0.1358,0.3236,64
7.501,144,-0.798,-0.7642,-3.1697,-0.0768,0.3055,-0.0331,97,7.863,151,-8.2441,2.8352,-10.7625,0.135,0.1056,0.3127,64
7.553,145,-0.8469,-0.978,-3.0532,-0.0625,0.3316,-0.0315,97,7.915,152,-8.2157,2.6691,-10.7619,0.1087,0.0961,0.3133,64
7.605,146,-0.5574,-0.6791,-2.7631,-0.1308,0.3437,-0.0334,97,7.967,153,-8.3035,2.5251,-10.666,0.107,0.0952,0.3127,64
7.657,147,-0.599,-0.6796,-2.9866,-0.093,0.2793,-0.0571,97,8.018,154,-8.4032,2.3998,-10.5798,0.1057,0.0959,0.3156,64
7.709,148,-0.8574,-0.8847,-3.0145,0.0829,0.2675,-0.1022,97,8.07,155,-8.3792,2.5852,-10.5243,0.1473,0.0998,0.3326,64
7.761,149,-0.2694,-0.2188,-2.8397,0.3109,0.1664,-0.1829,97,8.122,156,-8.3805,2.7092,-10.5045,0.1324,0.1042,0.3549,64
7.812,150,-0.3074,-0.3681,-2.9784,0.3664,0.1313,-0.2071,97,8.174,157,-8.2716,2.7833,-10.5661,0.1432,0.1349,0.3725,64
7.864,151,-0.3697,-0.3867,-2.954,0.3589,0.1572,-0.2016,97,8.226,158,-8.2142,2.9782,-10.6798,0.1051,0.1622,0.359,64
7.916,152,-0.4203,-0.3846,-2.9076,0.3521,0.1946,-0.1912,97,8.278,159,-8.3146,2.9823,-10.6962,0.1113,0.171,0.3203,64
7.968,153,-0.3937,-0.4239,-2.8742,0.3112,0.1993,-0.1656,97,8.329,160,-8.4102,3.1419,-10.7384,0.117,0.1496,0.2772,64
8.02,154,-0.4093,-0.2636,-2.9009,0.2966,0.2193,-0.1405,97,8.381,161,-8.4863,3.3212,-10.5983,0.1345,0.1101,0.2442,64
8.071,155,-0.4291,-0.3563,-2.8834,0.2324,0.2396,-0.1097,97,8.433,162,-8.4672,3.2446,-10.533,0.1117,0.0815,0.2181,64
8.123,156,-0.3591,-0.239,-2.8278,0.1845,0.2568,-0.0792,97,8.485,163,-8.3768,3.1837,-10.5333,0.076,0.0657,0.185,64
8.175,157,-0.3819,-0.2829,-2.8311,0.1065,0.2637,-0.0382,97,8.536,164,-8.3082,2.9724,-10.4918,0.0975,0.0714,0.1531,64
8.226,158,-0.2334,-0.3735,-2.6972,0.0033,0.2882,0.0008,97,8.588,165,-8.2234,2.9346,-10.5308,0.0949,0.0963,0.1348,64
8.278,159,-0.3345,-0.4616,-2.708,-0.1658,0.343,0.034,97,8.64,166,-8.1827,2.9544,-10.5521,0.1132,0.1256,0.1515,64
8.33,160,-0.3728,-0.5682,-2.7947,-0.1635,0.329,0.015,97,8.692,167,-8.1663,2.9214,-10.5489,0.099,0.1437,0.1918,64
8.382,161,-0.3618,-0.4582,-2.789,-0.0944,0.319,-0.0117,97,8.744,168,-8.2157,2.8958,-10.6204,0.1009,0.1573,0.2455,64
8.434,162,-0.493,-0.6324,-2.7408,0.0173,0.2726,-0.0447,97,8.796,169,-8.2971,2.8588,-10.5834,0.1196,0.1459,0.3181,64
8.485,163,-0.4185,-0.5235,-2.6621,-0.0509,0.3127,-0.0262,97,8.847,170,-8.3622,2.8493,-10.6632,0.1367,0.1227,0.3866,64
8.537,164,-0.4436,-0.5782,-2.6723,-0.0932,0.3069,-0.0354,97,8.899,171,-8.3235,2.9608,-10.634,0.1646,0.0896,0.455,64
8.589,165,-0.4715,-0.6124,-2.7336,-0.0199,0.304,-0.0758,97,8.951,172,-8.3147,2.9371,-10.5935,0.1448,0.0683,0.5083,64
8.641,166,-0.4992,-0.6911,-2.6328,0.1145,0.2446,-0.1145,97,9.003,173,-8.3494,2.8805,-10.5686,0.1514,0.0607,0.526,64
8.693,167,-0.4712,-0.6877,-2.4106,0.2302,0.1278,-0.1505,97,9.055,174,-8.3482,2.8423,-10.575,0.1893,0.0702,0.5154,64
8.744,168,-0.3861,-0.6054,-2.6726,0.2292,0.1114,-0.1597,97,9.107,175,-8.2675,2.9255,-10.6141,0.2361,0.0912,0.4899,64
8.796,169,-0.3772,-0.5119,-2.7242,0.1977,0.146,-0.1467,97,9.158,176,-8.1767,2.9886,-10.705,0.2503,0.1167,0.4773,64
8.848,170,-0.3771,-0.4566,-2.7728,0.1676,0.184,-0.1347,97,9.21,177,-8.1793,2.9731,-10.6559,0.2611,0.1102,0.4829,64
8.9,171,-0.3616,-0.3863,-2.7348,0.0899,0.2026,-0.1021,97,9.262,178,-8.2249,2.9883,-10.5817,0.2298,0.1033,0.4876,64
8.952,172,-0.62,-0.6222,-2.8701,-0.1161,0.3037,-0.035,97,9.314,179,-8.1784,2.9042,-10.5089,0.2056,0.1081,0.4824,64
9.003,173,-0.638,-0.694,-2.9676,-0.1428,0.3158,-0.0359,97,9.365,180,-8.0983,2.9271,-10.6111,0.1411,0.1222,0.471,64
9.055,174,-0.5822,-0.6729,-2.9973,-0.0951,0.3155,-0.0647,97,9.417,181,-8.132,2.8862,-10.6058,0.1527,0.1259,0.4514,64
9.107,175,-0.6291,-0.4011,-2.8702,0.0544,0.2971,-0.0794,97,9.469,182,-8.3156,3.1469,-10.3916,0.0994,0.1109,0.4582,64
9.159,176,-0.5757,-0.4551,-2.7424,0.1973,0.2042,-0.1149,97,9.521,183,-8.4413,3.1344,-10.3807,0.0181,0.0727,0.5149,64
9.211,177,-0.4417,-0.1355,-2.7657,0.2175,0.1491,-0.1181,97,9.573,184,-8.3631,3.0738,-10.4619,0.0186,0.0367,0.5463,64
9.262,178,-0.4021,-0.0987,-2.8238,0.228,0.1563,-0.1127,97,9.624,185,-8.1175,2.9133,-10.5875,-0.0274,0.0425,0.5082,64
9.314,179,-0.3956,-0.1398,-2.8404,0.2115,0.1673,-0.1055,97,9.676,186,-7.9929,2.9632,-10.6607,0.0581,0.0805,0.4393,64
9.366,180,-0.4221,-0.1886,-2.9085,0.2121,0.1916,-0.1128,97,9.728,187,-8.0678,3.0707,-10.5969,0.1139,0.1055,0.3795,64
9.418,181,-0.4246,-0.2797,-2.8875,0.2076,0.1955,-0.1101,97,9.78,188,-8.1459,3.1145,-10.533,0.1277,0.1222,0.3435,64
9.47,182,-0.3888,-0.1469,-2.8893,0.194,0.2174,-0.1035,97,9.831,189,-8.2037,3.1181,-10.5095,0.1433,0.1385,0.317,64
9.521,183,-0.42,-0.2826,-2.9022,0.1872,0.2278,-0.0914,97,9.883,190,-8.1687,3.1597,-10.5416,0.1607,0.1407,0.293,64
9.573,184,-0.4341,-0.3377,-2.8869,0.1746,0.2285,-0.0805,97,9.935,191,-8.1248,3.2045,-10.5409,0.1539,0.133,0.2752,64
9.625,185,-0.4146,-0.2583,-2.8834,0.1545,0.2368,-0.0636,97,9.987,192,-8.0753,3.1529,-10.5066,0.149,0.1307,0.2602,64
9.677,186,-0.5792,0.1807,-2.9404,-0.0492,0.3994,-0.0006,97,10.039,193,-8.0517,3.0168,-10.4968,0.1511,0.1418,0.2603,64
9.728,187,-0.5535,0.0036,-2.984,-0.1073,0.3571,0.0036,97,10.09,194,-8.0134,3.0158,-10.5318,0.1283,0.1425,0.2616,64
9.78,188,-0.4858,-0.1023,-3.0679,-0.1732,0.3483,-0.0031,97,10.142,195,-7.9388,2.9797,-10.5552,0.1072,0.1495,0.2819,64
9.832,189,-0.5202,-0.375,-3.0737,-0.2327,0.3548,-0.011,97,10.194,196,-7.9021,2.8672,-10.6507,0.1074,0.1567,0.3112,64
9.884,190,-0.8353,-0.8292,-3.1181,-0.0838,0.3663,-0.0504,97,10.246,197,-7.9105,2.8542,-10.6307,0.1117,0.1216,0.3462,64
9.936,191,-0.0389,0.2448,-2.7592,0.0158,0.3295,-0.091,97,10.297,198,-8.0263,2.7942,-10.5442,0.1488,0.0685,0.3833,64
9.987,192,-0.1587,0.1303,-2.8514,-0.0285,0.2816,-0.0695,97,10.349,199,-7.9929,2.913,-10.386,0.1882,0.0524,0.4513,64
10.039,193,-0.3062,-0.1925,-2.9424,-0.0292,0.2983,-0.0856,97,10.401,200,-7.9093,2.9785,-10.4831,0.1433,0.0565,0.5136,64
10.091,194,-0.6702,-0.5325,-2.958,0.1299,0.282,-0.1265,97,10.453,201,-7.8953,3.0342,-10.6062,0.1437,0.0362,0.5472,64
10.143,195,-0.3955,-0.0105,-2.7242,0.3166,0.2061,-0.1743,97,10.505,202,-8.0967,3.0769,-10.6047,0.1429,0.0054,0.5471,64
10.195,196,-0.4209,-0.2312,-2.9979,0.377,0.1236,-0.197,97,10.557,203,-8.1394,2.8903,-10.4371,0.1831,0.005,0.5323,64
10.246,197,-0.3652,-0.147,-2.9574,0.3165,0.1513,-0.1913,97,10.608,204,-8.1561,2.8789,-10.3076,0.2278,0.0913,0.4921,64
10.298,198,-0.4031,-0.1313,-2.9835,0.2937,0.1663,-0.1767,97,10.66,205,-8.2173,3.0072,-10.4034,0.1827,0.1669,0.4544,64
10.35,199,-0.421,0.1063,-2.9881,0.2672,0.3881,-0.1569,97,10.712,206,-8.2445,3.2053,-10.4782,0.0689,0.1818,0.4244,64
10.402,200,-0.44,-0.1575,-3.1285,0.3007,0.3054,-0.1695,97,10.764,207,-7.8303,3.3354,-10.2604,-0.0247,0.1701,0.4398,64
10.454,201,-0.5503,-0.6347,-3.4904,0.5487,0.2523,-0.2008,97,10.815,208,-7.5049,3.5858,-10.2051,-0.0597,0.1471,0.4959,64
10.506,202,-0.1793,0.4887,-2.2614,0.5954,0.173,-0.1863,97,10.867,209,-7.1098,3.429,-10.2399,-0.0917,0.1093,0.538,64
10.557,203,-0.1614,0.9586,-2.3411,0.0973,0.1147,-0.0919,97,10.919,210,-6.845,2.9787,-10.1786,-0.0184,0.0378,0.4778,64
10.609,204,-0.0408,0.7542,-2.5624,0.1202,0.0437,-0.0883,97,10.971,211,-6.7106,3.4258,-10.1915,-0.0545,0.0269,0.4588,64
10.661,205,0.0883,0.452,-2.7514,-0.0309,0.0658,-0.0823,97,11.023,212,-7.163,3.6267,-10.3393,-0.165,0.1058,0.5759,64
10.713,206,-0.1192,0.0799,-2.8743,-0.3514,0.1065,-0.0136,97,11.074,213,-7.8984,4.1255,-10.3887,-0.2988,0.2015,0.6016,64
10.765,207,-0.6502,-0.6604,-3.0826,-0.9077,0.2508,0.2731,97,11.126,214,-8.552,3.9404,-10.4124,-0.1919,0.267,0.4714,64
10.816,208,-1.1378,0.9441,-3.2887,-1.1374,0.4711,0.4112,97,11.178,215,-8.9177,3.7254,-10.2864,0.1648,0.3099,0.2661,64
10.868,209,0.4808,-0.6414,-2.6069,-0.696,0.349,0.3811,97,11.23,216,-9.0426,3.5076,-9.9487,0.214,0.2562,0.0003,64
10.92,210,0.1098,-0.0265,-3.0046,-0.2217,0.2849,0.185,97,11.281,217,-8.4691,3.8328,-10.1027,0.303,0.2643,-0.1096,64
10.972,211,0.0532,-0.2785,-3.1916,0.0165,0.3428,0.0452,97,11.333,218,-7.8261,3.8919,-10.1738,0.4529,0.2621,-0.1214,64
11.024,212,-0.3178,-0.5317,-3.1474,0.2303,0.3609,-0.0409,97,11.385,219,-7.1429,3.7284,-10.127,0.4538,0.2138,-0.1728,64
11.075,213,-0.3965,-0.5732,-3.1511,0.5486,0.303,-0.1225,97,11.437,220,-6.7551,3.609,-9.9697,0.4135,0.1639,-0.1982,64
11.127,214,-0.3211,-0.3382,-2.888,0.7552,0.2336,-0.16,97,11.489,221,-6.5794,3.4357,-9.7076,0.4153,0.1522,-0.128,64
11.179,215,-0.3727,-0.2741,-2.417,0.673,0.1292,-0.1591,97,11.54,222,-6.4285,3.174,-9.6166,0.3707,0.2037,0.0341,64
11.231,216,-0.2941,0.3298,-2.7471,0.3029,0.079,-0.0922,97,11.592,223,-6.5154,3.1283,-9.7602,0.3313,0.253,0.1753,64
11.283,217,-0.4702,-0.1739,-2.9303,-0.0116,0.0475,0.0406,97,11.644,224,-6.8231,3.5106,-10.1823,0.3394,0.3075,0.2489,64
11.334,218,-0.4437,-0.3101,-3.1556,-0.0273,0.0249,0.055,97,11.696,225,-7.3017,3.4538,-10.6345,0.348,0.2931,0.3122,64
11.386,219,-0.4351,-0.3574,-3.3271,-0.0705,0.0864,0.0432,97,11.747,226,-7.589,3.5406,-10.8109,0.2755,0.2175,0.3421,64
11.438,220,-0.3253,-0.3825,-3.3659,-0.0522,0.1105,0.027,97,11.799,227,-7.8112,3.3178,-10.7803,0.24,0.1526,0.2883,64
11.49,221,-0.1794,0.0468,-3.5335,-0.0274,0.1042,0.016,97,11.851,228,-7.8949,3.165,-10.6034,0.3138,0.1585,0.2149,64
11.542,222,-0.5696,-0.1718,-3.6534,0.1403,0.133,-0.0708,97,11.903,229,-7.8234,3.048,-10.4569,0.2255,0.1968,0.2004,64
11.593,223,-1.563,-0.507,-3.9527,-0.0014,0.2701,-0.1021,97,11.955,230,-7.6047,2.755,-10.4046,0.0716,0.2013,0.2931,64
11.645,224,-2.5211,-0.5161,-4.1696,0.0615,0.4656,-0.1137,97,12.006,231,-7.6201,1.3381,-10.1009,0.1348,0.1554,0.3499,64
11.697,225,-1.2815,0.4738,-3.3344,0.4343,0.5884,-0.1079,97,12.058,232,-7.8891,1.7077,-10.7456,0.1408,0.254,0.3809,64
11.749,226,-1.5125,-0.8935,-3.9477,0.1936,0.3992,-0.0759,97,12.11,233,-7.2907,3.163,-10.4524,0.3346,0.3286,0.5721,64
11.801,227,-1.169,-0.1379,-3.7896,-0.113,0.5614,-0.0113,97,12.162,234,-7.0005,3.5461,-10.8699,0.1739,0.3963,0.8331,64
11.852,228,-1.0189,-0.3616,-3.6676,-0.2699,0.6209,0.0661,97,12.213,235,-6.9671,2.9499,-10.8397,-0.0094,0.3473,0.9735,64
11.904,229,-1.3482,-1.3049,-3.4719,-0.3861,0.6535,0.0762,97,12.265,236,-7.3527,2.9276,-10.8507,0.062,0.2693,0.9814,64
11.956,230,-0.9275,0.0413,-3.0871,-0.5718,0.653,0.0855,97,12.317,237,-7.3627,3.0706,-10.7529,0.0945,0.1379,0.9145,64
12.008,231,-0.9787,-1.0981,-3.0042,-1.055,0.5577,0.1562,97,12.369,238,-7.2633,3.094,-10.5715,-0.0328,0.04,0.8531,64
12.06,232,-0.9892,-2.0743,-3.1621,-0.9893,0.4238,0.0807,97,12.421,239,-6.8426,3.1008,-10.5427,0.0745,-0.0126,0.7177,64
12.111,233,-0.8248,-1.9083,-3.1262,-0.6631,0.2472,0.0426,97,12.472,240,-6.332,3.401,-10.3987,0.2023,-0.0291,0.495,64
12.163,234,-0.511,-1.4874,-3.3366,-0.485,0.1256,0.0349,97,12.524,241,-6.034,3.4069,-10.1164,0.2945,0.0075,0.258,64
12.215,235,-0.4076,-1.3594,-3.6602,-0.1045,0.0771,-0.0679,97,12.576,242,-5.8016,3.2819,-9.8657,0.443,0.1215,0.0806,64
12.267,236,-0.1128,0.1908,-3.5518,0.6222,-0.0774,-0.4569,97,12.628,243,-5.6194,3.1191,-9.6384,0.3079,0.2953,0.0523,64
12.319,237,-1.1325,0.0013,-3.4964,1.1525,-0.1432,-0.9251,97,12.679,244,-5.9659,2.7905,-9.6803,0.056,0.4248,0.0962,64
12.37,238,-2.0786,-4.8131,-4.6394,0.8029,0.1757,-0.5243,97,12.731,245,-6.4336,2.6443,-9.6621,-0.0529,0.4151,0.1424,64
12.422,239,-1.0474,-3.9048,-3.8042,1.1881,0.2519,-0.5832,97,12.783,246,-6.635,2.9508,-9.8433,-0.1955,0.3874,0.2044,64
12.474,240,-0.5132,-2.9768,-3.8071,0.89,0.1635,-0.494,97,12.835,247,-6.5349,2.8251,-10.1511,-0.2255,0.3856,0.2877,64
12.526,241,-0.5309,-2.3621,-3.6294,0.8229,0.1579,-0.4261,97,12.887,248,-5.9367,2.8964,-10.2469,-0.1413,0.3455,0.3088,64
12.578,242,-0.5937,-1.9883,-3.4157,0.6348,0.1493,-0.3262,97,12.938,249,-5.5566,2.4463,-10.4035,-0.0614,0.2899,0.2643,64
12.629,243,-0.5224,-1.5553,-3.2543,0.4535,0.1373,-0.2728,97,12.99,250,-5.3376,2.5127,-10.1087,0.1432,0.226,0.243,64
12.681,244,-0.5192,-1.1269,-3.3625,0.3522,0.1572,-0.2333,97,13.042,251,-5.2796,2.6905,-9.7925,0.1397,0.1979,0.3333,64
12.733,245,-0.4968,-1.0103,-3.314,0.2497,0.1798,-0.2012,97,13.094,252,-5.3236,2.7685,-9.8021,0.0602,0.1966,0.5302,64
12.785,246,-0.1847,-0.6924,-3.1241,0.0088,0.1259,-0.1456,97,13.145,253,-5.4291,3.0881,-9.6253,-0.0547,0.2011,0.7115,64
12.837,247,-0.2908,-0.5072,-3.2427,-0.2552,0.0432,-0.0251,97,13.197,254,-6.0849,3.1121,-9.6528,-0.1254,0.2307,0.8022,64
12.888,248,-1.1499,-0.6466,-3.573,-0.8396,0.2378,0.4801,97,13.249,255,-6.6313,3.2339,-9.6243,0.0754,0.28,0.7442,64
12.94,249,0.8314,0.3941,-3.152,-0.3553,0.2317,0.2038,97,13.301,256,-6.7017,3.304,-9.5013,0.0706,0.3754,0.6811,64
12.992,250,0.5567,-1.393,-3.4982,-0.291,0.3418,0.1156,97,13.353,257,-6.1068,3.8612,-9.7088,0.2009,0.5194,0.6076,64
13.044,251,0.5585,-0.8013,-3.3199,-0.2664,0.4818,0.078,97,13.405,258,-5.3738,2.731,-10.3791,0.1974,0.5598,0.394,64
13.096,252,-0.0032,-0.7667,-3.2779,-0.1448,0.5986,0.0198,97,13.456,259,-4.7199,3.422,-10.1941,0.548,0.4232,0.1348,64
13.147,253,-0.1317,-0.9545,-3.1377,0.2388,0.5119,-0.0662,97,13.508,260,-4.5143,3.1929,-9.8837,0.5903,0.2168,-0.0644,64
13.199,254,-0.2408,-1.3758,-2.8178,0.7768,0.3461,-0.1836,97,13.56,261,-4.3463,3.8219,-9.2708,0.4082,-0.0488,-0.0738,64
13.251,255,0.0059,-0.0646,-2.2077,1.1545,0.2017,-0.239,97,13.612,262,-4.4608,3.0814,-9.2021,0.323,-0.234,0.0157,64
13.303,256,-0.2629,-0.388,-2.7317,0.6947,0.1939,-0.1733,97,13.663,263,-4.2704,2.353,-9.0864,0.206,-0.3383,0.1399,64
13.355,257,-0.2449,-0.2393,-2.7864,0.6012,0.1405,-0.2049,97,13.715,264,-4.2001,2.4108,-9.0506,-0.0634,-0.3311,0.3489,64
13.406,258,-0.3805,-0.1133,-2.3615,0.5452,0.065,-0.1681,97,13.767,265,-4.0703,2.4772,-9.2906,-0.1854,-0.3495,0.6508,64
13.458,259,-0.4246,-0.2633,-2.3131,0.0015,-0.0104,-0.0641,97,13.819,266,-3.9344,2.0639,-9.2369,-0.2103,-0.4245,0.9827,64
13.51,260,-0.6632,-0.8343,-3.0725,-0.0382,-0.1559,-0.0372,97,13.871,267,-4.521,2.6313,-9.3474,-0.3695,-0.4334,1.3231,64
13.562,261,-0.1397,-0.518,-3.321,-0.3823,0.001,0.0336,97,13.922,268,-5.2431,3.1595,-9.5905,-0.7258,-0.3941,1.5948,64
13.614,262,-0.3753,-1.5401,-3.1887,-0.7645,0.1797,0.2013,97,13.974,269,-5.8293,3.8244,-9.3641,-0.4554,-0.2597,1.732,64
13.665,263,-1.4976,-0.9374,-4.1523,-1.2113,0.5959,0.7256,97,14.026,270,-6.6138,3.9299,-9.3628,-0.2312,-0.0633,1.4997,64
13.717,264,0.9057,-0.1613,-3.2666,-0.6437,0.5616,0.4218,97,14.078,271,-6.8627,4.1441,-9.4796,0.0687,0.0885,1.1169,64
13.769,265,0.7138,-1.7625,-3.8047,-0.7372,0.5482,0.3213,97,14.129,272,-6.7699,4.5482,-9.3512,0.3245,0.2173,0.7503,64
13.821,266,0.317,-1.4393,-3.9121,-0.6193,0.5673,0.226,97,14.181,273,-6.1359,4.6167,-9.8318,0.4399,0.2878,0.4028,64
13.873,267,0.0143,-1.3346,-3.6956,-0.317,0.592,0.1182,97,14.233,274,-5.4605,4.1343,-9.897,0.595,0.279,0.0775,64
13.924,268,-0.1069,-1.0768,-3.2125,0.2739,0.4673,-0.0173,97,14.285,275,-5.0094,3.9956,-9.6898,0.5774,0.2297,-0.203,64
13.976,269,-0.5097,-1.5507,-3.1385,0.8579,0.2798,-0.1452,97,14.337,276,-4.7938,3.823,-9.4771,0.6732,0.1313,-0.4284,64
14.028,270,-0.4878,-1.2063,-2.9018,1.3246,0.0493,-0.2988,97,14.388,277,-4.7696,3.5641,-9.1018,0.5736,0.0459,-0.4737,64
14.08,271,-0.1982,0.1407,-2.8903,1.0113,0.0348,-0.2384,97,14.44,278,-4.809,3.0017,-9.2947,0.3422,0.0179,-0.4595,64
14.132,272,-0.4659,-0.7321,-3.1582,0.0848,0.1795,-0.0428,97,14.492,279,-4.7411,2.8896,-9.3377,0.6059,0.0475,-0.3416,64
14.183,273,-0.2814,-1.232,-1.9114,-0.0019,0.1298,-0.0774,97,14.543,280,-5.0172,2.467,-9.5204,0.2977,0.0844,-0.2036,64
14.235,274,0.0226,-0.2654,-2.7694,0.1213,0.1138,-0.1207,97,14.595,281,-5.0719,2.4024,-9.5803,0.2775,0.095,-0.0663,64
14.287,275,-0.0421,-0.5209,-2.9322,0.086,0.1634,-0.1218,97,14.647,282,-5.247,2.6086,-9.6572,0.2546,0.1593,0.0284,64
14.339,276,-0.2169,-0.6294,-2.8456,0.1324,0.1921,-0.1428,97,14.699,283,-5.4538,2.784,-9.8078,0.1662,0.2089,0.1124,64
14.391,277,-0.1827,-0.24,-3.0951,0.1089,0.3308,-0.0989,97,14.751,284,-5.6597,2.9979,-9.7838,0.2199,0.2219,0.1665,64
14.442,278,-0.3291,-0.4186,-3.2373,-0.0397,0.3242,-0.0415,97,14.802,285,-5.8124,3.0473,-9.6896,0.2096,0.2287,0.2049,64
14.494,279,-0.4093,-0.707,-3.2168,-0.169,0.3328,-0.0122,97,14.854,286,-5.8807,3.0289,-9.9254,0.0947,0.2348,0.2479,64
14.546,280,-0.429,-0.8592,-3.2407,-0.1897,0.3544,-0.0105,97,14.906,287,-5.845,3.0097,-9.9163,0.1001,0.2253,0.2878,64
14.598,281,-0.8602,-1.4906,-3.3187,-0.0567,0.369,-0.0525,97,14.958,288,-5.7985,3.0538,-9.9221,0.0207,0.1805,0.3048,64
14.65,282,-0.8745,-1.3217,-3.2056,0.1578,0.3183,-0.1153,97,15.01,289,-5.8012,2.9562,-9.8614,0.0058,0.1361,0.3171,64
14.701,283,-0.9245,-1.7795,-3.1991,0.1924,0.2836,-0.1251,97,15.061,290,-5.8424,2.8466,-9.7408,-0.0066,0.117,0.3175,64
14.753,284,-0.6531,-1.4921,-3.0474,0.2104,0.3015,-0.124,97,15.113,291,-5.7509,2.9634,-9.7008,-0.0178,0.1194,0.328,64
14.805,285,-0.6705,-1.5198,-3.0165,0.0992,0.3376,-0.0833,97,15.165,292,-5.6477,3.0954,-9.7029,0.0633,0.1168,0.3621,64
14.857,286,-0.8,-1.6306,-3.0319,0.1599,0.3393,-0.1093,97,15.217,293,-5.5529,3.0587,-9.6886,0.0278,0.1019,0.3983,64
14.909,287,-1.194,-2.1609,-2.9934,0.4,0.2918,-0.1639,97,15.269,294,-5.4677,2.8988,-9.2097,-0.0041,0.0445,0.3762,64
14.96,288,-0.2113,-0.4169,-2.791,0.5678,0.2347,-0.2178,97,15.32,295,-5.5051,3.0528,-9.5861,0.0069,0.0364,0.3231,64
15.012,289,-0.353,-0.2201,-2.7723,0.4202,0.3172,-0.1439,97,15.372,296,-5.4426,3.6981,-9.6134,0.2728,0.0224,0.3042,64
15.064,290,-0.2863,-0.217,-3.0302,0.1711,0.3222,-0.0826,97,15.424,297,-5.2763,3.7158,-9.5926,0.2677,0.0638,0.3292,64
15.116,291,-0.4852,-0.7897,-2.932,-0.162,0.3738,-0.0266,97,15.476,298,-5.2783,3.622,-9.6616,0.17,0.1067,0.3275,64
15.168,292,-0.8396,-1.5911,-2.835,-0.1483,0.3861,-0.0457,97,15.527,299,-5.4738,3.3701,-9.716,0.1475,0.13,0.3295,64
15.219,293,-1.3435,-2.0531,-2.7894,0.3298,0.2531,-0.183,97,15.579,300,-5.7518,3.2294,-9.5074,0.1077,0.1037,0.3128,64
15.271,294,-0.5594,-0.6942,-2.6977,0.4544,0.1372,-0.2531,97,15.631,301,-5.9798,3.2825,-9.399,0.069,0.1258,0.2574,64
15.323,295,-0.5573,-0.6026,-2.8516,0.3586,0.1198,-0.2413,97,15.683,302,-5.812,3.5138,-9.4282,0.2823,0.1948,0.2431,64
15.375,296,-0.5049,-0.4318,-2.7702,0.2436,0.1515,-0.2117,97,15.735,303,-5.5509,3.6628,-9.625,0.2821,0.2499,0.2606,64
15.426,297,-0.5141,-0.5109,-2.8382,0.2542,0.1768,-0.2057,97,15.786,304,-5.4726,3.6402,-9.6357,0.2454,0.2442,0.2578,64
15.478,298,-0.4768,-0.3826,-2.7704,0.232,0.1944,-0.1758,97,15.838,305,-5.5619,3.5147,-9.7299,0.2308,0.2188,0.2482,64
15.53,299,-0.4792,-0.3643,-2.871,0.2413,0.1929,-0.1809,97,15.89,306,-5.7068,3.2577,-9.7583,0.2724,0.1988,0.2385,64
15.582,300,-0.4728,-0.2261,-2.8769,0.2342,0.1961,-0.1559,97,15.942,307,-5.6922,2.7501,-9.9732,0.4232,0.1924,0.2816,64
15.634,301,-0.6875,-0.5027,-2.9153,0.3281,0.1739,-0.1899,97,15.994,308,-5.0989,3.1709,-9.4507,0.4558,0.1897,0.3634,64
15.685,302,-0.63,-0.6919,-3.6441,0.8807,-0.0466,-0.295,97,16.045,309,-4.9916,3.6202,-9.6161,0.2648,0.0713,0.5281,64
15.737,303,-0.2257,-0.1027,-2.3934,1.3412,-0.226,-0.3588,97,16.097,310,-4.9398,3.4591,-9.5994,0.1083,-0.1283,0.7371,64
15.789,304,-0.5964,-1.8907,-4.3523,0.4177,-0.2552,-0.1684,97,16.149,311,-4.8486,3.1419,-9.648,0.0157,-0.2801,0.8196,64
15.841,305,-0.3495,-1.7767,-4.0926,0.0243,-0.05,-0.0664,97,16.201,312,-4.8414,3.5275,-9.7908,-0.0795,-0.2916,0.8751,64
15.893,306,-0.6102,-2.1273,-3.9974,-0.1737,0.1055,-0.0243,97,16.253,313,-5.3302,3.3121,-9.8103,-0.0183,-0.2146,0.934,64
15.944,307,-0.7204,-1.8541,-3.947,-0.3025,0.2434,0.0097,97,16.305,314,-5.9764,3.2884,-9.883,0.0081,-0.0977,0.9229,64
15.996,308,-0.818,-1.1611,-4.0281,-0.1787,0.3578,-0.0263,97,16.357,315,-6.6489,3.2408,-9.7193,0.133,-0.0179,0.8192,64
16.048,309,-0.6698,-1.3365,-3.7193,0.195,0.426,-0.1697,97,16.408,316,-7.0289,3.3167,-9.5724,0.2007,-0.0079,0.6574,64
16.1,310,-0.5959,-1.4261,-3.5195,0.33,0.4965,-0.1725,97,16.46,317,-7.1241,3.2906,-9.6091,0.2111,0.0299,0.552,64
16.152,311,-0.4769,-1.2048,-3.6398,0.4492,0.3969,-0.2403,97,16.512,318,-6.0696,3.0723,-9.4409,0.293,0.1069,0.4686,64
16.204,312,-0.585,-1.4469,-3.8071,0.789,0.2838,-0.2808,97,16.564,319,-4.8191,3.1379,-9.3329,0.293,0.2223,0.2517,64
16.255,313,-0.5684,-1.4204,-2.9289,1.2218,0.0948,-0.3454,97,16.616,320,-4.3076,3.3686,-9.465,0.1444,0.2753,0.0888,64
16.307,314,-0.7979,-0.5217,-5.151,1.3469,-0.0744,-0.3959,97,16.667,321,-4.3747,3.1468,-9.2958,0.0677,0.2457,0.0295,64
16.359,315,-1.1013,-1.2094,-4.9881,0.9496,-0.0531,-0.288,97,16.719,322,-4.392,2.6529,-9.3721,-0.0561,0.2376,0.1064,64
16.411,316,-0.6679,-0.9477,-4.521,0.5989,0.0532,-0.2311,97,16.771,323,-4.4413,2.9102,-9.5172,-0.2103,0.3043,0.2856,64
16.463,317,-0.6294,-0.9408,-4.3161,0.1514,0.2191,-0.1235,97,16.823,324,-4.8827,3.1668,-9.7094,-0.194,0.3281,0.5023,64
16.514,318,-0.7215,-1.3884,-3.9253,-0.11,0.2965,-0.067,97,16.874,325,-5.4027,3.3202,-9.79,-0.1534,0.2883,0.6994,64
16.566,319,-1.015,-1.8901,-3.6336,-0.4954,0.3377,0.0855,97,16.926,326,-5.8721,3.4195,-9.6016,-0.1024,0.178,0.8232,64
16.618,320,-0.8992,-0.3005,-3.9471,-0.1914,0.4033,0.0227,97,16.978,327,-5.6112,3.2467,-9.5036,0.1372,0.1566,0.8936,64
16.67,321,-1.5731,-0.7226,-3.8843,-0.0831,0.6104,-0.0202,97,17.03,328,-5.6564,3.2213,-9.4107,0.2144,0.1745,0.8277,64
16.721,322,-0.979,-1.0259,-3.4274,-0.0511,0.5613,0.0007,97,17.082,329,-5.7371,3.4018,-9.1825,0.2686,0.2239,0.6985,64
16.773,323,-0.9552,-2.3209,-3.7397,-0.0887,0.5656,-0.028,97,17.133,330,-5.4784,3.5757,-9.3584,0.3803,0.2567,0.5317,64
16.825,324,-0.9414,-2.2824,-2.3107,0.2023,0.3784,-0.1126,97,17.185,331,-5.0707,3.1233,-9.3938,0.3925,0.2579,0.3518,64
16.877,325,-1.0303,-1.0831,-4.9221,0.4536,0.1757,-0.165,97,17.237,332,-4.8529,3.138,-8.9942,0.4076,0.1324,0.1754,64
16.929,326,-0.8645,-1.2175,-4.3707,0.1082,0.1607,-0.0551,97,17.289,333,-4.2689,2.6335,-9.1387,0.4679,0.0704,0.0618,64
16.98,327,-0.688,-1.2174,-4.3407,0.0531,0.2214,-0.0648,97,17.34,334,-3.9904,2.4464,-9.5107,0.3329,0.0734,0.0317,64
17.032,328,-0.7512,-1.1817,-3.9509,-0.0699,0.334,-0.0698,97,17.392,335,-3.9547,2.5648,-9.4039,0.3023,0.0733,0.1178,64
17.084,329,-0.9507,-1.2077,-3.5758,-0.0442,0.4102,-0.0938,97,17.444,336,-4.3857,2.6361,-9.3571,0.2284,0.0395,0.2299,64
17.136,330,-0.7469,-0.9116,-3.1371,-0.0272,0.3439,-0.0754,97,17.496,337,-4.8714,2.709,-9.2449,0.1112,-0.0287,0.3615,64
17.187,331,-0.587,-0.9223,-3.1919,-0.0647,0.3373,-0.0672,97,17.548,338,-5.0624,2.8347,-9.1897,-0.0142,-0.0886,0.5067,64
17.239,332,-0.4671,-0.6414,-2.9593,-0.0132,0.3474,-0.075,97,17.599,339,-4.8572,2.8153,-9.3456,-0.119,-0.1057,0.611,64
17.291,333,-0.6427,-0.9627,-2.964,0.0695,0.3382,-0.0948,97,17.651,340,-4.7685,2.7585,-9.3729,-0.1236,-0.1124,0.6379,64
17.343,334,-0.4735,-0.6245,-2.7502,0.2769,0.2915,-0.1502,97,17.703,341,-4.8132,2.636,-9.2842,-0.0857,-0.1074,0.6201,64
17.395,335,-0.3403,-0.5924,-2.676,0.262,0.2682,-0.1408,97,17.755,342,-4.7393,2.5881,-9.3837,-0.0626,-0.0589,0.6133,64
17.447,336,-0.2519,-0.442,-2.6423,0.2913,0.3124,-0.1432,97,17.807,343,-4.5553,2.554,-9.5449,0.0127,-0.0,0.5951,64
17.498,337,-0.2741,-0.3752,-2.4086,0.2103,0.3438,-0.0915,97,17.858,344,-4.5663,2.5093,-9.5781,0.065,0.0238,0.5564,64
17.55,338,-0.3124,-0.5491,-2.4032,-0.0437,0.3624,-0.0336,97,17.91,345,-4.7228,2.4383,-9.4941,0.1884,0.036,0.5097,64
17.602,339,-0.198,-0.3496,-2.4552,-0.3606,0.4106,0.0431,97,17.962,346,-5.0446,2.4465,-9.6428,0.2556,0.0694,0.4345,64
17.654,340,-0.3233,-0.1387,-2.5198,-0.8378,0.4292,0.1275,97,18.014,347,-4.9929,2.5131,-9.561,0.3798,0.0997,0.3087,64
17.706,341,-0.3042,0.1208,-2.3162,-1.2648,0.4672,0.2279,97,18.066,348,-4.7373,2.6647,-9.5696,0.5369,0.1562,0.0891,64
17.758,342,-0.4908,-1.5539,-1.5904,-1.4429,0.3362,0.2453,97,18.117,349,-4.7869,2.5749,-9.5477,0.7074,0.2207,-0.1551,64
17.809,343,-0.1627,-0.5566,-2.3255,-0.9816,0.1906,0.0827,97,18.169,350,-4.8408,2.5074,-9.4929,0.8494,0.32,-0.3919,64
17.861,344,-0.3496,-0.5157,-2.6155,-0.6375,0.1935,-0.019,97,18.221,351,-4.8787,2.5999,-9.4801,0.877,0.4072,-0.5675,64
17.913,345,-0.4426,-0.4563,-2.7712,-0.3201,0.1823,-0.115,97,18.273,352,-4.8857,2.7415,-9.6425,0.8274,0.4478,-0.6583,64
17.965,346,-0.4923,-0.5299,-2.9174,-0.1827,0.1625,-0.1554,97,18.324,353,-5.1829,2.699,-9.631,0.7189,0.3882,-0.6473,64
18.016,347,-0.5647,-0.5219,-3.0184,-0.0094,0.2014,-0.1728,97,18.376,354,-5.3684,2.5943,-9.6644,0.5975,0.2844,-0.5858,64
18.068,348,-0.4549,-0.4049,-2.9538,0.124,0.2207,-0.1724,97,18.428,355,-5.3936,2.5476,-9.7014,0.4367,0.1801,-0.4717,64
18.12,349,-0.3626,-0.1922,-2.9486,0.2278,0.2338,-0.1632,97,18.48,356,-5.3397,2.5667,-9.7414,0.3186,0.0941,-0.3446,64
18.172,350,-0.2946,-0.1663,-2.9573,0.2062,0.2696,-0.1249,97,18.532,357,-5.2104,2.462,-9.8106,0.2134,0.0329,-0.2106,64
18.224,351,-0.2932,-0.1992,-3.0107,0.1246,0.3293,-0.0712,97,18.583,358,-5.142,2.2832,-9.8728,0.1518,-0.0001,-0.0928,64
18.275,352,-0.2957,-0.4228,-2.7185,0.0988,0.3293,-0.0617,97,18.635,359,-5.1606,2.2198,-9.78,0.1269,-0.013,0.0099,64
18.327,353,-0.2055,-0.3881,-2.7367,0.0189,0.3906,-0.0248,97,18.687,360,-5.153,2.1919,-9.7344,0.1241,0.008,0.0883,64
18.379,354,-0.2479,-0.3886,-2.6758,0.0626,0.4315,-0.0257,97,18.739,361,-5.0522,2.2706,-9.7572,0.1409,0.0473,0.1562,64
18.431,355,-0.3109,-0.4133,-2.5037,0.0798,0.4442,-0.0206,97,18.79,362,-5.0781,2.364,-9.7106,0.1686,0.0585,0.2258,64
18.483,356,-0.3212,-0.4812,-2.5511,0.0717,0.3938,-0.0209,97,18.842,363,-5.1248,2.4387,-9.64,0.1609,0.0533,0.2857,64
18.534,357,-0.3132,-0.6653,-2.3264,0.0385,0.3213,-0.0392,97,18.894,364,-5.1823,2.478,-9.5598,0.1204,0.0695,0.3531,64
18.586,358,-0.3652,-1.1914,-2.8762,0.3999,0.2509,-0.107,97,18.946,365,-5.0291,2.5492,-9.4239,0.1481,0.0897,0.4102,64
18.638,359,-0.1242,-0.136,-2.3968,0.9718,0.1918,-0.1751,97,18.998,366,-4.6643,2.6482,-9.3458,0.0794,0.1022,0.5002,64
18.69,360,0.01,0.9319,-1.7325,0.561,0.241,-0.1206,97,19.049,367,-4.4392,2.5068,-9.3779,0.0375,0.1354,0.5835,64
18.742,361,-0.1471,0.0924,-1.9038,0.2411,0.2414,-0.0722,97,19.101,368,-4.5239,2.4348,-9.454,0.0027,0.1738,0.6496,64
18.793,362,-0.1182,-0.2868,-1.6144,0.1734,0.2267,-0.0626,97,19.153,369,-4.821,2.5125,-9.5059,-0.0499,0.1761,0.7456,64
18.845,363,-0.0147,-0.027,-1.2258,0.1185,0.1695,-0.0849,97,19.205,370,-4.9543,2.5971,-9.4887,-0.0664,0.129,0.8595,64
18.897,364,-0.1142,-0.1051,-1.7695,-0.0231,0.1562,-0.0641,97,19.257,371,-4.9645,2.7226,-9.5642,-0.1629,0.064,0.9469,64
18.949,365,-0.1765,-0.3368,-2.0097,0.0613,0.1272,-0.0685,97,19.308,372,-4.9215,2.8378,-9.6779,-0.1938,0.0119,1.0043,64
19.001,366,-0.2303,-0.435,-2.2615,-0.0062,0.1399,-0.0494,97,19.36,373,-4.9318,2.9037,-9.7171,-0.1995,-0.0336,1.0185,64
19.052,367,-0.3,-0.5367,-2.4748,0.0266,0.151,-0.0552,97,19.412,374,-5.0866,2.8796,-9.6547,-0.1647,-0.0587,0.9842,64
19.104,368,-0.2335,-0.4326,-2.6021,0.0031,0.2118,-0.0338,97,19.464,375,-5.2389,2.8106,-9.5644,-0.1167,-0.0543,0.9299,64
19.156,369,-0.3062,-0.2145,-2.5743,-0.1067,0.2956,-0.0022,97,19.515,376,-5.2839,2.8809,-9.5222,-0.1003,-0.0297,0.8682,64
19.208,370,-0.385,-0.379,-2.7438,-0.1065,0.2794,-0.002,97,19.567,377,-5.2637,2.918,-9.5637,-0.0768,-0.0069,0.7961,64
19.26,371,-0.3932,-0.373,-2.7294,-0.1287,0.2998,0.0022,97,19.619,378,-5.1355,2.9024,-9.6042,-0.0484,0.0089,0.7051,64
19.311,372,-0.3772,-0.405,-2.6976,-0.1216,0.3264,-0.0055,97,19.671,379,-5.1166,2.8739,-9.5991,-0.0157,0.0227,0.6061,64
19.363,373,-0.3697,-0.3027,-2.6177,-0.1538,0.365,-0.0024,97,19.722,380,-5.1343,2.8417,-9.5224,0.0037,0.0319,0.5135,64
19.415,374,-0.3843,-0.3846,-2.6759,-0.0826,0.3373,-0.0187,97,19.774,381,-5.1503,2.7752,-9.4429,0.0119,0.0434,0.435,64
19.467,375,-0.4562,-0.5461,-2.4868,-0.0343,0.3223,-0.0386,97,19.826,382,-5.003,2.7532,-9.4281,0.0388,0.0634,0.3737,64
19.519,376,-0.7386,-1.0583,-2.6784,0.2759,0.2282,-0.121,97,19.878,383,-4.9325,2.7105,-9.4341,0.0709,0.0719,0.3177,64
19.57,377,-0.3284,-0.6923,-2.4805,0.3212,0.1286,-0.1585,97,19.93,384,-4.8627,2.6742,-9.4569,0.182,0.0947,0.2631,64
19.622,378,-0.3144,-0.6885,-2.7732,0.4061,0.0785,-0.1972,97,19.981,385,-4.7688,2.5895,-9.4947,0.266,0.1551,0.1984,64
19.674,379,-0.3054,-0.4135,-2.7526,0.3245,0.1374,-0.1711,97,20.033,386,-4.6913,2.543,-9.6317,0.3412,0.2242,0.1244,64
19.726,380,-0.3366,-0.3465,-2.7148,0.1461,0.2634,-0.0941,97,20.085,387,-4.7883,2.5577,-9.651,0.4241,0.2432,0.0755,64
19.778,381,-0.3814,-0.4431,-2.7212,0.0179,0.2718,-0.0585,97,20.137,388,-4.8894,2.564,-9.5635,0.4252,0.2127,0.0788,64
19.829,382,-0.3402,-0.5611,-2.7427,-0.0114,0.24,-0.0499,97,20.188,389,-4.8785,2.5286,-9.4431,0.3929,0.1774,0.1315,64
19.881,383,-0.2485,-0.3221,-2.7123,-0.088,0.3006,-0.0218,97,20.24,390,-4.6971,2.5422,-9.4533,0.3448,0.1703,0.1851,64
19.933,384,-0.2016,-0.3313,-2.5518,-0.1484,0.3198,-0.008,97,20.292,391,-4.6024,2.5146,-9.5305,0.3052,0.1663,0.2252,64
19.985,385,-0.178,-0.3026,-2.6438,-0.2399,0.3002,0.0038,97,20.344,392,-4.6795,2.46,-9.4822,0.2734,0.149,0.2566,64
20.037,386,-0.2693,-0.4289,-2.756,-0.3351,0.3167,0.0255,97,20.396,393,-4.7699,2.4035,-9.4884,0.2071,0.1339,0.2995,64
20.088,387,-0.3692,-0.6158,-2.757,-0.3236,0.3214,0.0195,97,20.447,394,-4.847,2.3804,-9.5403,0.1449,0.1166,0.364,64
20.14,388,-0.4094,-0.6808,-2.7242,-0.1444,0.3072,-0.0244,97,20.499,395,-4.886,2.4332,-9.57,0.0652,0.0548,0.4315,64
20.192,389,-0.4055,-0.5685,-2.6374,0.0031,0.2697,-0.0537,97,20.551,396,-5.0039,2.4121,-9.5564,0.0028,-0.0035,0.503,64
20.244,390,-0.2887,-0.4538,-2.7001,0.047,0.271,-0.0599,97,20.603,397,-5.0322,2.3901,-9.4894,-0.0122,-0.0291,0.5583,64
20.295,391,-0.3703,-0.4958,-2.6748,0.0311,0.2799,-0.0587,97,20.655,398,-4.9384,2.4314,-9.516,-0.0185,-0.0174,0.594,64
20.347,392,-0.3714,-0.4173,-2.6695,0.0254,0.2799,-0.062,97,20.706,399,-4.876,2.4917,-9.5866,-0.0288,-0.0114,0.6056,64
20.399,393,-0.313,-0.3439,-2.6124,0.0626,0.2603,-0.077,97,20.758,400,-4.8978,2.5351,-9.5884,-0.0128,-0.0161,0.595,64
20.451,394,-0.3542,-0.3495,-2.6103,0.1347,0.2419,-0.1014,97,20.81,401,-4.9402,2.5518,-9.5162,-0.0015,-0.0084,0.5687,64
20.503,395,-0.3867,-0.3822,-2.5835,0.1463,0.2523,-0.1039,97,20.862,402,-5.004,2.5921,-9.5145,0.0213,0.0183,0.5359,64
20.555,396,-0.4523,-0.5337,-2.5767,0.2122,0.2469,-0.1188,97,20.914,403,-4.9964,2.6375,-9.5617,0.0343,0.0383,0.4946,64
20.607,397,-0.5792,-0.7412,-2.4616,0.4257,0.1722,-0.1787,97,20.965,404,-5.0388,2.6205,-9.5668,0.0584,0.0275,0.4411,64
20.658,398,-0.24,-0.3992,-2.55,0.6472,0.0685,-0.2396,97,21.017,405,-5.0784,2.6304,-9.476,0.1058,0.0128,0.3772,64
20.71,399,-0.2484,-0.4084,-2.7142,0.6195,0.0673,-0.2371,97,21.069,406,-4.9506,2.6918,-9.4851,0.1306,0.0392,0.3408,64
20.762,400,-0.2201,-0.2757,-2.71,0.5057,0.1293,-0.2047,97,21.121,407,-4.7755,2.7211,-9.5789,0.1452,0.0844,0.3274,64
20.814,401,-0.2523,-0.1542,-2.6656,0.369,0.1926,-0.1479,97,21.172,408,-4.8407,2.6679,-9.5527,0.1651,0.1143,0.3002,64
20.866,402,0.0671,-0.1005,-2.4985,0.157,0.3729,-0.0504,97,21.224,409,-4.9411,2.6928,-9.5268,0.1948,0.1337,0.2762,64
20.917,403,-0.1523,-0.3263,-2.5136,0.0587,0.3455,-0.0278,97,21.276,410,-4.964,2.6821,-9.4969,0.1827,0.1464,0.2768,64
20.969,404,0.0041,-0.1374,-2.5679,-0.0725,0.3421,-0.0005,97,21.328,411,-4.9257,2.6404,-9.5475,0.1833,0.1576,0.2782,64
21.021,405,-0.0598,-0.1346,-2.528,-0.2712,0.366,0.0354,97,21.38,412,-4.8224,2.6183,-9.6688,0.1755,0.1709,0.268,64
21.073,406,-0.2059,-0.2858,-2.6301,-0.3519,0.3809,0.041,97,21.431,413,-4.836,2.5577,-9.6694,0.1925,0.1651,0.2638,64
21.124,407,-0.338,-0.6012,-2.6303,-0.2985,0.3747,0.0229,97,21.483,414,-4.8998,2.5278,-9.6107,0.1728,0.1396,0.2796,64
21.176,408,-0.3247,-0.4253,-2.5267,-0.1002,0.3424,-0.0434,97,21.535,415,-5.0065,2.5096,-9.5599,0.1318,0.0972,0.3321,64
21.228,409,-0.4381,-0.6114,-2.5175,0.0087,0.2876,-0.0706,97,21.587,416,-5.0611,2.5029,-9.4938,0.0827,0.0543,0.4061,64
21.28,410,0.2483,0.4179,-2.3846,0.2842,0.2115,-0.1396,97,21.638,417,-5.0452,2.5435,-9.4343,0.0885,0.0233,0.4625,64
21.332,411,0.063,0.0807,-2.3141,0.3421,0.1846,-0.1331,97,21.69,418,-4.9918,2.597,-9.4639,0.0717,0.0286,0.5043,64
21.383,412,0.1189,0.1641,-2.3234,0.2582,0.2025,-0.1037,97,21.742,419,-4.8883,2.7442,-9.5589,0.0994,0.041,0.4997,64
21.435,413,0.0828,0.0626,-2.298,0.0991,0.2429,-0.0536,97,21.794,420,-4.8137,2.7861,-9.5653,0.1388,0.0607,0.4747,64
21.487,414,-0.0375,-0.0558,-2.4846,0.0699,0.2426,-0.0501,97,21.846,421,-4.8753,2.7329,-9.5305,0.1572,0.077,0.4285,64
21.539,415,-0.1242,-0.1792,-2.43,-0.0194,0.2733,-0.0281,97,21.897,422,-4.9785,2.7279,-9.4936,0.1707,0.1018,0.3754,64
21.591,416,-0.2066,-0.3078,-2.53,-0.0228,0.268,-0.0345,97,21.949,423,-5.0355,2.6621,-9.4522,0.1977,0.1329,0.3322,64
21.642,417,-0.2164,-0.3546,-2.566,-0.0334,0.2814,-0.0373,97,22.001,424,-5.0456,2.6815,-9.4845,0.1942,0.1517,0.3087,64
21.694,418,-0.2787,-0.4134,-2.526,-0.0436,0.2932,-0.0316,97,22.053,425,-4.9939,2.6943,-9.5478,0.1632,0.1496,0.3151,64
21.746,419,-0.3017,-0.4592,-2.501,-0.076,0.295,-0.0309,97,22.105,426,-5.0021,2.6717,-9.6011,0.1344,0.1377,0.3374,64
21.798,420,-0.2771,-0.4383,-2.5052,-0.1028,0.309,-0.0293,97,22.157,427,-5.0251,2.5891,-9.6483,0.0967,0.1162,0.3563,64
21.85,421,-0.3856,-0.6624,-2.484,-0.0819,0.3127,-0.0388,97,22.208,428,-5.0278,2.5362,-9.6237,0.0936,0.0952,0.3728,64
21.901,422,-0.3388,-0.5264,-2.5239,0.0154,0.2983,-0.0674,97,22.26,429,-5.0095,2.5086,-9.5945,0.0925,0.0717,0.3941,64
21.953,423,-0.3368,-0.5738,-2.5019,0.0314,0.2914,-0.0699,97,22.312,430,-4.9612,2.523,-9.5549,0.0931,0.0572,0.4153,64
22.005,424,-0.3697,-0.7096,-2.4672,0.088,0.2709,-0.0885,97,22.364,431,-4.9111,2.5693,-9.5281,0.089,0.061,0.4385,64
22.057,425,-0.4615,-0.9545,-2.4756,0.1877,0.2432,-0.1208,97,22.416,432,-4.8654,2.5675,-9.4771,0.101,0.0712,0.452,64
22.109,426,-0.6181,-1.2297,-2.4096,0.5904,0.1409,-0.2047,97,22.467,433,-4.9012,2.5003,-9.3555,0.1349,0.0852,0.4429,64
22.16,427,-0.4437,-0.595,-2.3531,0.6012,0.0968,-0.1994,97,22.519,434,-4.9159,2.5737,-9.3368,0.1704,0.1306,0.4044,64
22.212,428,-0.2988,-0.5756,-2.4372,0.452,0.0955,-0.1525,97,22.571,435,-4.6966,2.6764,-9.3704,0.2369,0.19,0.3534,64
22.264,429,-0.4479,-0.3574,-2.6188,0.214,0.244,-0.0777,97,22.623,436,-4.4802,2.8142,-9.4854,0.2494,0.2267,0.3032,64
22.316,430,-0.4716,-0.3626,-2.6963,0.0941,0.2999,-0.0479,97,22.675,437,-4.5491,2.6858,-9.5442,0.2556,0.2382,0.2688,64
22.368,431,-0.4239,-0.4657,-2.5653,-0.0337,0.3791,-0.0144,97,22.726,438,-4.6995,2.5524,-9.632,0.2353,0.2199,0.2781,64
22.419,432,-0.472,-0.5208,-2.4199,-0.0723,0.4098,-0.009,97,22.778,439,-4.8391,2.3934,-9.6327,0.1911,0.1688,0.3173,64
22.471,433,-0.5087,-0.6299,-2.2507,-0.1177,0.3822,-0.0044,97,22.83,440,-4.8894,2.3502,-9.5431,0.1709,0.111,0.3749,64
22.523,434,-0.473,-0.6634,-2.3054,-0.097,0.3251,-0.0209,97,22.882,441,-4.8005,2.3726,-9.4644,0.1416,0.0733,0.4275,64
22.575,435,-0.4782,-0.7333,-2.3161,-0.0709,0.3141,-0.0336,97,22.934,442,-4.676,2.373,-9.4203,0.1165,0.0585,0.4639,64
22.627,436,-0.4567,-0.8142,-2.3051,-0.0556,0.3028,-0.0434,97,22.985,443,-4.5925,2.4078,-9.3937,0.0965,0.0638,0.4737,64
22.678,437,-0.6065,-0.9969,-2.2831,0.0612,0.2674,-0.0729,97,23.037,444,-4.5977,2.4562,-9.3062,0.0917,0.0771,0.4604,64
22.73,438,-0.7754,-1.1611,-2.3059,0.2499,0.1881,-0.122,97,23.089,445,-4.641,2.4467,-9.1609,0.1256,0.0977,0.4265,64
22.782,439,-0.0398,-0.3786,-2.2087,0.3711,0.1121,-0.1457,97,23.141,446,-4.6495,2.5477,-9.0818,0.1586,0.137,0.3743,64
22.834,440,-0.0829,-0.7999,-2.3539,0.2968,0.1854,-0.0994,97,23.193,447,-4.4851,2.7374,-9.1686,0.1431,0.1907,0.3421,64
22.886,441,-0.1362,-0.6331,-2.4324,0.1296,0.2044,-0.0645,97,23.244,448,-4.4423,2.8651,-9.3096,0.1402,0.2174,0.3309,64
22.937,442,-0.298,-0.9328,-2.4631,-0.0032,0.2535,-0.0337,97,23.296,449,-4.6003,2.7294,-9.3987,0.0883,0.2045,0.3328,64
22.989,443,-0.2693,-0.789,-2.4536,-0.0143,0.2669,-0.0285,97,23.348,450,-4.6494,2.5769,-9.4997,0.0299,0.1718,0.3284,64
23.041,444,-0.304,-0.8256,-2.3806,-0.0801,0.2792,-0.0146,97,23.4,451,-4.6518,2.4796,-9.5893,0.0515,0.1372,0.3146,64
23.093,445,-0.1996,-0.8184,-2.2604,-0.1007,0.2936,-0.0066,97,23.452,452,-4.573,2.4198,-9.6287,0.0863,0.1108,0.2996,64
23.145,446,-0.2036,-0.7067,-2.3098,-0.1219,0.3192,-0.0073,97,23.503,453,-4.5274,2.3682,-9.5842,0.1411,0.0873,0.2909,64
23.196,447,-0.2319,-0.7947,-2.4477,-0.1145,0.3379,-0.0143,97,23.555,454,-4.5168,2.3542,-9.5068,0.1704,0.0723,0.2994,64
23.248,448,-0.1911,-0.7415,-2.3804,-0.1305,0.3832,-0.023,97,23.607,455,-4.5863,2.4089,-9.4746,0.1744,0.066,0.3269,64
23.3,449,-0.3045,-0.8223,-2.2745,-0.1638,0.3995,-0.0237,97,23.659,456,-4.6335,2.4498,-9.4307,0.1822,0.0471,0.3608,64
23.352,450,-0.3349,-0.9268,-2.2195,-0.1544,0.3616,-0.0294,97,23.711,457,-4.679,2.569,-9.3464,0.1632,0.0041,0.3939,64
23.404,451,-0.4689,-1.2132,-2.1682,-0.0871,0.32,-0.0454,97,23.762,458,-4.7311,2.62,-9.1935,0.1325,-0.0148,0.4263,64
23.456,452,-0.3208,-0.7884,-2.2134,0.0236,0.2923,-0.0776,97,23.814,459,-4.7482,2.652,-9.0229,0.1325,0.0118,0.4425,64
23.507,453,-0.3324,-0.7739,-2.2536,0.072,0.3087,-0.0688,97,23.866,460,-4.8142,2.8608,-8.999,0.1031,0.0777,0.4405,64
23.559,454,-0.2444,-0.8245,-2.2136,0.2596,0.3212,-0.1003,97,23.918,461,-4.7519,2.9565,-9.1347,0.0982,0.1427,0.4531,64
23.611,455,-0.0648,-0.7043,-2.083,0.5197,0.2849,-0.1424,97,23.969,462,-4.612,2.8349,-9.469,0.0732,0.1564,0.4328,64
23.663,456,-0.4313,-0.6933,-2.1279,0.4379,0.4059,-0.1028,97,24.021,463,-4.4257,2.7814,-9.6939,0.1091,0.115,0.3515,64
23.715,457,-0.4385,-0.7604,-1.9034,0.3008,0.3211,-0.111,97,24.073,464,-4.34,2.6417,-9.7182,0.1382,0.0654,0.2685,64
23.766,458,-0.4104,-0.7682,-2.0695,0.2549,0.2692,-0.1237,97,24.125,465,-4.339,2.3593,-9.5004,0.2248,0.0323,0.2037,64
23.818,459,-0.2548,-0.6018,-2.05,0.2596,0.2944,-0.1163,97,24.177,466,-4.4794,2.2809,-9.2902,0.2542,0.0439,0.1722,64
23.87,460,-0.2736,-0.6956,-1.8874,0.2283,0.3505,-0.1119,97,24.228,467,-4.5516,2.2994,-9.202,0.2441,0.0906,0.1989,64
23.922,461,-0.2652,-0.8245,-1.7725,0.289,0.3953,-0.1462,97,24.28,468,-4.5877,2.3671,-9.2903,0.2246,0.1299,0.2705,64
23.973,462,-0.4455,-0.7655,-1.6143,0.3926,0.3958,-0.1653,97,24.332,469,-4.5867,2.3847,-9.3506,0.1775,0.1255,0.3435,64
24.025,463,-0.2804,-0.4681,-1.4395,0.4597,0.3229,-0.1732,97,24.384,470,-4.5552,2.4535,-9.3771,0.1654,0.1209,0.3879,64
24.077,464,-0.2915,-0.7079,-1.2545,0.539,0.253,-0.1809,97,24.436,471,-4.5548,2.4665,-9.2271,0.1993,0.1535,0.4089,64
24.129,465,-0.1326,-0.5121,-1.589,0.4024,0.1807,-0.1401,97,24.487,472,-4.4686,2.5237,-9.1378,0.1992,0.2004,0.438,64
24.181,466,-0.1506,-0.4717,-1.4125,0.3831,0.1691,-0.1252,97,24.539,473,-4.4143,2.2814,-9.2451,0.2649,0.2383,0.4468,64
24.232,467,-0.1973,-0.6614,-1.3686,0.3601,0.0597,-0.1316,97,24.591,474,-4.3599,2.2837,-9.4457,0.2384,0.2261,0.4932,64
24.284,468,-0.16,-0.4999,-1.5558,0.3349,-0.0176,-0.1397,97,24.642,475,-4.415,2.1993,-9.4275,0.2224,0.217,0.5108,64
24.336,469,-0.1167,-0.5931,-1.689,0.2255,-0.0387,-0.1064,97,24.694,476,-4.4463,1.4962,-9.2428,0.4405,0.2291,0.5283,64
24.388,470,-0.2242,-0.5936,-1.7387,0.2122,-0.0532,-0.0994,97,24.746,477,-4.2677,1.5015,-9.2001,0.4637,0.2516,0.6035,64
24.44,471,-0.1685,-0.6769,-1.9065,0.1399,-0.074,-0.1187,97,24.798,478,-4.454,1.5703,-9.7162,0.5439,0.285,0.7639,64
24.491,472,-0.3601,-0.8244,-1.6288,-0.1729,-0.1659,-0.1108,97,24.85,479,-4.6213,1.7468,-9.1366,0.4715,0.2876,0.7401,64
24.543,473,0.0882,-1.1216,-2.4949,-0.355,-0.4592,-0.042,97,24.901,480,-5.4369,2.1508,-9.2295,0.3084,0.5343,0.7123,64
24.595,474,-1.445,-1.0647,-3.7224,-0.8449,-0.0516,0.1852,97,24.953,481,-4.9411,2.1405,-9.7173,0.3204,0.7133,0.5179,64
24.647,475,1.6404,-2.0239,-1.9754,-0.7895,-0.1074,0.2633,97,25.005,482,-4.3886,2.9488,-10.6014,0.4684,0.5383,0.282,64
24.699,476,1.4373,-2.2811,-2.9896,-0.4101,0.0295,0.081,97,25.057,483,-3.2527,2.7981,-10.5818,0.4308,0.2299,0.0938,64
24.75,477,1.2187,-0.8172,-3.0425,0.1628,0.2187,0.0314,97,25.109,484,-2.3591,2.0984,-10.2578,0.6094,0.0519,-0.2843,64
24.802,478,0.5122,-1.1993,-2.8948,0.6232,0.3682,-0.0774,97,25.16,485,-2.3285,1.0011,-9.6418,0.7717,-0.1129,-0.5775,64
24.854,479,-0.0018,-1.6068,-2.6011,1.1028,0.3377,-0.1747,97,25.212,486,-2.8421,0.7588,-9.3003,0.7028,-0.2749,-0.6515,64
24.906,480,-0.3575,-2.0768,-2.3394,1.5033,0.0357,-0.3904,97,25.264,487,-2.8859,0.6418,-8.3472,0.5225,-0.3406,-0.4301,64
24.958,481,0.1411,0.2758,-1.5828,1.7956,-0.2197,-0.4549,97,25.316,488,-2.9382,0.0845,-8.0322,0.1463,-0.2317,-0.2598,64
25.01,482,0.3746,0.3605,-0.6309,1.3016,-0.2311,-0.418,97,25.368,489,-3.1853,-0.0266,-8.1559,0.0804,0.0496,-0.0616,64
25.061,483,0.6746,-0.7,-2.2584,0.7398,-0.3677,-0.253,97,25.419,490,-3.6519,0.2361,-8.0402,0.0121,0.3541,0.2609,64
25.113,484,0.6126,-0.0402,-2.508,0.5824,-0.2084,-0.2334,97,25.471,491,-3.9816,0.3206,-7.9121,0.1207,0.7027,0.6552,64
25.165,485,0.2268,-0.4496,-2.5978,0.2349,0.0387,-0.1643,97,25.523,492,-5.1046,1.2324,-8.6503,0.4778,1.2013,0.7788,64
25.217,486,-0.3475,-0.1769,-2.6119,0.0333,0.3323,-0.1313,97,25.575,493,-4.6842,1.8861,-8.86,0.0399,1.5876,0.8223,64
25.268,487,-0.4089,-0.5731,-2.954,-0.1718,0.4123,-0.1275,97,25.626,494,-2.889,1.4704,-12.1537,-0.5965,1.7037,0.9477,64
25.32,488,-0.3158,-0.963,-2.6081,-0.2791,0.6101,-0.1178,97,25.678,495,-1.4777,1.1417,-9.8333,-0.3442,1.5765,0.7658,64
25.372,489,-0.3409,-1.6131,-2.3159,-0.4359,0.6593,-0.0902,97,25.73,496,-0.7343,1.2992,-8.0146,-0.1286,1.509,0.5886,64
25.424,490,-0.313,-1.4364,-2.556,-0.3911,0.7584,-0.1348,97,25.782,497,-0.4218,1.2885,-6.6283,-0.0057,1.5066,0.5936,64
25.476,491,-0.1973,-0.6282,-2.1137,-0.3618,0.8516,-0.1361,97,25.834,498,-0.606,1.3963,-5.2525,-0.1851,1.4235,0.627,64
25.527,492,-0.0795,-0.2698,-1.53,-0.6906,0.8825,-0.0826,97,25.885,499,-0.11,1.085,-4.3708,-0.0737,1.2978,0.5984,64
25.579,493,-0.0741,0.7442,-1.0918,-1.1573,0.9308,0.0726,97,25.937,500,0.1276,1.054,-3.854,-0.0469,1.1195,0.5531,64
25.631,494,0.039,0.7388,-1.1047,-1.498,0.8291,0.091,97,25.989,501,0.1897,0.9585,-3.4212,-0.0252,0.9856,0.5113,64
25.683,495,0.0156,0.9635,-1.6164,-1.2243,0.6093,-0.2443,97,26.041,502,0.1328,1.0131,-2.9837,-0.0166,0.8164,0.4909,64
25.735,496,-0.4584,0.0132,-1.9077,-0.5932,0.3525,-0.5624,97,26.092,503,0.1755,0.8998,-2.7335,0.0282,0.6546,0.4578,64
25.786,497,-0.8214,0.4574,-1.9223,0.2655,0.1671,-0.8028,97,26.144,504,0.1158,0.9161,-2.4562,0.0459,0.4918,0.4722,64
25.838,498,-0.0903,0.5843,-2.7016,0.2691,0.4146,-0.4878,97,26.196,505,0.1128,1.1753,-2.2438,0.066,0.3075,0.4981,64
25.89,499,-0.209,1.4691,-2.3236,0.5635,0.3174,-0.3489,97,26.248,506,0.1881,0.9162,-2.3281,0.0648,0.1464,0.5199,64
25.942,500,-0.1396,0.8384,-2.0843,0.5013,0.2266,-0.2351,97,26.3,507,0.2211,0.8203,-2.4003,0.1092,0.0711,0.544,64
25.994,501,-0.2076,0.7161,-2.1163,0.5974,0.1416,-0.1647,97,26.351,508,0.1577,0.6648,-2.4235,0.0768,-0.0246,0.5579,64
26.045,502,-0.1622,0.876,-1.9135,0.8029,0.0085,-0.1181,97,26.403,509,0.1945,0.4789,-2.5241,0.0875,-0.1276,0.5567,64
26.097,503,-0.0675,1.2893,-1.5399,0.5528,-0.0528,-0.0205,97,26.455,510,0.2638,0.2976,-2.7245,0.0808,-0.2088,0.5519,64
