right_leg_timestamp,right_leg_index,right_leg_accel_x,right_leg_accel_y,right_leg_accel_z,right_leg_gyro_x,right_leg_gyro_y,right_leg_gyro_z,right_leg_battery_percentage,left_leg_timestamp,left_leg_index,left_leg_accel_x,left_leg_accel_y,left_leg_accel_z,left_leg_gyro_x,left_leg_gyro_y,left_leg_gyro_z,left_leg_battery_percentage
0.03,0,9.5905,-0.2722,-9.4779,0.0727,0.0353,-0.0194,93,0.462,8,8.7184,0.3757,-7.6083,-0.0791,-0.2071,-0.0418,63
0.081,1,9.6395,-0.213,-9.4643,0.0342,-0.0304,-0.0062,93,0.514,9,8.7553,0.4368,-7.733,-0.0213,-0.2311,-0.0424,63
0.133,2,9.6449,-0.2095,-9.4924,0.0192,-0.0941,0.0045,93,0.565,10,8.8011,0.427,-7.8779,0.008,-0.2458,-0.0321,63
0.185,3,9.6291,-0.228,-9.5549,0.0155,-0.163,0.0166,93,0.617,11,8.8246,0.4958,-7.9708,0.0172,-0.2522,-0.0337,63
0.237,4,9.6571,-0.204,-9.661,0.0186,-0.2352,0.0283,93,0.669,12,8.8689,0.4318,-8.1585,-0.0218,-0.2441,-0.0224,63
0.289,5,9.6778,-0.217,-9.8442,0.013,-0.2953,0.0386,93,0.721,13,8.9033,0.4592,-8.3118,-0.0053,-0.2253,-0.0038,63
0.34,6,9.6869,-0.2328,-10.0501,0.0005,-0.3302,0.0436,93,0.773,14,8.9247,0.4636,-8.418,-0.0085,-0.1986,0.0152,63
0.392,7,9.6932,-0.2788,-10.3197,-0.0038,-0.3286,0.0508,93,0.824,15,8.8548,0.543,-8.4194,-0.042,-0.1836,0.0278,63
0.444,8,9.6826,-0.2782,-10.4699,0.032,-0.3005,0.0504,93,0.876,16,8.9069,0.4638,-8.4995,-0.1408,-0.2258,0.0266,63
0.496,9,9.6705,-0.3452,-10.6965,0.0617,-0.2704,0.0567,93,0.928,17,8.9738,0.3823,-8.6686,-0.1264,-0.284,0.0363,63
0.547,10,9.6625,-0.3261,-10.8511,0.1036,-0.222,0.0558,93,0.98,18,8.9763,0.3583,-8.9083,-0.1308,-0.264,0.0064,63
0.599,11,9.6358,-0.3239,-10.8999,0.0619,-0.1411,0.0578,93,1.031,19,8.8802,0.4175,-8.9611,-0.2,-0.2351,-0.0416,63
0.651,12,9.5449,-0.3343,-10.9302,0.0384,-0.0434,0.0747,93,1.083,20,8.8762,0.3556,-9.087,-0.1816,-0.2298,-0.0769,63
0.703,13,9.5931,-0.4307,-10.8759,-0.0005,-0.0121,0.0934,93,1.135,21,8.8743,0.232,-9.2508,-0.0535,-0.2026,-0.1226,63
0.755,14,9.61,-0.4132,-10.8819,0.027,0.0004,0.0804,93,1.187,22,8.954,0.2961,-9.355,0.0445,-0.1467,-0.1927,63
0.807,15,9.5893,-0.5947,-10.7826,0.0363,-0.009,0.0514,93,1.239,23,8.9843,0.5622,-9.5031,0.0966,-0.0457,-0.2444,63
0.858,16,9.6111,-0.6279,-10.7767,0.0061,-0.0622,0.0334,93,1.29,24,8.965,0.8723,-9.4573,0.067,-0.0428,-0.2169,63
0.91,17,9.6059,-0.635,-10.8456,-0.0463,-0.1212,0.0078,93,1.342,25,8.9429,0.8911,-9.4949,0.0773,-0.0646,-0.1732,63
0.962,18,9.6331,-0.535,-11.0024,-0.1451,-0.1655,-0.0301,93,1.394,26,8.9208,1.0047,-9.5937,0.1057,-0.0412,-0.1424,63
1.014,19,9.7123,-0.6239,-11.1697,-0.1359,-0.2709,-0.0563,93,1.446,27,8.7657,1.3538,-9.3876,0.0438,-0.0486,-0.0929,63
1.065,20,10.1457,-1.625,-13.5831,-0.4917,-0.6869,0.1097,93,1.498,28,8.7572,1.0278,-9.6143,-0.188,-0.1045,-0.0711,63
1.117,21,11.0206,-1.6404,-15.0584,-1.0334,-1.1747,0.3206,93,1.549,29,8.8718,0.9677,-9.6687,-0.0717,-0.0743,-0.0946,63
1.169,22,10.8599,-1.5176,-15.1817,-0.9059,-1.5308,0.3729,93,1.601,30,8.846,1.1258,-9.7158,-0.0227,-0.0807,-0.0695,63
1.221,23,9.9005,-0.9629,-14.6144,-0.7271,-1.7906,0.3831,93,1.653,31,8.9179,1.1336,-9.8104,-0.0365,-0.0375,-0.0453,63
1.272,24,8.419,-0.7656,-14.5845,-0.6059,-1.7958,0.3173,93,1.705,32,8.9528,1.1142,-9.6814,-0.0214,0.0131,-0.0338,63
1.324,25,7.4413,-0.4226,-14.6238,-0.4181,-1.6779,0.2156,93,1.756,33,8.8417,1.3445,-9.5238,-0.0148,0.0018,-0.0071,63
1.376,26,6.4534,-0.4,-14.9702,-0.3394,-1.424,0.1671,93,1.808,34,8.7991,1.508,-9.419,-0.0355,-0.0173,-0.0019,63
1.428,27,5.9727,-0.4013,-15.4841,-0.1435,-1.1747,0.0825,93,1.86,35,9.0497,1.1192,-9.5281,-0.1509,-0.024,0.0126,63
1.479,28,5.8503,-0.304,-15.9191,-0.1502,-0.9301,0.0857,93,1.912,36,8.9678,1.2243,-9.5679,-0.1613,-0.047,-0.0047,63
1.531,29,5.6574,-0.5476,-16.5253,-0.1022,-0.7172,0.1112,93,1.964,37,9.0093,1.2174,-9.6561,-0.1543,-0.1064,0.0185,63
1.583,30,5.5829,-0.4794,-16.9173,0.0066,-0.5541,0.1071,93,2.015,38,9.0882,1.0109,-9.8241,-0.1419,-0.1013,0.0183,63
1.635,31,5.391,-0.5949,-17.3046,-0.0462,-0.4311,0.1214,93,2.067,39,9.0506,1.1668,-9.7826,-0.1836,-0.0912,0.0181,63
1.687,32,5.2346,-0.5955,-17.5572,-0.1141,-0.3479,0.1482,93,2.119,40,9.0365,0.95,-9.8024,-0.1765,-0.073,0.0096,63
1.738,33,5.137,-0.7074,-17.9028,-0.1358,-0.2814,0.1341,93,2.17,41,9.0725,0.8943,-9.8137,-0.0577,-0.051,-0.0083,63
1.79,34,5.0914,-0.7704,-18.1021,-0.1035,-0.2645,0.1072,93,2.222,42,8.9511,1.2807,-9.8049,0.0822,-0.0352,-0.0309,63
1.842,35,5.0402,-0.8206,-18.2072,-0.0986,-0.2621,0.1096,93,2.274,43,8.929,1.3272,-9.8906,0.0684,-0.0352,-0.0242,63
1.894,36,5.0547,-0.8665,-18.2438,-0.0714,-0.2607,0.1023,93,2.326,44,8.9664,1.2973,-9.9139,0.0786,0.0084,-0.0302,63
1.946,37,4.9837,-0.9352,-18.2636,-0.0768,-0.2512,0.1056,93,2.378,45,8.85,1.428,-9.9139,0.0981,0.0205,-0.0113,63
1.997,38,4.9126,-0.8653,-18.2447,-0.1051,-0.2336,0.1483,93,2.429,46,8.8409,1.3411,-9.8822,0.057,0.0164,0.0032,63
2.049,39,4.8648,-0.8013,-18.2355,-0.1373,-0.1983,0.19,93,2.481,47,8.9303,1.3783,-9.7276,0.052,0.0421,-0.0049,63
2.101,40,4.8384,-0.7331,-18.2211,-0.1048,-0.1558,0.1715,93,2.533,48,8.9296,1.3296,-9.802,0.0592,0.0586,-0.0107,63
2.153,41,4.6634,-0.6918,-18.2343,-0.0373,-0.0957,0.1057,93,2.585,49,8.8997,1.4453,-9.7869,0.0469,0.0316,0.0014,63
2.205,42,4.5067,-0.6878,-18.2091,0.0181,-0.0361,0.0422,93,2.636,50,8.8536,1.4741,-9.6972,0.0169,-0.0053,0.0078,63
2.257,43,4.4685,-0.7757,-18.3498,0.0545,0.0175,-0.0041,93,2.688,51,8.9086,1.4301,-9.6444,-0.1133,-0.0428,0.009,63
2.308,44,4.4164,-0.8398,-18.4943,0.103,0.0418,-0.0422,93,2.74,52,8.92,1.3556,-9.6896,-0.193,-0.0698,0.0096,63
2.36,45,4.3063,-0.8878,-18.5885,0.1214,0.0423,-0.0553,93,2.792,53,8.953,1.2702,-9.8104,-0.2049,-0.0629,0.0045,63
2.412,46,4.2231,-0.9409,-18.6609,0.1208,0.0274,-0.0586,93,2.844,54,8.9463,1.2177,-9.8403,-0.166,-0.0411,-0.0022,63
2.464,47,4.1484,-0.9926,-18.6409,0.1289,0.0083,-0.0561,93,2.895,55,8.936,1.1582,-9.8717,-0.1316,-0.0297,-0.0098,63
2.515,48,4.0877,-1.0287,-18.6584,0.1236,0.0024,-0.0473,93,2.947,56,8.9156,1.3062,-9.8597,-0.0963,-0.0219,-0.0098,63
2.567,49,4.0853,-1.0759,-18.7038,0.0963,0.0013,-0.0207,93,2.999,57,8.9109,1.2096,-9.9146,-0.0603,-0.0075,-0.0078,63
2.619,50,4.0997,-1.1412,-18.7361,0.0532,-0.0114,0.0218,93,3.051,58,8.9321,1.0204,-9.945,-0.0171,0.0043,-0.0149,63
2.671,51,4.1692,-1.2123,-18.7577,0.0198,-0.0371,0.0661,93,3.103,59,8.8284,1.4861,-9.9755,0.102,-0.0016,-0.0289,63
2.723,52,4.2238,-1.2446,-18.7365,0.004,-0.0645,0.0979,93,3.154,60,8.8765,1.4619,-9.9447,0.082,0.0015,-0.0283,63
2.774,53,4.2465,-1.2356,-18.6042,0.0031,-0.0814,0.1166,93,3.206,61,8.9187,1.4522,-9.9268,0.0828,0.0075,-0.0302,63
2.826,54,4.2574,-1.2097,-18.4771,-0.0059,-0.0722,0.1286,93,3.258,62,8.8907,1.4304,-9.9216,0.0676,0.0144,-0.0297,63
2.878,55,4.2743,-1.1629,-18.4588,-0.0057,-0.042,0.1289,93,3.31,63,8.9303,1.2428,-9.9076,0.0922,0.034,-0.0353,63
2.93,56,4.2945,-1.1561,-18.4894,-0.0035,-0.0347,0.1188,93,3.361,64,8.8765,1.4759,-9.9242,0.1329,0.0616,-0.0497,63
2.982,57,4.3277,-1.1514,-18.5575,0.0237,-0.035,0.0906,93,3.413,65,8.8368,1.4963,-9.9025,0.1563,0.0479,-0.0238,63
3.033,58,4.327,-1.1163,-18.5809,0.0606,-0.0305,0.0482,93,3.465,66,8.8496,1.4435,-9.8856,0.1291,0.0286,-0.0039,63
3.085,59,4.2409,-1.0644,-18.607,0.0607,-0.0178,0.026,93,3.517,67,8.8516,1.4318,-9.875,0.1117,0.0511,-0.0005,63
3.137,60,4.1596,-1.0441,-18.685,0.0192,-0.014,0.0175,93,3.569,68,8.8047,1.5601,-9.7868,0.0963,0.0329,0.006,63
3.189,61,4.1296,-1.1248,-18.7765,-0.0225,-0.0171,0.0151,93,3.62,69,8.8086,1.526,-9.8042,0.0279,-0.0013,0.0142,63
3.24,62,4.1969,-1.0697,-18.7614,0.002,-0.0308,-0.005,93,3.672,70,8.899,1.3485,-9.8463,0.0187,-0.0275,0.0133,63
3.292,63,4.2131,-1.1005,-18.6991,-0.0046,-0.0405,-0.0179,93,3.724,71,8.8875,1.4287,-9.8059,0.0419,-0.0199,0.0098,63
3.344,64,4.1425,-1.0685,-18.6138,0.002,-0.0425,-0.0309,93,3.776,72,8.8559,1.506,-9.7992,0.0,-0.0261,0.0235,63
3.396,65,4.1208,-1.0925,-18.5573,-0.0112,-0.0358,-0.0481,93,3.827,73,8.8429,1.4758,-9.7952,-0.0473,-0.0394,0.0206,63
3.448,66,4.0973,-1.0954,-18.4941,0.0007,-0.0223,-0.0801,93,3.879,74,8.8926,1.3062,-9.8691,-0.0717,-0.0519,0.0145,63
3.5,67,4.058,-1.1328,-18.4681,0.004,0.0007,-0.1092,93,3.931,75,8.9392,1.2126,-9.9698,-0.0286,-0.0476,0.0092,63
3.551,68,4.0675,-1.1931,-18.5407,0.009,0.0267,-0.1273,93,3.983,76,8.9284,1.3094,-9.9536,0.0375,-0.0318,-0.0023,63
3.603,69,4.1205,-1.2634,-18.6431,0.0151,0.0363,-0.1341,93,4.035,77,8.9192,1.3572,-9.9894,0.0564,-0.013,-0.0014,63
3.655,70,4.1349,-1.2916,-18.6604,0.018,0.0264,-0.1268,93,4.086,78,8.9126,1.3497,-9.9635,0.0587,0.0076,0.0005,63
3.707,71,4.1231,-1.3024,-18.6387,0.002,0.0166,-0.102,93,4.138,79,8.892,1.3772,-9.8847,0.0703,0.0284,0.0009,63
3.759,72,4.1389,-1.2949,-18.6275,-0.0233,0.0148,-0.0667,93,4.19,80,8.8552,1.3741,-9.8963,0.0548,0.0381,0.0009,63
3.81,73,4.1399,-1.2666,-18.6135,-0.0279,0.0173,-0.0368,93,4.241,81,8.8797,1.3435,-9.9166,0.0307,0.0321,0.007,63
3.862,74,4.1391,-1.2266,-18.6151,-0.0233,0.0165,-0.027,93,4.293,82,8.8794,1.3737,-9.8611,0.0134,0.0592,-0.0011,63
3.914,75,4.1299,-1.1923,-18.6215,0.0,0.0135,-0.0369,93,4.345,83,8.8657,1.3632,-9.803,0.0109,0.059,-0.0043,63
3.966,76,4.0993,-1.1601,-18.611,0.0315,0.0152,-0.0513,93,4.397,84,8.8699,1.2774,-9.886,-0.0079,0.0871,-0.0106,63
4.018,77,4.0845,-1.121,-18.6198,0.0394,0.0142,-0.0596,93,4.449,85,8.8308,1.3954,-9.8121,0.0131,0.0748,-0.0073,63
4.069,78,4.102,-1.1037,-18.6227,0.0339,0.0107,-0.0576,93,4.501,86,8.7436,1.5699,-9.6845,-0.0161,0.0437,0.0036,63
4.121,79,4.1777,-1.1136,-18.6453,0.0122,0.0129,-0.043,93,4.553,87,8.6892,1.6275,-9.6345,-0.1153,-0.0337,0.0142,63
4.173,80,4.3691,-1.0677,-18.6386,-0.0065,-0.0,-0.0174,93,4.604,88,8.8324,1.3036,-9.6854,-0.1428,-0.122,0.0105,63
4.225,81,4.5077,-1.0352,-18.588,-0.0275,-0.0132,0.0151,93,4.656,89,8.9155,1.2987,-9.8453,-0.1603,-0.1493,0.0148,63
4.277,82,4.5413,-1.004,-18.533,-0.0407,-0.0093,0.036,93,4.708,90,8.9297,1.2398,-9.9167,-0.1518,-0.1249,0.012,63
4.328,83,4.4464,-1.0204,-18.4518,-0.0505,0.0046,0.0366,93,4.76,91,8.8767,1.3132,-9.9082,-0.1498,-0.1169,0.0102,63
4.38,84,4.3374,-1.0136,-18.3707,-0.0424,0.0129,0.0281,93,4.811,92,8.8987,1.2543,-10.0056,-0.1214,-0.1203,0.0074,63
4.432,85,4.252,-1.0485,-18.3846,-0.0042,0.0286,0.0122,93,4.863,93,8.9523,1.1646,-10.1429,-0.0384,-0.0973,-0.0022,63
4.484,86,4.1918,-1.0986,-18.4695,0.0129,0.0472,0.008,93,4.915,94,8.8519,1.5907,-10.1317,0.0807,-0.0689,-0.0161,63
4.535,87,4.2073,-1.1471,-18.6045,0.0012,0.0571,0.019,93,4.967,95,8.8732,1.4206,-10.1431,0.0579,-0.0489,-0.0056,63
4.587,88,4.2513,-1.1382,-18.6873,0.0063,0.046,0.0352,93,5.018,96,8.8819,1.3874,-10.138,0.0604,-0.0447,-0.0078,63
4.639,89,4.251,-1.1057,-18.6455,-0.0108,0.0312,0.0604,93,5.07,97,8.8664,1.3899,-10.1912,0.0644,-0.0427,-0.0074,63
4.691,90,4.2478,-1.0526,-18.6128,-0.039,0.0243,0.0824,93,5.122,98,8.8446,1.3725,-10.1976,0.0455,-0.0241,-0.0132,63
4.743,91,4.297,-1.0132,-18.6239,-0.0367,0.0165,0.0861,93,5.174,99,8.8196,1.3952,-10.1674,0.022,-0.0262,-0.0175,63
4.794,92,4.318,-1.0014,-18.6072,-0.0126,0.0094,0.0523,93,5.225,100,8.8479,1.3414,-10.2251,0.0111,-0.0433,-0.0147,63
4.846,93,4.2459,-0.9813,-18.5034,0.0178,0.0142,0.0021,93,5.277,101,8.852,1.3728,-10.3017,0.0114,-0.0313,-0.0139,63
4.898,94,4.1964,-0.9837,-18.4074,0.036,0.0313,-0.0297,93,5.329,102,8.8866,1.313,-10.3411,0.022,0.0004,-0.0123,63
4.95,95,4.1973,-1.0361,-18.4918,0.0661,0.0435,-0.0547,93,5.381,103,9.0015,1.3341,-10.0565,0.0712,0.05,-0.0167,63
5.002,96,4.2331,-1.0963,-18.6278,0.0714,0.0456,-0.0692,93,5.433,104,8.9288,1.3637,-10.1028,0.0575,0.0798,-0.0174,63
5.053,97,4.2898,-1.1044,-18.6751,0.0649,0.0315,-0.0718,93,5.484,105,8.912,1.4306,-10.1514,0.0705,0.0617,-0.0106,63
5.105,98,4.3375,-1.0885,-18.6528,0.0438,0.0111,-0.0503,93,5.536,106,8.8954,1.4974,-10.1477,0.0537,0.0533,0.0024,63
5.157,99,4.3893,-1.0861,-18.6648,0.0165,-0.003,-0.0152,93,5.588,107,8.7934,1.5487,-10.0647,0.001,0.0629,0.0129,63
5.209,100,4.4308,-1.0489,-18.6532,0.0069,-0.0175,0.0017,93,5.64,108,8.8047,1.3655,-10.0501,-0.0487,-0.0039,0.033,63
5.261,101,4.4238,-1.0105,-18.6011,0.0091,-0.0363,-0.0036,93,5.691,109,8.9324,1.3313,-9.9838,-0.0439,-0.0455,0.0318,63
5.312,102,4.3923,-0.9818,-18.5175,0.0232,-0.0475,-0.0177,93,5.743,110,8.9509,1.3108,-10.0587,-0.0556,-0.0404,0.0295,63
5.364,103,4.3561,-1.016,-18.4602,0.0254,-0.0363,-0.0302,93,5.795,111,8.9181,1.3309,-10.0902,-0.052,-0.0358,0.0306,63
5.416,104,4.3881,-1.0221,-18.5004,0.0267,-0.0327,-0.0433,93,5.847,112,8.9175,1.2854,-10.1016,-0.0392,-0.0406,0.0308,63
5.468,105,4.3798,-1.0451,-18.5134,0.0476,-0.0412,-0.0636,93,5.899,113,8.907,1.3366,-10.095,-0.0415,-0.0369,0.026,63
5.519,106,4.358,-1.0941,-18.4906,0.0668,-0.0461,-0.0825,93,5.951,114,8.8646,1.4257,-10.0787,-0.0515,-0.0532,0.036,63
5.571,107,4.4003,-1.187,-18.5089,0.085,-0.0356,-0.1025,93,6.002,115,8.8806,1.3802,-10.1535,-0.0995,-0.0589,0.0371,63
5.623,108,4.3745,-1.2121,-18.4743,0.0802,-0.0238,-0.1023,93,6.054,116,8.893,1.2885,-10.2013,-0.1374,-0.0579,0.041,63
5.675,109,4.3095,-1.192,-18.4177,0.0711,-0.0138,-0.0765,93,6.106,117,8.9259,1.2409,-10.2347,-0.1536,-0.0504,0.0342,63
5.727,110,4.3175,-1.2133,-18.4778,0.0363,0.0005,-0.0335,93,6.158,118,8.9124,1.2041,-10.2562,-0.1325,-0.0417,0.0223,63
5.778,111,4.3318,-1.2426,-18.6097,0.0296,0.0039,-0.0116,93,6.209,119,8.9013,1.1464,-10.2592,-0.0944,-0.0502,0.0099,63
5.83,112,4.2698,-1.2592,-18.6745,0.0359,-0.0114,-0.0029,93,6.261,120,8.9044,1.2077,-10.3415,-0.0854,-0.0549,0.0068,63
5.882,113,4.1905,-1.2788,-18.6999,0.02,-0.0303,0.0209,93,6.313,121,8.93,1.1716,-10.4081,-0.0751,-0.034,0.0035,63
5.934,114,4.1042,-1.282,-18.6573,-0.0217,-0.0446,0.0716,93,6.365,122,8.9586,0.9609,-10.4446,-0.0057,-0.0009,-0.0039,63
5.986,115,4.1011,-1.2921,-18.6773,-0.0673,-0.0567,0.1237,93,6.417,123,8.9405,1.2159,-10.3163,0.0887,0.0131,-0.0194,63
6.037,116,4.1715,-1.2842,-18.6605,-0.0869,-0.0741,0.1513,93,6.468,124,8.8948,1.3788,-10.4432,0.0868,0.0479,-0.035,63
6.089,117,4.1695,-1.2762,-18.5769,-0.0973,-0.0804,0.1597,93,6.52,125,8.9322,1.2951,-10.4051,0.0514,0.0401,-0.0257,63
6.141,118,4.1044,-1.2467,-18.4906,-0.086,-0.0651,0.1549,93,6.572,126,8.8782,1.2955,-10.4027,0.0398,0.0055,-0.016,63
6.192,119,4.0826,-1.2583,-18.5055,-0.0693,-0.0385,0.1389,93,6.624,127,8.8616,1.3802,-10.3478,0.004,-0.0072,-0.0078,63
6.244,120,4.1058,-1.2334,-18.5903,-0.0309,-0.0356,0.1097,93,6.675,128,8.8944,1.2877,-10.2795,-0.0432,-0.0127,-0.0006,63
6.296,121,4.13,-1.2355,-18.64,0.0105,-0.049,0.0773,93,6.727,129,8.9295,1.1243,-10.3332,-0.0154,-0.0185,-0.0012,63
6.348,122,4.0942,-1.2506,-18.6246,0.0296,-0.0523,0.0505,93,6.779,130,8.8965,1.3341,-10.248,0.0805,-0.0128,-0.0111,63
6.4,123,4.0777,-1.2504,-18.6083,0.0325,-0.0372,0.0526,93,6.831,131,8.9063,1.3781,-10.2447,0.0491,0.0063,-0.0023,63
6.452,124,4.1042,-1.2068,-18.6357,0.0195,-0.0226,0.0753,93,6.882,132,8.9091,1.3036,-10.2171,0.0254,0.0125,0.0008,63
6.504,125,4.1212,-1.1416,-18.7018,0.0051,-0.0135,0.0924,93,6.934,133,8.8801,1.3329,-10.2458,0.0423,-0.0,0.0022,63
6.555,126,4.1057,-1.1319,-18.7338,-0.0371,-0.0061,0.1021,93,6.986,134,8.8885,1.3488,-10.2933,0.0244,-0.0039,0.0099,63
6.607,127,4.063,-1.1428,-18.7201,-0.0578,-0.0121,0.1035,93,7.038,135,8.9257,1.3322,-10.2909,0.002,0.0,0.0096,63
6.659,128,4.0637,-1.1584,-18.7093,-0.044,-0.0172,0.0891,93,7.089,136,8.9286,1.294,-10.3075,-0.0158,0.0018,0.0145,63
6.71,129,4.0506,-1.1628,-18.704,-0.0183,-0.0154,0.0462,93,7.141,137,8.8715,1.3805,-10.3216,-0.0049,0.0066,0.0108,63
6.762,130,4.017,-1.1366,-18.6701,-0.0012,-0.0165,0.0077,93,7.193,138,8.8994,1.3188,-10.2852,-0.0118,0.0162,0.0112,63
6.814,131,4.0044,-1.1385,-18.6285,0.0128,-0.0186,-0.0193,93,7.245,139,8.8929,1.2535,-10.2395,0.0013,0.0137,0.006,63
6.866,132,3.9657,-1.1634,-18.6283,0.0167,-0.0062,-0.0398,93,7.297,140,8.8856,1.3009,-10.2794,0.0044,0.0058,0.0049,63
6.918,133,3.9348,-1.1708,-18.6606,0.0122,0.0108,-0.0616,93,7.348,141,8.9029,1.2367,-10.2768,0.0145,0.0147,0.0002,63
6.969,134,3.9564,-1.2082,-18.715,0.0149,0.015,-0.075,93,7.401,142,8.9166,1.1726,-10.2847,0.0517,0.023,-0.0076,63
7.021,135,3.9692,-1.2454,-18.7729,0.0152,0.0051,-0.0828,93,7.452,143,8.9037,1.2583,-10.2682,0.0254,0.0293,-0.0064,63
7.073,136,3.9552,-1.2741,-18.8038,0.0277,-0.0106,-0.0952,93,7.504,144,8.8855,1.2709,-10.2084,0.0208,0.028,-0.0104,63
7.125,137,3.9448,-1.2936,-18.7475,0.0243,-0.0219,-0.0964,93,7.556,145,8.882,1.2538,-10.2425,0.0019,0.0202,-0.0121,63
7.176,138,3.9431,-1.3016,-18.7179,0.0199,-0.0251,-0.0919,93,7.607,146,8.9093,1.186,-10.2762,0.032,0.0314,-0.0164,63
7.228,139,3.9251,-1.2949,-18.7009,0.0344,-0.0245,-0.0941,93,7.659,147,8.931,1.1039,-10.2291,0.1079,0.0501,-0.024,63
7.28,140,3.9172,-1.2968,-18.6653,0.0328,-0.0212,-0.0937,93,7.711,148,8.8719,1.3031,-10.2149,0.0934,0.0556,-0.0189,63
7.332,141,3.8868,-1.3071,-18.6707,0.0473,-0.0151,-0.0993,93,7.763,149,8.8844,1.2674,-10.1601,0.0914,0.0623,-0.0206,63
7.384,142,3.8582,-1.3008,-18.6756,0.0611,-0.0092,-0.0977,93,7.815,150,8.8548,1.3262,-10.1516,0.0706,0.051,-0.0221,63
7.435,143,3.8744,-1.3646,-18.7716,0.05,-0.0003,-0.0791,93,7.866,151,8.904,1.2795,-10.1382,0.0726,0.05,-0.022,63
7.487,144,3.8747,-1.3442,-18.8384,0.0432,-0.0082,-0.0601,93,7.918,152,8.944,1.3043,-10.0522,0.0817,0.1088,-0.0347,63
7.539,145,3.8548,-1.3362,-18.8447,0.0475,-0.0245,-0.0443,93,7.97,153,8.8797,1.3986,-10.0543,0.081,0.1142,-0.0339,63
7.591,146,3.8597,-1.2757,-18.7759,0.0426,-0.0374,-0.0363,93,8.022,154,8.8902,1.3691,-10.0056,0.0911,0.0965,-0.0297,63
7.643,147,3.8327,-1.2573,-18.722,0.0424,-0.0393,-0.0265,93,8.073,155,8.8624,1.3993,-9.9398,0.0633,0.0933,-0.0322,63
7.694,148,3.8373,-1.3043,-18.7193,0.0395,-0.0371,-0.0094,93,8.125,156,8.8512,1.4343,-9.9491,0.0535,0.0764,-0.0317,63
7.746,149,3.8589,-1.3832,-18.7827,0.0199,-0.0384,0.0206,93,8.177,157,8.8776,1.4007,-9.9007,0.039,0.0921,-0.0315,63
7.798,150,3.8654,-1.4193,-18.831,0.0152,-0.0518,0.0481,93,8.229,158,8.8807,1.3858,-9.9098,0.0324,0.0847,-0.0257,63
7.85,151,3.8542,-1.3967,-18.7732,0.0229,-0.0652,0.0637,93,8.281,159,8.9076,1.3915,-9.8972,0.0774,0.0704,-0.0167,63
7.902,152,3.8152,-1.3163,-18.6672,0.0174,-0.0596,0.0769,93,8.332,160,8.8733,1.4548,-9.8317,0.111,0.0679,-0.0046,63
7.954,153,3.8182,-1.2731,-18.6452,0.0084,-0.0413,0.0845,93,8.384,161,8.7766,1.5365,-9.7628,0.099,0.0617,-0.0009,63
8.005,154,3.8599,-1.2478,-18.7181,0.0032,-0.0222,0.0825,93,8.436,162,8.744,1.6246,-9.6682,0.063,0.0351,-0.002,63
8.057,155,3.8688,-1.2563,-18.7945,-0.0122,-0.0108,0.0815,93,8.488,163,8.8094,1.446,-9.7521,0.0115,0.0022,0.001,63
8.109,156,3.8413,-1.2535,-18.8145,-0.0217,-0.0095,0.0762,93,8.539,164,8.8324,1.4766,-9.8086,0.0047,-0.006,0.0037,63
8.161,157,3.8248,-1.249,-18.8036,-0.0216,-0.012,0.0673,93,8.591,165,8.5557,1.9972,-9.6716,-0.0424,-0.0095,0.0042,63
8.212,158,3.7876,-1.2544,-18.7472,-0.0109,-0.0154,0.0521,93,8.643,166,9.0092,1.1471,-9.7068,-0.0937,-0.0395,0.0215,63
8.264,159,3.7255,-1.2607,-18.6809,0.0066,-0.0179,0.0288,93,8.695,167,8.9138,1.2756,-9.7221,-0.0982,-0.0321,0.0076,63
8.316,160,3.6947,-1.2959,-18.6386,0.0304,-0.0082,0.0022,93,8.747,168,9.0442,1.354,-9.6039,-0.0635,0.0001,0.0057,63
8.368,161,3.7031,-1.366,-18.7105,0.0517,0.012,-0.0171,93,8.798,169,9.0197,1.3725,-9.7083,-0.0404,0.007,0.0068,63
8.42,162,3.6892,-1.3555,-18.7791,0.0674,0.0186,-0.0308,93,8.85,170,8.9397,1.4482,-9.7408,0.0057,0.0155,0.0121,63
8.471,163,3.7092,-1.3057,-18.8317,0.0686,0.0072,-0.0252,93,8.902,171,8.8019,1.5365,-9.7161,0.013,0.0106,0.0125,63
8.523,164,3.762,-1.4136,-18.8921,0.0126,0.0009,-0.0149,93,8.954,172,8.8499,1.3651,-9.7896,0.0466,-0.048,0.0194,63
8.575,165,3.812,-1.4523,-18.9356,-0.0266,-0.0083,-0.0121,93,9.006,173,8.8647,1.4014,-9.8357,0.052,-0.0629,0.0205,63
8.627,166,3.774,-1.488,-18.8838,-0.019,-0.023,-0.0061,93,9.057,174,8.9812,1.3606,-9.809,0.0416,-0.0409,0.0191,63
8.679,167,3.6905,-1.4557,-18.7464,-0.0209,-0.0259,0.0056,93,9.109,175,8.9413,1.3655,-9.9526,0.0453,-0.0112,0.0176,63
8.731,168,3.6622,-1.3719,-18.6396,-0.0004,-0.0092,0.0111,93,9.161,176,8.9503,1.351,-9.9808,0.0753,0.0289,0.0243,63
