right_leg_timestamp,right_leg_index,right_leg_accel_x,right_leg_accel_y,right_leg_accel_z,right_leg_gyro_x,right_leg_gyro_y,right_leg_gyro_z,right_leg_battery_percentage
0.066,1,9.741,0.2091,-11.374,-0.0504,-0.1373,0.1215,75
0.118,2,9.829,0.4277,-11.2541,-0.1345,-0.0981,0.1603,75
0.17,3,9.7715,0.5781,-11.045,-0.2346,0.0328,0.1369,75
0.221,4,9.8834,0.5244,-11.0485,-0.2855,0.2204,0.0948,75
0.273,5,9.8447,0.6163,-11.0422,-0.204,0.4041,0.0772,75
0.325,6,9.7788,0.7723,-11.0436,-0.0856,0.5321,0.0328,75
0.377,7,9.7603,0.7989,-10.9805,-0.0334,0.6178,-0.0287,75
0.428,8,9.8138,0.6406,-10.9239,-0.0394,0.5752,-0.0592,75
0.48,9,9.6732,0.6094,-10.858,0.0047,0.4423,-0.0422,75
0.532,10,9.4954,0.6872,-10.6908,-0.0397,0.3039,-0.0211,75
0.584,11,9.4392,0.5958,-10.5413,-0.2182,0.2285,-0.0297,75
0.636,12,9.3626,0.3716,-10.5248,-0.3018,0.1303,-0.0336,75
0.687,13,9.3717,0.2601,-10.4811,-0.2202,0.028,-0.0262,75
0.739,14,9.4295,0.2807,-10.2638,-0.1312,-0.0589,-0.042,75
0.791,15,9.5175,0.212,-10.1817,-0.0216,-0.0892,-0.0551,75
0.843,16,9.4317,0.4061,-10.1675,0.1392,-0.1315,-0.0429,75
0.895,17,9.4194,0.3897,-10.1209,0.1451,-0.2166,-0.017,75
0.946,18,9.5999,0.0771,-10.3133,-0.0231,-0.3113,0.0318,75
0.998,19,9.6003,-0.1911,-10.5821,-0.0752,-0.3846,0.1033,75
1.05,20,9.5153,-0.1869,-10.7917,-0.0238,-0.4647,0.1467,75
1.102,21,9.4616,-0.1254,-10.8667,-0.0514,-0.5147,0.1733,75
1.154,22,9.5582,-0.2083,-11.0986,-0.1074,-0.571,0.1848,75
1.206,23,9.5556,-0.1406,-11.2533,-0.0747,-0.5712,0.2042,75
1.257,24,9.5457,-0.1018,-11.449,-0.1031,-0.5461,0.2084,75
1.309,25,9.3353,-0.1007,-11.7731,-0.0803,-0.4806,0.2075,75
1.361,26,9.2161,-0.0615,-12.0216,-0.0252,-0.3949,0.1811,75
1.413,27,9.2263,-0.1394,-12.2335,0.0378,-0.2953,0.1394,75
1.464,28,9.2396,-0.1836,-12.4082,0.0779,-0.2077,0.1162,75
1.516,29,9.2119,-0.2367,-12.5817,0.079,-0.1317,0.1007,75
1.568,30,9.1982,-0.2858,-12.7961,0.0791,-0.0814,0.086,75
1.62,31,9.1767,-0.3325,-12.9738,0.0801,-0.057,0.0667,75
1.672,32,9.0993,-0.3997,-13.1968,0.0882,-0.0529,0.0425,75
1.723,33,8.9059,-0.5257,-13.4632,0.09,-0.0512,0.015,75
1.775,34,8.7663,-0.7034,-13.6897,0.0636,-0.052,-0.0024,75
1.827,35,8.8429,-0.8577,-13.8103,0.0287,-0.1047,0.0174,75
1.879,36,8.9728,-0.8881,-13.8158,-0.0549,-0.1595,0.0712,75
1.931,37,9.1179,-0.8642,-13.7891,-0.2137,-0.2192,0.1627,75
1.982,38,9.0761,-0.7422,-13.7451,-0.3813,-0.272,0.251,75
2.034,39,9.0839,-0.8291,-13.9709,-0.5609,-0.3817,0.3285,75
2.086,40,9.0333,-0.9966,-14.4172,-0.6968,-0.5318,0.393,75
2.138,41,9.2697,-1.5544,-15.9649,-0.5471,-0.8365,0.4641,75
2.189,42,9.4338,-1.9546,-16.8609,-0.4129,-1.2839,0.5966,75
2.241,43,9.2155,-2.235,-17.5535,-0.5109,-1.6104,0.7701,75
2.293,44,8.3228,-2.595,-17.9473,-0.5444,-1.8488,1.0305,75
2.345,45,6.7914,-2.3815,-17.8896,-0.7612,-2.0227,1.2895,75
2.397,46,4.9958,-2.0372,-17.9799,-1.0455,-2.1497,1.5055,75
2.449,47,3.7858,-1.6781,-17.9678,-1.2182,-2.1362,1.5838,75
2.5,48,3.2979,-1.3567,-18.0554,-1.1544,-2.0094,1.5283,75
2.552,49,3.0709,-1.0438,-17.8536,-0.9057,-1.8947,1.221,75
2.604,50,3.0194,-0.6095,-17.443,-0.5466,-1.7898,0.6422,75
2.656,51,3.219,-0.3131,-17.3185,-0.2065,-1.5664,0.0504,75
2.708,52,2.2867,-0.056,-17.5794,0.089,-1.1249,-0.3728,75
2.759,53,0.108,-0.0988,-18.2859,0.1391,-0.5958,-0.4774,75
2.811,54,-2.3907,-0.2789,-18.7868,0.0788,-0.2651,-0.4066,75
2.863,55,-3.3012,-0.6163,-18.9905,0.0451,-0.1929,-0.2829,75
2.915,56,-3.3329,-1.2563,-18.8424,-0.0322,-0.325,-0.0749,75
2.967,57,-3.8117,-1.8188,-19.1613,0.038,-0.3558,0.1134,75
3.018,58,-3.2416,-1.9651,-19.3932,0.3918,-0.2345,0.2309,75
3.07,59,-2.3839,-1.741,-19.1171,0.6424,-0.0967,0.25,75
3.122,60,-2.3163,-1.2183,-18.6358,0.7029,-0.0703,0.1096,75
3.174,61,-2.3641,-0.5974,-18.2558,0.6035,-0.0401,-0.1205,75
3.225,62,-2.0848,-0.5565,-18.5391,0.3663,0.1113,-0.3974,75
3.277,63,-2.0752,-0.8182,-19.6963,0.1404,0.3801,-0.8003,75
3.329,64,-2.1479,-1.5178,-20.19,-0.0433,0.4733,-1.1033,75
3.381,65,-2.1739,-2.3955,-20.1453,-0.32,0.3997,-1.2195,75
3.433,66,-2.1648,-2.8269,-19.5905,-0.3951,0.2486,-1.2228,75
3.484,67,-1.9641,-3.0502,-18.9272,-0.3844,0.2141,-1.0634,75
3.536,68,-1.8368,-3.1323,-18.7416,-0.3552,0.2678,-0.8174,75
3.588,69,-1.5569,-3.2015,-18.9321,-0.2797,0.3066,-0.5408,75
3.64,70,-1.3616,-2.9878,-19.0388,-0.2169,0.3237,-0.2787,75
3.692,71,-1.4116,-2.722,-19.1476,-0.1735,0.284,-0.0461,75
3.743,72,-1.6207,-2.4318,-19.3228,-0.1033,0.205,0.1163,75
3.795,73,-1.6365,-2.1077,-19.8122,-0.0139,0.0197,0.2344,75
3.847,74,-1.3629,-2.2268,-20.4559,0.1376,-0.0969,0.4666,75
3.899,75,-1.6831,-1.7068,-20.0751,0.0117,-0.1869,0.5372,75
3.951,76,-2.0267,-1.5881,-19.7686,-0.0694,-0.2122,0.563,75
4.002,77,-1.8578,-1.5481,-19.7098,-0.0563,-0.1829,0.4527,75
4.054,78,-1.4803,-1.5054,-19.8129,-0.0471,-0.1936,0.3715,75
4.106,79,-1.3231,-1.3739,-19.5737,-0.0646,-0.2196,0.3254,75
4.158,80,-1.2854,-1.3668,-19.3617,-0.073,-0.2093,0.2938,75
4.21,81,-1.3087,-1.3554,-19.2534,-0.03,-0.1349,0.2459,75
4.261,82,-1.1946,-1.4734,-19.2808,0.0421,-0.0117,0.2342,75
4.313,83,-1.4764,-1.5289,-19.4951,0.1023,0.1136,0.1783,75
4.365,84,-1.4646,-1.6115,-19.5027,0.1293,0.138,0.1405,75
4.416,85,-1.475,-1.5363,-19.4399,0.127,0.1327,0.1055,75
4.468,86,-1.549,-1.6639,-19.3775,0.1243,0.1473,0.0684,75
4.52,87,-1.524,-1.757,-19.4644,0.1146,0.1791,0.0177,75
4.572,88,-1.3054,-1.7236,-19.6479,0.1249,0.17,-0.0216,75
4.624,89,-1.1458,-1.7146,-19.7026,0.1273,0.1533,-0.0152,75
4.675,90,-1.1048,-1.688,-19.7025,0.0708,0.1336,-0.0007,75
4.727,91,-1.06,-1.6954,-19.6793,0.0573,0.1072,-0.0094,75
4.779,92,-0.9881,-1.7252,-19.6029,0.044,0.0836,-0.0344,75
4.831,93,-0.9564,-1.7964,-19.4621,0.0342,0.0659,-0.0571,75
4.882,94,-1.0432,-1.9315,-19.2876,0.0171,0.0723,-0.0567,75
4.934,95,-1.0399,-2.0481,-19.3258,0.0119,0.1062,-0.0539,75
4.986,96,-0.8393,-2.0715,-19.5414,0.0304,0.1192,-0.0453,75
5.038,97,-0.5764,-1.9624,-19.6879,0.0413,0.1073,-0.0265,75
5.09,98,-0.4462,-1.8276,-19.6793,0.0259,0.0865,-0.0089,75
5.141,99,-0.4686,-1.7773,-19.4971,-0.011,0.0816,-0.0125,75
5.193,100,-0.6882,-1.8401,-19.3652,-0.0183,0.1098,-0.0566,75
5.245,101,-0.7671,-1.906,-19.4027,0.0327,0.1278,-0.1148,75
5.297,102,-0.6834,-2.0323,-19.4744,0.0487,0.1084,-0.15,75
5.349,103,-0.6243,-2.1744,-19.5473,0.0271,0.0774,-0.1468,75
5.401,104,-0.5681,-2.2425,-19.5545,0.0563,0.0438,-0.1277,75
5.452,105,-0.4889,-2.2527,-19.5039,0.0593,0.0328,-0.085,75
5.504,106,-0.4772,-2.2247,-19.4065,0.0689,0.0247,-0.0287,75
5.556,107,-0.5936,-2.3666,-19.2976,0.0473,0.0432,0.0526,75
5.608,108,-0.6166,-2.4929,-19.3195,0.0376,0.0651,0.1073,75
5.659,109,-0.5062,-2.5343,-19.4259,0.063,0.0675,0.1451,75
5.711,110,-0.3214,-2.4521,-19.4996,0.0693,0.055,0.191,75
5.763,111,-0.2079,-2.303,-19.5222,0.0644,0.0568,0.2295,75
5.815,112,-0.1447,-2.1616,-19.5205,0.0522,0.0679,0.24,75
5.867,113,-0.1272,-2.0255,-19.5111,0.0307,0.0763,0.2173,75
5.918,114,-0.1604,-1.9841,-19.4934,0.0166,0.0773,0.1638,75
5.97,115,-0.2159,-1.9876,-19.4767,-0.0,0.0652,0.0834,75
6.022,116,-0.1697,-2.023,-19.4934,-0.0083,0.0539,0.005,75
6.074,117,-0.0779,-2.0574,-19.5242,-0.0079,0.0461,-0.0581,75
6.126,118,-0.0691,-2.084,-19.528,-0.01,0.0294,-0.102,75
6.177,119,-0.1052,-2.1008,-19.3915,-0.0166,0.0039,-0.1334,75
6.229,120,-0.1805,-2.1809,-19.2616,-0.0252,0.0062,-0.1536,75
6.281,121,-0.1412,-2.3533,-19.3168,-0.0062,0.0174,-0.1692,75
6.333,122,-0.1017,-2.4268,-19.3718,0.0258,0.0179,-0.1719,75
6.384,123,-0.0428,-2.4578,-19.394,0.0228,0.0162,-0.1281,75
6.436,124,-0.0484,-2.4465,-19.3829,0.0276,0.0084,-0.067,75
6.488,125,-0.1025,-2.4979,-19.3397,0.014,0.02,-0.0013,75
6.54,126,-0.0665,-2.5333,-19.3725,0.0259,0.0358,0.0411,75
6.592,127,0.042,-2.461,-19.4614,0.0427,0.0427,0.0667,75
6.643,128,0.0839,-2.4128,-19.5038,0.0385,0.0349,0.1,75
6.695,129,0.0115,-2.3731,-19.4601,0.0192,0.0188,0.1271,75
6.747,130,-0.0405,-2.3539,-19.3956,0.0091,0.0205,0.1315,75
6.799,131,-0.0071,-2.3235,-19.3818,0.0173,0.0285,0.1165,75
6.851,132,0.0598,-2.3042,-19.4126,0.0142,0.0304,0.0968,75
6.903,133,0.1051,-2.3121,-19.4493,0.0075,0.0264,0.0775,75
6.954,134,0.0816,-2.3403,-19.4358,-0.0009,0.02,0.0641,75
7.006,135,0.0422,-2.3467,-19.3817,-0.0047,0.0165,0.0516,75
7.058,136,0.0093,-2.362,-19.3615,-0.0058,0.0202,0.0439,75
7.11,137,-0.0245,-2.3977,-19.3609,-0.0036,0.0224,0.0423,75
7.162,138,-0.0214,-2.4151,-19.3738,-0.0043,0.022,0.0463,75
7.213,139,-0.0248,-2.4415,-19.3791,-0.0045,0.0226,0.0517,75
7.265,140,-0.0258,-2.4553,-19.3933,0.0023,0.0169,0.0598,75
7.317,141,-0.0099,-2.4506,-19.3867,0.0109,0.0167,0.0701,75
7.369,142,-0.0062,-2.4262,-19.3504,0.0061,0.0228,0.0827,75
7.42,143,-0.009,-2.4301,-19.3551,0.0065,0.0323,0.0908,75
7.472,144,0.0365,-2.429,-19.4014,0.0038,0.0365,0.0952,75
7.524,145,0.0787,-2.4093,-19.4401,0.0021,0.0359,0.094,75
7.576,146,0.1056,-2.3744,-19.4068,0.0032,0.0322,0.0891,75
7.628,147,0.1192,-2.3178,-19.3635,0.0045,0.0337,0.0736,75
7.679,148,0.1366,-2.3334,-19.3477,0.0113,0.0359,0.0496,75
7.731,149,0.1322,-2.3431,-19.3664,0.0142,0.0313,0.0201,75
7.783,150,0.1098,-2.3586,-19.3659,0.015,0.0293,-0.0023,75
7.835,151,0.0973,-2.4197,-19.3928,0.0132,0.0305,-0.0124,75
7.887,152,0.1084,-2.4505,-19.4185,0.0153,0.0238,-0.0188,75
7.938,153,0.1244,-2.4462,-19.4155,0.0133,0.0102,-0.0181,75
7.99,154,0.1346,-2.4199,-19.3683,0.0124,0.0015,-0.0171,75
8.042,155,0.1352,-2.4368,-19.3678,0.0128,0.0019,-0.0201,75
8.094,156,0.1218,-2.4871,-19.3727,0.0035,0.0048,-0.0213,75
8.145,157,0.114,-2.5297,-19.3783,0.0048,0.0022,-0.0126,75
8.197,158,0.1076,-2.5404,-19.3674,-0.0058,0.0046,0.0056,75
8.249,159,0.1324,-2.5397,-19.3833,-0.0045,0.0054,0.0222,75
8.301,160,0.1545,-2.4893,-19.3673,-0.0093,0.0027,0.0338,75
8.353,161,0.2046,-2.4187,-19.3792,-0.0043,0.0048,0.0284,75
8.405,162,0.2381,-2.375,-19.3997,-0.002,0.0111,0.011,75
8.456,163,0.2566,-2.3266,-19.406,-0.0026,0.0139,-0.017,75
8.508,164,0.2518,-2.2764,-19.3979,-0.003,0.0151,-0.0518,75
8.56,165,0.2535,-2.2693,-19.3982,-0.0064,0.0143,-0.0842,75
8.612,166,0.2544,-2.2797,-19.4134,-0.008,0.0088,-0.1095,75
8.664,167,0.2679,-2.299,-19.4035,-0.0155,0.003,-0.1317,75
8.715,168,0.2924,-2.3338,-19.3793,-0.0162,0.0064,-0.1474,75
8.767,169,0.3208,-2.3329,-19.3553,-0.0105,0.0114,-0.1556,75
8.819,170,0.3326,-2.3214,-19.3372,-0.0041,0.0184,-0.1617,75
8.871,171,0.3352,-2.3351,-19.3177,0.0037,0.0148,-0.1677,75
8.923,172,0.3623,-2.3641,-19.2847,0.007,0.0184,-0.1707,75
8.974,173,0.3928,-2.4091,-19.2632,0.0187,0.0271,-0.1662,75
9.026,174,0.3936,-2.5188,-19.3045,0.0218,0.0426,-0.1425,75
9.078,175,0.4213,-2.6039,-19.4006,0.0371,0.0476,-0.1122,75
9.13,176,0.4791,-2.5863,-19.438,0.0365,0.0408,-0.0573,75
9.181,177,0.5107,-2.5052,-19.3932,0.034,0.0344,0.0036,75
9.233,178,0.4993,-2.4517,-19.3464,0.0274,0.0378,0.042,75
9.285,179,0.5002,-2.4061,-19.3526,0.0359,0.0396,0.0443,75
9.337,180,0.5523,-2.4114,-19.3891,0.0321,0.0331,0.0344,75
9.389,181,0.5712,-2.4179,-19.4235,0.028,0.0231,0.0312,75
9.44,182,0.5599,-2.4358,-19.4101,0.0149,0.0104,0.0372,75
9.492,183,0.5335,-2.4523,-19.3476,0.0103,-0.0005,0.0472,75
9.544,184,0.4439,-2.4974,-19.2435,-0.0125,0.0045,0.075,75
9.596,185,0.4006,-2.6019,-19.2585,-0.0138,0.0237,0.095,75
9.648,186,0.4584,-2.6897,-19.3572,-0.0012,0.0307,0.1033,75
9.699,187,0.5494,-2.6734,-19.3928,0.0126,0.019,0.1224,75
9.751,188,0.594,-2.5654,-19.3604,0.0103,0.0157,0.1399,75
9.803,189,0.616,-2.4513,-19.3271,0.0094,0.0238,0.1363,75
9.855,190,0.5994,-2.3892,-19.3018,0.0025,0.0356,0.1123,75
9.907,191,0.5843,-2.3977,-19.3269,0.0074,0.0456,0.0713,75
9.958,192,0.5805,-2.4646,-19.3688,0.0032,0.0439,0.037,75
10.01,193,0.5755,-2.5645,-19.4042,-0.0002,0.0303,0.0245,75
10.062,194,0.5731,-2.5995,-19.3999,-0.0016,0.0103,0.0249,75
10.114,195,0.5836,-2.5514,-19.3577,0.0071,-0.0021,0.0241,75
10.166,196,0.613,-2.4725,-19.299,0.0112,-0.0055,0.0158,75
10.217,197,0.6247,-2.4287,-19.3027,0.012,0.0004,-0.0089,75
10.269,198,0.6271,-2.4392,-19.3277,0.0086,0.0086,-0.0375,75
10.321,199,0.6218,-2.4575,-19.356,0.0086,0.0064,-0.0588,75
10.373,200,0.6116,-2.4711,-19.3295,0.0014,0.0002,-0.0726,75
10.424,201,0.5918,-2.4934,-19.3068,0.001,-0.0023,-0.0793,75
10.476,202,0.5944,-2.5361,-19.2952,-0.0022,0.0032,-0.0871,75
10.528,203,0.6196,-2.5825,-19.3169,0.0022,0.0076,-0.0906,75
10.58,204,0.6426,-2.608,-19.3752,0.0048,0.001,-0.0839,75
10.631,205,0.6565,-2.5866,-19.369,0.006,-0.0127,-0.0682,75
10.683,206,0.6414,-2.5315,-19.3385,-0.0015,-0.0234,-0.0471,75
10.735,207,0.6266,-2.5096,-19.3139,-0.0043,-0.0234,-0.0356,75
10.787,208,0.6275,-2.5116,-19.2992,-0.0027,-0.0206,-0.0338,75
10.839,209,0.6516,-2.5469,-19.347,-0.0006,-0.0215,-0.0245,75
10.89,210,0.6638,-2.5351,-19.3444,-0.0068,-0.0208,-0.0083,75
10.942,211,0.6854,-2.504,-19.2909,-0.0024,-0.0143,0.0052,75
10.994,212,0.7065,-2.4649,-19.2677,-0.0039,0.0018,0.0187,75
11.046,213,0.6944,-2.4429,-19.2653,-0.006,0.0166,0.0218,75
11.098,214,0.7011,-2.4668,-19.297,0.0025,0.0263,0.0192,75
11.149,215,0.6965,-2.5104,-19.3511,0.0037,0.0222,0.0234,75
11.201,216,0.662,-2.537,-19.3147,-0.0018,0.0165,0.0378,75
11.253,217,0.6253,-2.5521,-19.2877,0.0063,0.0182,0.0496,75
11.305,218,0.6212,-2.5698,-19.3334,0.0092,0.022,0.0594,75
11.357,219,0.6705,-2.5397,-19.3779,0.0143,0.0171,0.0638,75
11.408,220,0.6933,-2.5103,-19.4154,0.0057,0.0103,0.0623,75
11.46,221,0.6914,-2.4738,-19.3827,0.0045,-0.0027,0.0546,75
11.512,222,0.681,-2.4325,-19.3271,0.0027,0.0008,0.0399,75
11.564,223,0.6921,-2.4639,-19.3499,-0.0006,0.0044,0.0208,75
11.616,224,0.6818,-2.5125,-19.3688,0.001,-0.0001,0.0096,75
11.667,225,0.6518,-2.5449,-19.346,-0.0007,-0.0027,0.0074,75
11.719,226,0.6348,-2.5775,-19.3324,0.0044,-0.0005,0.0106,75
11.771,227,0.6151,-2.567,-19.3316,0.0109,-0.0026,0.0081,75
11.823,228,0.6274,-2.5527,-19.3307,0.0119,-0.0048,0.0095,75
11.874,229,0.6467,-2.5382,-19.3203,0.0096,-0.0056,0.0084,75
11.926,230,0.648,-2.5278,-19.2979,0.0078,-0.0101,0.0026,75
11.978,231,0.6482,-2.5501,-19.2651,0.0011,-0.0062,-0.0004,75
12.03,232,0.6412,-2.5964,-19.2519,0.0114,0.0053,-0.0058,75
12.082,233,0.6426,-2.6175,-19.2634,0.0055,0.0197,-0.0047,75
12.133,234,0.6896,-2.6235,-19.3087,0.0145,0.021,0.0024,75
12.185,235,0.7041,-2.5745,-19.3335,0.0126,0.0159,0.0054,75
12.237,236,0.7406,-2.5123,-19.3048,0.0208,0.0127,-0.0109,75
12.289,237,0.7837,-2.4727,-19.3045,0.017,0.0181,-0.0349,75
12.341,238,0.8168,-2.4606,-19.3433,0.0116,0.0178,-0.0556,75
12.392,239,0.8178,-2.4603,-19.3593,0.0028,0.0119,-0.0774,75
12.444,240,0.8058,-2.4777,-19.3334,0.0028,0.0071,-0.0957,75
12.496,241,0.7883,-2.4914,-19.3115,-0.0029,-0.0024,-0.1036,75
12.548,242,0.7269,-2.536,-19.2677,-0.0014,-0.0068,-0.1064,75
12.599,243,0.6943,-2.6422,-19.2704,-0.0035,-0.0052,-0.0997,75
12.651,244,0.6673,-2.7223,-19.2648,0.0067,-0.0091,-0.0829,75
12.703,245,0.6577,-2.7588,-19.2889,0.0093,-0.0089,-0.0449,75
12.755,246,0.6315,-2.7368,-19.3043,0.0208,-0.0158,-0.0092,75
12.807,247,0.6306,-2.6597,-19.2506,0.0173,-0.018,0.0248,75
12.858,248,0.6421,-2.614,-19.2328,0.0189,-0.007,0.0498,75
12.91,249,0.6534,-2.5994,-19.272,0.0166,-0.0033,0.0621,75
12.962,250,0.6862,-2.5946,-19.2926,0.0159,-0.0063,0.0619,75
13.014,251,0.7483,-2.5871,-19.3116,0.0137,-0.0066,0.0601,75
13.066,252,0.777,-2.5675,-19.3321,0.0118,-0.0074,0.0518,75
13.117,253,0.8148,-2.5422,-19.3382,0.0119,-0.0143,0.0393,75
13.169,254,0.9275,-2.5406,-19.3151,0.0104,0.0041,-0.007,75
13.221,255,0.9714,-2.4654,-19.324,0.0119,0.0223,-0.045,75
13.273,256,0.9691,-2.4163,-19.2331,0.0227,0.012,-0.069,75
13.325,257,0.9898,-2.4962,-19.2181,0.0274,0.0282,-0.0928,75
13.376,258,1.0082,-2.5497,-19.1179,0.0405,0.0721,-0.1352,75
13.428,259,1.3972,-2.6116,-18.6623,0.0831,0.2171,-0.2184,75
13.48,260,1.6828,-2.0481,-17.1319,0.2792,0.6463,-0.4658,75
13.532,261,2.2545,-1.0403,-15.6501,0.2693,1.15,-0.7397,75
13.583,262,3.8778,-1.0061,-15.0734,0.0395,1.5177,-1.0633,75
13.635,263,5.2459,-1.1174,-14.8376,0.3405,1.786,-1.2547,75
13.687,264,7.5159,-1.1064,-13.7777,0.8264,1.9819,-1.4691,75
13.739,265,10.7512,-2.6341,-10.3761,1.2797,2.1248,-1.7451,75
