right_leg_timestamp,right_leg_index,right_leg_accel_x,right_leg_accel_y,right_leg_accel_z,right_leg_gyro_x,right_leg_gyro_y,right_leg_gyro_z,right_leg_battery_percentage,left_leg_timestamp,left_leg_index,left_leg_accel_x,left_leg_accel_y,left_leg_accel_z,left_leg_gyro_x,left_leg_gyro_y,left_leg_gyro_z,left_leg_battery_percentage
0.037,0,7.0611,1.4653,-15.6124,-0.0845,0.4067,-0.0477,71,0.214,4,8.5494,2.7429,-9.4377,0.039,0.0062,0.0475,40
0.089,1,7.4182,1.4336,-14.9459,-0.1665,0.6427,-0.0659,71,0.266,5,8.5675,2.7181,-9.4814,0.0421,0.0179,0.0273,40
0.141,2,8.1536,1.4043,-14.8638,-0.1573,0.9284,-0.1187,71,0.317,6,8.5715,2.7237,-9.4803,0.018,0.0218,0.0156,40
0.193,3,8.6774,1.5783,-14.8413,-0.041,1.0457,-0.1034,71,0.369,7,8.5607,2.7307,-9.4639,-0.0152,0.0043,0.0168,40
0.244,4,9.2588,1.324,-15.4006,0.0177,0.8465,-0.0385,71,0.421,8,8.5639,2.7029,-9.4617,-0.0383,-0.017,0.0216,40
0.296,5,9.3505,1.3754,-15.413,0.1088,0.4438,0.0228,71,0.473,9,8.5747,2.6963,-9.4814,-0.0546,-0.0245,0.0256,40
0.348,6,8.9731,1.5829,-14.9319,0.1935,0.0794,0.0517,71,0.525,10,8.5845,2.6724,-9.4582,-0.0585,-0.0272,0.0326,40
0.4,7,8.7415,1.6025,-14.4408,0.1852,-0.0592,0.0538,71,0.576,11,8.5976,2.6114,-9.4871,-0.0529,-0.0398,0.0461,40
0.452,8,8.4067,1.6834,-14.2432,0.0808,-0.0685,-0.0139,71,0.628,12,8.6192,2.5964,-9.5066,-0.0449,-0.0414,0.0443,40
0.503,9,8.4001,1.5495,-14.0364,0.0127,-0.0831,-0.0067,71,0.68,13,8.6326,2.601,-9.5152,-0.0419,-0.0337,0.0422,40
0.555,10,8.483,1.6508,-13.5613,0.0324,0.053,-0.0314,71,0.732,14,8.6442,2.6037,-9.5279,-0.0228,-0.0286,0.0446,40
0.607,11,8.4569,1.654,-13.3555,-0.0545,0.1793,-0.0444,71,0.784,15,8.6542,2.5714,-9.5488,-0.0159,-0.0186,0.0487,40
0.659,12,8.6383,1.4442,-13.3659,-0.0583,0.2459,0.0063,71,0.835,16,8.648,2.5305,-9.5366,-0.0207,0.0036,0.0321,40
0.711,13,8.763,1.3697,-13.2599,-0.0667,0.2988,0.0302,71,0.887,17,8.632,2.577,-9.5123,-0.0256,0.0096,0.0236,40
0.762,14,8.6115,1.5159,-13.0814,-0.1493,0.3132,0.0563,71,0.939,18,8.6667,2.4809,-9.5331,-0.0217,0.0039,0.0349,40
0.814,15,8.931,0.6016,-13.9818,-0.2327,0.1182,0.0575,71,0.991,19,8.6688,2.4611,-9.5283,-0.022,0.0245,0.0127,40
0.866,16,8.7239,0.8292,-13.2282,-0.2909,0.0518,0.0587,71,1.043,20,8.6323,2.4832,-9.4796,-0.0237,0.038,-0.0143,40
0.918,17,8.6521,1.1061,-13.298,-0.2266,0.0148,0.0632,71,1.094,21,8.619,2.4997,-9.4507,-0.0179,0.0325,-0.0206,40
0.97,18,8.6657,1.2151,-13.4058,-0.1601,0.0455,0.0485,71,1.146,22,8.637,2.4933,-9.4408,-0.0117,0.0363,-0.0406,40
1.021,19,8.7297,1.4258,-13.3735,-0.1109,0.0627,0.0531,71,1.198,23,8.6174,2.548,-9.4236,-0.0088,0.0337,-0.0583,40
1.073,20,8.8464,1.409,-13.3033,-0.0691,0.0781,0.0481,71,1.25,24,8.6058,2.5818,-9.4087,-0.0046,0.0203,-0.0445,40
1.125,21,8.9802,1.5845,-13.3075,-0.0076,0.0648,0.0399,71,1.302,25,8.6114,2.5931,-9.4028,-0.0003,0.0046,-0.0305,40
1.177,22,9.0221,1.5856,-13.2737,-0.0008,0.0725,0.0375,71,1.353,26,8.5985,2.6259,-9.4115,0.0015,0.003,-0.0251,40
1.228,23,9.0443,1.5405,-13.1441,0.0019,0.074,0.0362,71,1.405,27,8.5931,2.6499,-9.3906,0.0016,-0.0035,-0.0188,40
1.28,24,9.0948,1.4862,-13.1032,0.0,0.0663,0.0312,71,1.457,28,8.598,2.6355,-9.4108,0.0023,-0.0209,-0.0035,40
1.332,25,9.2294,1.4757,-13.005,-0.0072,0.0573,0.0172,71,1.509,29,8.6165,2.6095,-9.42,0.0025,-0.019,-0.0027,40
1.384,26,9.149,1.4769,-12.9894,-0.0368,0.0673,0.0266,71,1.56,30,8.604,2.6173,-9.415,0.0015,-0.014,-0.0086,40
1.435,27,9.114,1.5675,-12.9368,-0.0329,0.0513,0.0265,71,1.612,31,8.5941,2.623,-9.4321,0.0034,-0.0196,-0.0093,40
1.487,28,9.1198,1.4249,-12.9361,-0.0074,0.032,0.0188,71,1.664,32,8.6029,2.6316,-9.4529,0.002,-0.0212,-0.0101,40
1.539,29,9.0874,1.4652,-12.985,0.0238,0.0267,0.0152,71,1.716,33,8.5963,2.648,-9.4603,-0.0022,-0.0089,-0.0215,40
1.591,30,9.0501,1.4143,-12.9693,0.0007,0.0102,0.0156,71,1.768,34,8.5922,2.6635,-9.4591,-0.0057,0.0031,-0.034,40
1.643,31,9.0489,1.553,-12.9055,-0.0463,-0.0319,-0.0031,71,1.819,35,8.5769,2.675,-9.4569,-0.0052,-0.0026,-0.0266,40
1.694,32,9.0899,1.501,-12.9862,-0.0622,-0.0428,0.0013,71,1.871,36,8.5712,2.6923,-9.448,-0.006,-0.0015,-0.0222,40
1.746,33,9.0576,1.5587,-13.0358,-0.0464,-0.0349,-0.0011,71,1.923,37,8.5757,2.6908,-9.4553,-0.0104,0.0153,-0.0275,40
1.798,34,9.0443,1.5391,-13.0156,-0.0279,-0.0324,-0.0077,71,1.975,38,8.5652,2.7046,-9.4388,-0.0109,0.0191,-0.0259,40
1.85,35,9.0639,1.4742,-13.0128,-0.027,-0.0256,-0.0102,71,2.026,39,8.5677,2.7099,-9.4217,-0.0109,0.018,-0.0171,40
1.902,36,9.0742,1.4417,-13.0413,-0.0449,-0.0072,-0.0029,71,2.078,40,8.58,2.7045,-9.4113,-0.0135,0.0274,-0.0191,40
1.953,37,9.0537,1.4762,-13.0729,-0.0556,0.0111,0.0028,71,2.13,41,8.5732,2.7183,-9.3862,-0.0138,0.0295,-0.021,40
2.005,38,9.1,1.4842,-13.0595,-0.0713,0.0182,0.0026,71,2.182,42,8.5808,2.7352,-9.3704,-0.0117,0.0202,-0.0121,40
2.057,39,9.1301,1.5122,-13.0227,-0.0679,0.0244,0.0058,71,2.234,43,8.5754,2.7328,-9.3548,-0.0117,0.0225,-0.0137,40
2.109,40,9.1247,1.571,-12.995,-0.0599,0.0254,0.0078,71,2.285,44,8.5661,2.7426,-9.3402,-0.0125,0.0285,-0.0187,40
2.161,41,9.1155,1.592,-12.9808,-0.0525,0.0218,0.0103,71,2.337,45,8.5638,2.7518,-9.3314,-0.0112,0.0281,-0.02,40
2.212,42,9.1052,1.5812,-12.9781,-0.0491,0.0191,0.0114,71,2.389,46,8.5591,2.7586,-9.325,-0.0114,0.0267,-0.0206,40
2.264,43,9.1048,1.5898,-12.9671,-0.0439,0.0232,0.0111,71,2.441,47,8.5562,2.7742,-9.3028,-0.0124,0.0296,-0.0282,40
2.316,44,9.118,1.6022,-12.9374,-0.0366,0.0255,0.0111,71,2.492,48,8.5448,2.7996,-9.284,-0.0117,0.0313,-0.0361,40
2.368,45,9.1175,1.5938,-12.9134,-0.0265,0.0237,0.0097,71,2.544,49,8.5261,2.8347,-9.2588,-0.0046,0.0403,-0.0424,40
2.419,46,9.1143,1.5945,-12.9009,-0.0255,0.0197,0.0075,71,2.596,50,8.5017,2.8536,-9.237,0.0013,0.0339,-0.0403,40
2.471,47,9.179,1.6174,-12.8767,-0.0168,0.0266,0.011,71,2.648,51,8.5044,2.8626,-9.2227,-0.0033,0.0272,-0.032,40
2.523,48,9.1711,1.5984,-12.8607,-0.0088,0.0274,0.0095,71,2.7,52,8.5249,2.8613,-9.2164,0.0117,0.0354,-0.0379,40
2.575,49,9.1832,1.5689,-12.8267,-0.0074,0.0284,0.0085,71,2.751,53,8.4902,2.8992,-9.1899,0.0161,0.0333,-0.0332,40
2.627,50,9.1821,1.5621,-12.8077,-0.012,0.0279,0.0095,71,2.803,54,8.4777,2.9047,-9.1571,0.014,0.0065,-0.0087,40
2.678,51,9.1937,1.5632,-12.8026,-0.0141,0.0237,0.0106,71,2.855,55,8.4807,2.8929,-9.1793,0.0247,-0.024,0.0173,40
2.73,52,9.1752,1.5594,-12.7922,-0.0083,0.0185,0.0124,71,2.907,56,8.5015,2.8825,-9.2377,0.0193,-0.0369,0.0226,40
2.782,53,9.2074,1.5247,-12.7804,-0.0084,0.0098,0.0126,71,2.959,57,8.5406,2.8499,-9.2426,0.0047,-0.0246,0.0158,40
2.834,54,9.2103,1.5127,-12.7699,-0.0003,0.0017,0.0131,71,3.01,58,8.5385,2.8471,-9.2281,0.0061,0.0046,-0.0025,40
2.885,55,9.2202,1.4942,-12.7441,0.0003,-0.009,0.0108,71,3.062,59,8.5076,2.8497,-9.2295,0.0139,-0.0178,0.0046,40
2.937,56,9.2287,1.626,-12.6673,-0.0195,-0.0367,0.0008,71,3.114,60,8.5307,2.8636,-9.2772,0.0571,-0.0385,0.0109,40
2.989,57,9.3344,1.6464,-12.7101,0.0035,-0.1099,-0.0126,71,3.165,61,8.5298,2.8592,-9.3178,0.0406,-0.021,-0.0086,40
3.041,58,9.3742,1.6004,-12.9044,0.0624,-0.1861,-0.0221,71,3.217,62,8.5071,2.8831,-9.3334,0.0524,0.009,-0.0243,40
3.093,59,9.5656,1.0477,-13.3514,0.2068,0.0102,0.0078,71,3.269,63,8.5053,2.913,-9.297,0.0576,0.0134,-0.0091,40
3.144,60,9.6774,1.3496,-13.876,0.382,-0.2314,0.0682,71,3.321,64,8.5063,2.8998,-9.324,0.0412,0.0184,-0.0014,40
3.196,61,9.3175,1.0836,-14.1044,0.0529,-0.5889,0.1206,71,3.373,65,8.4908,2.9444,-9.3066,0.0202,0.0119,0.0158,40
3.248,62,8.6301,1.3006,-13.9116,0.0527,-0.9049,0.1004,71,3.424,66,8.5063,2.8485,-9.3071,-0.0435,-0.0056,0.0215,40
3.3,63,8.0922,1.5735,-13.5969,0.1345,-0.7691,0.0849,71,3.476,67,8.4892,2.8591,-9.2864,-0.0734,-0.0202,0.0213,40
3.352,64,7.9567,1.657,-13.7013,0.0815,-0.5918,0.0791,71,3.528,68,8.5206,2.8446,-9.2815,-0.1002,-0.0382,0.0213,40
3.403,65,8.147,1.5735,-14.0532,0.0263,-0.4262,0.0729,71,3.58,69,8.5512,2.8117,-9.2779,-0.1029,-0.0232,-0.0018,40
3.455,66,8.1873,1.5069,-14.1187,0.0234,-0.2836,0.0724,71,3.631,70,8.5119,2.8462,-9.2328,-0.0892,-0.0165,-0.0114,40
3.507,67,8.3119,1.3371,-14.3725,-0.0391,-0.1496,0.0799,71,3.683,71,8.5298,2.8405,-9.231,-0.0732,-0.0274,-0.0052,40
3.559,68,8.4257,1.2492,-14.8467,0.0006,-0.13,0.1012,71,3.735,72,8.5166,2.8454,-9.2541,-0.0534,-0.0204,-0.0055,40
3.611,69,8.263,1.1731,-14.798,-0.0099,-0.1627,0.1143,71,3.787,73,8.5074,2.8651,-9.2483,-0.0429,-0.0156,0.0077,40
3.662,70,8.0725,1.1391,-14.7074,-0.0835,-0.1346,0.1116,71,3.839,74,8.5105,2.8532,-9.2597,-0.0326,-0.0249,0.0302,40
3.714,71,8.0731,1.122,-14.7222,-0.1791,-0.0557,0.0844,71,3.89,75,8.5328,2.8351,-9.2836,-0.0241,-0.0222,0.0306,40
3.766,72,8.1135,1.0348,-14.7433,-0.184,-0.0209,0.0594,71,3.942,76,8.5298,2.8317,-9.28,-0.0191,-0.0016,0.0147,40
3.818,73,7.9661,0.8715,-15.0725,-0.0421,-0.0788,0.05,71,3.994,77,8.5159,2.8513,-9.2709,-0.0128,0.0055,0.0126,40
3.869,74,8.084,1.0053,-15.3872,-0.0588,-0.1317,0.0355,71,4.046,78,8.542,2.7392,-9.257,-0.021,0.0049,0.0191,40
3.921,75,7.95,1.0592,-15.1611,-0.0744,-0.2302,0.0381,71,4.097,79,8.5513,2.7852,-9.2465,-0.0201,0.0103,0.0271,40
3.973,76,8.0352,1.2156,-15.3142,0.065,-0.1866,0.0467,71,4.149,80,8.5498,2.7948,-9.2533,-0.0158,0.007,0.0263,40
4.025,77,7.9213,1.3304,-15.3852,0.217,-0.1848,0.0362,71,4.201,81,8.5573,2.7555,-9.2223,-0.0154,0.0119,0.0243,40
4.077,78,7.7426,1.3432,-15.0603,0.0915,-0.1467,0.0041,71,4.253,82,8.5521,2.7531,-9.2136,-0.0125,0.0219,0.0016,40
4.128,79,7.6355,1.2981,-14.6604,-0.103,-0.0293,-0.0178,71,4.305,83,8.5298,2.7385,-9.2304,-0.0088,0.0208,-0.0281,40
4.18,80,7.6999,1.0545,-14.7889,-0.0363,0.1545,-0.0025,71,4.356,84,8.5244,2.78,-9.1984,0.0036,0.0153,-0.0467,40
4.232,81,8.1371,1.0848,-13.3599,0.218,0.2103,0.0565,71,4.408,85,8.5105,2.8285,-9.1826,0.0048,0.0168,-0.0482,40
4.284,82,8.4892,-0.0809,-14.4209,0.3,0.1685,0.0388,71,4.46,86,8.5095,2.8297,-9.1668,0.0025,0.0177,-0.0589,40
4.336,83,8.1709,0.0886,-14.876,0.2433,0.2153,0.0173,71,4.512,87,8.4993,2.8205,-9.1841,0.0054,0.0227,-0.0757,40
4.387,84,8.3464,0.2179,-14.7931,0.2316,0.2671,0.0064,71,4.564,88,8.4183,2.8315,-9.2355,0.0443,0.0213,-0.1061,40
4.439,85,8.5117,0.3036,-14.6163,0.1542,0.2919,0.0115,71,4.615,89,8.4443,3.2585,-9.0623,0.0584,0.0068,-0.1097,40
4.491,86,8.6248,0.4346,-14.53,0.1105,0.2774,0.0055,71,4.667,90,8.4441,3.2103,-8.989,0.0722,-0.0198,-0.0635,40
4.542,87,8.807,0.5691,-14.3246,0.0538,0.2331,-0.0156,71,4.719,91,8.4305,3.2028,-9.1344,0.0873,-0.0636,-0.0505,40
4.594,88,8.7506,0.7213,-14.1351,-0.002,0.1306,-0.0325,71,4.771,92,8.4081,3.2411,-9.2197,0.0799,-0.0651,-0.0613,40
4.646,89,8.7193,0.9536,-14.187,0.0028,0.0298,-0.0454,71,4.822,93,8.4287,3.2653,-9.2862,0.0564,-0.08,-0.0411,40
4.698,90,8.8475,0.8187,-14.3119,0.0593,-0.1287,-0.0857,71,4.874,94,8.4393,3.1822,-9.3589,0.0217,-0.0711,-0.0086,40
4.75,91,8.6573,-0.085,-16.6506,0.2533,-0.3725,-0.1264,71,4.926,95,8.442,3.148,-9.4127,0.0209,-0.041,-0.0236,40
4.801,92,9.0518,-0.7587,-17.1285,0.3151,-0.7053,-0.1147,71,4.978,96,8.4533,3.1286,-9.3879,-0.0123,-0.0021,-0.0357,40
4.853,93,8.229,-0.1763,-17.2045,0.153,-0.9049,-0.0934,71,5.03,97,8.4332,3.1699,-9.3878,-0.0194,0.0035,-0.0431,40
4.905,94,7.1723,0.4078,-17.1396,0.32,-0.9793,-0.0567,71,5.081,98,8.4419,3.1652,-9.4204,-0.0399,0.0287,-0.0584,40
4.957,95,6.4661,0.6563,-16.4398,0.36,-1.0798,-0.0321,71,5.133,99,8.4346,3.2407,-9.3769,-0.0409,0.0385,-0.0919,40
5.009,96,5.9907,0.7035,-16.0074,0.229,-0.9901,-0.0699,71,5.185,100,8.6023,3.2115,-9.3554,0.2275,0.1286,-0.1321,40
5.06,97,5.8284,0.566,-16.3377,0.2383,-0.8386,-0.0853,71,5.237,101,8.3125,3.5032,-9.3647,0.262,0.1363,-0.1137,40
5.112,98,5.7877,0.5895,-16.756,0.2426,-0.7,-0.1139,71,5.288,102,8.3482,3.4464,-9.3806,0.2341,0.1258,-0.022,40
5.164,99,5.6877,0.5997,-16.8516,0.2709,-0.6469,-0.1319,71,5.34,103,8.3862,3.5213,-9.286,0.2941,0.1101,0.005,40
5.216,100,5.4911,0.7149,-16.7783,0.2864,-0.4974,-0.1837,71,5.392,104,8.3094,3.538,-9.2425,0.2723,0.1063,0.0409,40
5.268,101,5.3059,0.5724,-16.7936,0.227,-0.3407,-0.1998,71,5.444,105,8.2988,3.5264,-9.17,0.2555,0.1244,0.0825,40
5.319,102,5.2688,0.4346,-17.0464,0.1443,-0.1698,-0.1763,71,5.495,106,8.265,3.5349,-9.2252,0.2059,0.0935,0.1402,40
5.371,103,5.3599,0.2082,-17.5145,0.1525,-0.0609,-0.1151,71,5.547,107,8.0643,3.7863,-9.2025,-0.0218,0.0372,0.1448,40
5.423,104,5.7072,0.047,-18.0287,0.0828,-0.046,-0.0219,71,5.599,108,8.3148,3.1875,-9.1746,-0.0446,-0.0113,0.1487,40
5.475,105,5.9079,0.2037,-17.8793,0.1101,-0.0723,0.0896,71,5.651,109,8.4045,3.1876,-9.2656,-0.1687,-0.0722,0.1268,40
5.527,106,5.7048,0.5327,-17.619,0.0107,-0.027,0.2143,71,5.703,110,8.4533,3.0117,-9.2266,-0.168,-0.089,0.101,40
5.578,107,5.6729,0.6484,-17.5707,-0.1784,0.0059,0.2815,71,5.754,111,8.471,3.0124,-9.2732,-0.1875,-0.1057,0.073,40
5.63,108,5.7458,0.6242,-17.5674,-0.1876,0.061,0.252,71,5.806,112,8.4987,2.9699,-9.2255,-0.2413,-0.1207,0.0765,40
5.682,109,5.868,0.5586,-17.555,-0.218,0.0986,0.1997,71,5.858,113,8.5036,2.95,-9.2559,-0.2503,-0.0761,0.037,40
5.734,110,6.0367,0.5399,-17.4856,-0.1969,0.133,0.1504,71,5.91,114,8.4919,2.9159,-9.2187,-0.2335,-0.0703,0.0321,40
5.785,111,5.9313,0.431,-17.3787,-0.1969,0.1695,0.1195,71,5.962,115,8.5246,2.8639,-9.2647,-0.1939,-0.0806,0.0306,40
5.837,112,5.8328,0.1984,-17.5041,-0.1489,0.2221,0.0533,71,6.013,116,8.524,2.858,-9.2748,-0.1626,-0.0636,0.0093,40
5.889,113,5.7794,0.0435,-17.5798,-0.0785,0.2456,-0.0256,71,6.065,117,8.5279,2.8539,-9.279,-0.1134,-0.0518,-0.025,40
5.941,114,5.9287,-0.1076,-17.8245,0.0554,0.2092,-0.0522,71,6.117,118,8.5617,2.8311,-9.266,-0.0765,-0.0385,-0.0688,40
5.993,115,6.0578,-0.1637,-17.872,0.0856,0.1409,-0.0589,71,6.169,119,8.489,2.9638,-9.2822,-0.0386,0.0054,-0.1003,40
6.044,116,6.0614,-0.2246,-18.0644,0.1409,0.0659,-0.0161,71,6.22,120,8.463,3.0125,-9.2489,-0.0401,0.0198,-0.0695,40
6.096,117,5.9316,-0.1514,-18.0777,0.2013,-0.0462,0.0084,71,6.272,121,8.4454,3.0092,-9.2602,-0.0194,0.0213,-0.0627,40
6.148,118,5.6762,0.0541,-17.6255,0.1489,-0.102,0.0026,71,6.324,122,8.4126,3.064,-9.254,-0.0237,0.0169,-0.0467,40
6.2,119,5.6191,0.1745,-17.2678,0.0725,-0.075,0.0002,71,6.376,123,8.4075,3.1023,-9.1885,-0.0293,0.0117,-0.0155,40
6.252,120,5.7859,0.1571,-17.2431,0.0347,0.0007,-0.0248,71,6.427,124,8.4584,3.0258,-9.1673,-0.026,0.0008,0.0045,40
6.303,121,5.9368,0.0315,-17.3848,0.028,0.0414,-0.053,71,6.479,125,8.4489,3.0263,-9.1757,-0.0304,-0.0054,0.0229,40
6.355,122,6.015,0.0221,-17.4669,0.0673,0.0497,-0.027,71,6.531,126,8.4625,3.0166,-9.1917,-0.0301,-0.0141,0.0296,40
6.407,123,6.0603,0.0682,-17.5066,0.0583,0.0574,0.0183,71,6.583,127,8.4783,2.9875,-9.1991,-0.0239,-0.0037,0.0206,40
6.459,124,6.1024,0.1961,-17.5443,0.0493,0.0541,0.0407,71,6.635,128,8.4851,2.9232,-9.1658,-0.0071,-0.0005,-0.0019,40
6.511,125,6.1386,0.2337,-17.4907,0.0245,0.045,0.0356,71,6.686,129,8.4511,3.0029,-9.2372,-0.0207,-0.0101,-0.0041,40
6.562,126,6.1827,0.1792,-17.416,0.0245,0.0562,0.0214,71,6.738,130,8.4726,3.0076,-9.1934,-0.0096,-0.0265,-0.0005,40
6.614,127,6.2384,0.1711,-17.4313,0.0072,0.0802,0.0051,71,6.79,131,8.4308,3.0512,-9.2216,0.0152,-0.0642,0.0616,40
6.666,128,6.2689,0.0963,-17.4409,0.0141,0.0535,-0.0007,71,6.842,132,8.4901,2.9214,-9.2653,0.012,-0.066,0.081,40
6.718,129,6.2063,0.0337,-17.3003,0.0275,0.0485,-0.0208,71,6.893,133,8.4919,2.9067,-9.2783,0.0118,-0.0417,0.0586,40
6.77,130,6.1448,0.094,-17.1416,0.027,0.1096,-0.0572,71,6.945,134,8.5063,2.889,-9.3115,0.0095,-0.024,0.0324,40
6.821,131,6.3776,0.0924,-17.4474,0.0856,0.0822,-0.0915,71,6.997,135,8.5158,2.8703,-9.309,0.0088,-0.0038,0.0281,40
6.873,132,6.4109,0.147,-17.6028,0.1286,0.0166,-0.1395,71,7.049,136,8.5124,2.8566,-9.3076,-0.0003,0.0113,0.0288,40
6.925,133,6.3166,0.2161,-17.908,0.2102,-0.1081,-0.1797,71,7.101,137,8.5265,2.8583,-9.2915,0.0027,0.0095,0.0306,40
6.977,134,6.1669,0.2885,-17.8456,0.227,-0.2207,-0.2306,71,7.153,138,8.5771,2.8587,-9.2929,-0.0003,-0.0012,0.0241,40
7.028,135,6.0424,0.2939,-17.4619,0.1802,-0.2646,-0.2675,71,7.205,139,8.5799,2.8524,-9.3063,-0.0111,0.0001,0.0156,40
7.08,136,5.8839,0.2254,-17.1375,0.1412,-0.2178,-0.2619,71,7.256,140,8.5946,2.801,-9.2924,-0.0163,0.0158,-0.0035,40
7.132,137,5.8345,-0.019,-17.1285,0.0415,-0.1085,-0.2321,71,7.308,141,8.5559,2.8552,-9.2889,-0.0159,0.0082,-0.0164,40
7.184,138,5.9066,-0.2642,-17.2934,0.0258,-0.0142,-0.1891,71,7.36,142,8.5506,2.8312,-9.2874,-0.0046,-0.0039,0.0015,40
7.235,139,5.9742,-0.3511,-17.3803,0.0293,0.0344,-0.1143,71,7.412,143,8.6986,3.0135,-9.2718,0.0033,0.0094,-0.0034,40
7.287,140,6.0772,-0.3029,-17.4953,-0.0102,0.0715,-0.0337,71,7.463,144,8.6751,2.8981,-9.3115,0.0008,0.0033,0.007,40
7.339,141,6.1537,-0.2026,-17.5391,-0.0955,0.066,0.0506,71,7.515,145,8.6127,2.9068,-9.3327,-0.0071,0.0098,-0.0048,40
7.391,142,6.0639,-0.1494,-17.5677,-0.0664,0.0273,0.0902,71,7.567,146,8.5733,2.8734,-9.3284,-0.0025,0.0048,0.0092,40
7.442,143,5.9116,0.047,-17.351,-0.044,0.0427,0.0781,71,7.619,147,8.5733,2.8137,-9.3334,0.0027,-0.0032,0.013,40
7.494,144,6.0509,0.1252,-17.5983,-0.0138,0.0839,0.0604,71,7.671,148,8.5621,2.7762,-9.3522,0.0056,0.0008,-0.0039,40
7.546,145,6.1796,0.2021,-17.7798,0.058,0.0293,0.0456,71,7.722,149,8.5524,2.76,-9.3678,0.0205,0.0179,-0.0465,40
7.598,146,6.1038,0.2571,-17.6146,0.0499,-0.0346,0.0402,71,7.774,150,8.5322,2.8127,-9.3692,0.0325,0.0449,-0.0853,40
7.649,147,5.9709,0.3629,-17.3398,0.0302,-0.0319,0.0277,71,7.826,151,8.4882,2.8613,-9.3095,0.0267,0.0541,-0.082,40
7.701,148,6.0346,0.4566,-17.3028,0.005,0.0329,-0.0081,71,7.878,152,8.4657,2.9152,-9.28,0.0581,0.031,-0.0621,40
7.753,149,6.2415,0.2446,-17.6624,0.1045,0.0087,-0.0512,71,7.929,153,8.4937,2.9277,-9.2924,0.0673,0.0074,-0.0486,40
7.805,150,6.3096,0.229,-17.7348,0.1459,-0.0424,-0.0673,71,7.981,154,8.5126,2.6007,-9.3112,0.0618,0.0127,-0.0502,40
7.857,151,6.1735,0.2163,-17.5878,0.0957,-0.1006,-0.0488,71,8.033,155,8.4721,2.7566,-9.2809,0.0764,-0.0115,-0.0295,40
7.909,152,6.0304,0.1906,-17.328,0.0157,-0.1095,-0.0336,71,8.085,156,8.4522,2.8535,-9.3138,0.0661,-0.0389,0.0061,40
7.961,153,5.9493,0.1398,-17.157,0.0221,-0.0526,-0.0327,71,8.137,157,8.4756,2.8337,-9.3621,0.0412,-0.0549,0.0174,40
8.012,154,6.0338,0.0651,-17.2208,0.0101,0.0267,-0.0344,71,8.188,158,8.5294,2.7976,-9.4259,0.0457,-0.0463,-0.0034,40
8.064,155,6.139,0.0607,-17.375,0.0029,0.0723,-0.0178,71,8.24,159,8.4808,2.9649,-9.4419,0.0905,-0.0256,-0.0173,40
8.116,156,6.2555,0.0849,-17.4644,-0.0235,0.0691,0.0105,71,8.292,160,8.4893,2.9667,-9.4758,0.0844,0.003,-0.0248,40
8.168,157,6.2701,0.0559,-17.4474,-0.043,0.0514,0.0347,71,8.343,161,8.4247,3.0356,-9.4707,0.1552,0.043,-0.0205,40
8.219,158,6.1879,0.0475,-17.3922,-0.0648,0.0533,0.0468,71,8.395,162,8.4489,2.9703,-9.4492,0.1786,0.0548,-0.0041,40
8.271,159,6.1472,0.0379,-17.3691,-0.0727,0.0667,0.0467,71,8.447,163,8.4342,2.9421,-9.4628,0.2396,0.0941,-0.0007,40
8.323,160,6.1232,0.0698,-17.3897,-0.0637,0.0777,0.0375,71,8.499,164,8.4305,2.9593,-9.4593,0.229,0.0833,0.0133,40
8.375,161,6.1013,0.0332,-17.4522,-0.0845,0.0789,0.0374,71,8.551,165,8.4977,2.9791,-9.4255,0.3047,0.107,0.0238,40
8.426,162,6.173,-0.0227,-17.4789,-0.0973,0.0574,0.0482,71,8.603,166,8.4074,3.1048,-9.4238,0.3049,0.1106,0.0298,40
8.478,163,6.2457,-0.0805,-17.4531,-0.0825,0.031,0.0645,71,8.655,167,8.3076,3.2382,-9.3775,0.2297,0.0776,0.0548,40
8.53,164,6.1716,0.0226,-17.3424,-0.0739,0.0311,0.0888,71,8.706,168,8.6546,2.8244,-9.4251,0.0701,0.0235,0.0725,40
8.582,165,6.1038,0.124,-17.2895,-0.0911,0.051,0.109,71,8.758,169,8.5279,2.9752,-9.4683,0.0142,0.0218,0.0228,40
8.634,166,6.1838,0.152,-17.3676,-0.0889,0.0676,0.1098,71,8.81,170,8.7456,2.5848,-9.2241,-0.1747,-0.0604,0.0186,40
8.685,167,6.3194,0.206,-17.4023,-0.0809,0.0646,0.1044,71,8.861,171,8.6116,2.681,-9.3009,-0.0692,-0.0668,-0.0032,40
8.737,168,6.3488,0.2655,-17.3288,-0.0541,0.0656,0.092,71,8.913,172,8.465,2.8677,-9.3368,-0.0308,-0.0586,0.0103,40
8.789,169,6.2963,0.321,-17.2444,-0.0331,0.0775,0.0832,71,8.965,173,8.5726,2.733,-9.3586,-0.0941,-0.0893,0.0393,40
8.841,170,6.3615,0.3614,-17.2684,-0.0317,0.0921,0.0561,71,9.017,174,8.6092,2.7028,-9.3782,0.0485,-0.0257,0.0224,40
8.892,171,6.3797,0.3562,-17.2226,-0.0429,0.0874,0.0257,71,9.069,175,8.4993,2.8632,-9.3542,0.1313,0.0236,0.0091,40
8.944,172,6.3998,0.2176,-17.1327,-0.0542,0.0934,-0.0003,71,9.12,176,8.4488,2.9397,-9.4023,0.1342,0.0189,0.0514,40
8.996,173,6.4405,0.0797,-17.1699,-0.0315,0.0928,-0.0282,71,9.172,177,8.2964,3.31,-9.3473,0.0701,0.0064,0.0905,40
9.048,174,6.3861,-0.0695,-17.1738,0.0186,0.0843,-0.0493,71,9.224,178,8.4858,2.8427,-9.3426,-0.1601,-0.062,0.1079,40
9.1,175,6.4668,-0.1877,-17.1566,0.0244,0.0815,-0.0434,71,9.276,179,8.6329,3.0199,-9.2871,-0.2937,-0.1406,0.1004,40
9.151,176,6.4895,-0.1015,-17.0925,0.0315,0.0726,-0.0096,71,9.327,180,8.6372,2.8304,-9.3557,-0.2784,-0.1608,0.1091,40
9.203,177,6.5147,0.01,-16.9887,-0.0209,0.0716,0.0421,71,9.379,181,8.6797,2.7024,-9.459,-0.2479,-0.1408,0.0932,40
9.255,178,6.617,0.0314,-16.9203,-0.0894,0.0757,0.0889,71,9.431,182,8.6878,2.648,-9.4502,-0.2327,-0.1028,0.0535,40
9.307,179,6.7134,0.0799,-16.9478,-0.0371,0.0792,0.1031,71,9.483,183,8.6624,2.5861,-9.4829,-0.1987,-0.08,0.0173,40
9.359,180,6.7756,0.2415,-16.8637,0.0045,0.0757,0.1084,71,9.535,184,8.6477,2.6452,-9.3982,-0.1601,-0.0635,0.0345,40
9.41,181,6.7276,0.3615,-16.778,-0.0632,0.0666,0.132,71,9.586,185,8.6833,2.6594,-9.4081,-0.1427,-0.0746,0.0896,40
9.462,182,6.6694,0.2267,-16.7792,-0.1616,0.0779,0.1462,71,9.638,186,8.6929,2.5857,-9.494,-0.0916,-0.0514,0.0762,40
9.514,183,6.772,-0.0079,-16.9011,-0.1566,0.0917,0.132,71,9.69,187,8.6586,2.5733,-9.5013,-0.0699,0.0091,-0.0191,40
9.566,184,6.8661,-0.1111,-17.0405,-0.1489,0.0577,0.1233,71,9.742,188,8.6184,2.6043,-9.495,-0.0626,0.0354,-0.0743,40
9.617,185,6.6628,0.0422,-16.6286,-0.1165,0.0188,0.1189,71,9.793,189,8.6082,2.651,-9.5217,-0.0513,0.0548,-0.0888,40
9.669,186,6.0496,0.35,-15.3684,-0.1858,0.1567,0.0982,71,9.845,190,8.4871,2.7855,-9.416,-0.0485,0.0747,-0.098,40
9.721,187,7.2177,0.6022,-17.0954,-0.2955,0.1241,0.0162,71,9.897,191,8.446,2.8065,-9.3441,-0.0219,0.0674,-0.0816,40
9.773,188,6.8909,0.6556,-17.5506,-0.0403,-0.0284,-0.1044,71,9.949,192,8.4294,2.8721,-9.3177,-0.0119,0.0413,-0.0651,40
9.825,189,5.5226,0.8347,-15.4904,0.1012,0.2618,-0.1376,71,10.001,193,8.4571,2.8877,-9.2905,-0.0051,0.0036,-0.0336,40
9.876,190,5.7298,1.2219,-14.1493,-0.1167,0.6438,-0.1445,71,10.052,194,8.4644,2.8965,-9.261,-0.0067,-0.0309,0.0041,40
9.928,191,7.1217,-4.2489,-18.3317,-0.4226,0.1712,0.1511,71,10.104,195,8.4985,2.835,-9.3173,0.001,-0.0412,0.0155,40
9.98,192,2.2289,0.017,-15.2832,-0.9019,0.4025,0.2634,71,10.156,196,8.5198,2.779,-9.3384,0.0104,-0.0202,-0.013,40
10.032,193,2.8007,0.9688,-15.0082,-0.747,0.7067,0.2083,71,10.208,197,8.51,2.9219,-9.3494,0.0626,0.0284,-0.047,40
10.084,194,4.8173,0.5905,-14.7575,-0.4131,0.5786,0.1382,71,10.26,198,8.5402,2.808,-9.3849,0.0968,0.0749,-0.0692,40
10.135,195,5.8963,0.5154,-14.6248,-0.3074,0.4324,0.1121,71,10.311,199,8.638,2.7937,-9.2648,0.2439,0.1657,-0.0771,40
10.187,196,6.7544,0.5831,-14.5855,-0.2991,0.2886,0.1202,71,10.363,200,8.4969,2.9905,-9.2425,0.2687,0.1382,-0.0209,40
10.239,197,7.231,0.6483,-14.7116,-0.2597,0.1648,0.0954,71,10.415,201,8.4768,2.9943,-9.2781,0.2335,0.0753,0.046,40
10.291,198,7.4612,0.5943,-14.9407,-0.1811,0.088,0.0681,71,10.467,202,8.5095,2.9154,-9.3035,0.1906,0.0713,0.0117,40
10.343,199,7.7968,0.6891,-15.0706,-0.1164,0.0391,0.0494,71,10.518,203,8.4778,2.9974,-9.2595,0.1858,0.0876,-0.036,40
10.394,200,8.3407,0.5043,-15.0865,-0.0574,-0.0914,0.0091,71,10.57,204,8.4866,3.0586,-9.2593,0.2007,0.0791,-0.0362,40
10.446,201,8.3282,0.6277,-15.0465,0.047,-0.2171,-0.0314,71,10.622,205,8.6181,2.8134,-9.2873,0.2945,0.1126,-0.0251,40
10.498,202,8.1922,0.1881,-15.476,0.2211,-0.252,0.005,71,10.674,206,8.5459,3.0105,-9.3214,0.3665,0.1463,-0.008,40
10.55,203,7.998,0.525,-15.6282,0.2817,-0.3287,0.0197,71,10.726,207,8.4544,3.0934,-9.3399,0.333,0.1966,-0.0162,40
10.602,204,7.6058,0.5497,-15.8663,0.1934,-0.4064,0.0172,71,10.777,208,8.646,2.735,-9.2136,0.1447,0.167,-0.014,40
10.653,205,7.2318,0.5787,-15.915,0.1521,-0.4404,0.0147,71,10.829,209,8.446,2.9006,-9.1868,0.1823,0.0918,-0.0267,40
10.705,206,7.0117,0.6676,-15.9864,0.0679,-0.4437,0.0275,71,10.881,210,8.2175,3.3031,-9.283,0.0836,-0.011,-0.016,40
10.757,207,6.8694,0.5519,-16.1528,-0.0091,-0.3842,0.0261,71,10.933,211,8.328,3.0134,-9.2505,0.1236,-0.0116,-0.0261,40
10.809,208,6.8104,0.4407,-16.2935,-0.0102,-0.3195,-0.0076,71,10.984,212,8.3005,3.0674,-9.3009,0.1398,0.0062,-0.0284,40
10.86,209,6.7038,0.4623,-16.2474,0.0133,-0.2445,-0.019,71,11.036,213,8.2483,3.1821,-9.2755,0.1092,0.0169,-0.0223,40
10.912,210,6.8035,0.5026,-16.2725,0.0334,-0.1372,-0.015,71,11.088,214,8.2611,3.2799,-9.2072,0.1594,0.0212,-0.0167,40
10.964,211,6.7579,0.6227,-16.3563,0.0806,-0.0665,-0.0122,71,11.14,215,8.2105,3.3891,-9.1961,0.1336,0.021,-0.0177,40
11.016,212,6.8132,0.5208,-16.4596,0.0545,-0.021,-0.0137,71,11.191,216,8.442,3.0289,-9.2322,0.1284,0.0248,-0.009,40
