right_leg_timestamp,right_leg_index,right_leg_accel_x,right_leg_accel_y,right_leg_accel_z,right_leg_gyro_x,right_leg_gyro_y,right_leg_gyro_z,right_leg_battery_percentage,left_leg_timestamp,left_leg_index,left_leg_accel_x,left_leg_accel_y,left_leg_accel_z,left_leg_gyro_x,left_leg_gyro_y,left_leg_gyro_z,left_leg_battery_percentage
0.904,17,4.4713,1.5013,-15.956,0.0556,-0.3707,-0.0103,77,0.091,1,8.496,-0.0616,-12.841,-0.0258,0.1,-0.0564,51
0.955,18,4.682,1.4393,-16.2712,-0.0429,-0.1059,0.0103,77,0.143,2,8.5767,0.0248,-12.6073,0.0717,0.0521,-0.0985,51
1.007,19,4.7991,1.2818,-16.6137,0.0083,0.1497,-0.019,77,0.195,3,8.6305,-0.049,-12.7233,0.1617,-0.0237,-0.1284,51
1.059,20,4.4821,0.7232,-17.1234,0.0394,0.3533,-0.0043,77,0.247,4,8.6207,-0.0016,-12.8554,0.1653,-0.0283,-0.1303,51
1.11,21,4.811,0.9676,-17.1334,-0.0143,0.4456,0.0281,77,0.299,5,8.5866,0.2381,-12.9543,0.1676,0.0287,-0.0969,51
1.162,22,5.0802,0.7677,-17.3713,0.0012,0.5503,-0.0204,77,0.351,6,8.5571,0.1141,-12.8185,0.1392,0.0933,-0.0655,51
1.214,23,5.489,1.0014,-17.5356,0.1103,0.549,-0.1244,77,0.403,7,8.5061,0.2519,-12.7287,0.1349,0.0562,-0.05,51
1.266,24,5.7931,1.3526,-17.3633,0.0766,0.5162,-0.1656,77,0.454,8,8.5179,0.2659,-12.7823,0.0579,0.0383,0.0119,51
1.318,25,6.2128,1.2977,-17.5211,0.0519,0.4569,-0.1641,77,0.506,9,8.5277,-0.0558,-12.6972,0.0534,0.0235,-0.0098,51
1.369,26,6.5041,1.395,-17.4085,0.0781,0.3933,-0.1927,77,0.558,10,8.5192,-0.1084,-12.7383,0.1449,0.009,-0.0794,51
1.421,27,6.4859,1.3366,-17.2403,0.0459,0.3296,-0.1872,77,0.61,11,8.5422,0.177,-12.707,0.1358,0.0176,-0.0547,51
1.473,28,6.4378,1.3523,-17.0707,0.0759,0.2757,-0.1545,77,0.661,12,8.4898,0.3216,-12.789,-0.0057,0.0733,0.0076,51
1.525,29,6.4152,1.3955,-16.9808,0.0623,0.2355,-0.137,77,0.713,13,8.615,0.2303,-12.6259,0.0683,0.0562,-0.0346,51
1.577,30,6.4259,1.4435,-16.8579,0.0321,0.1827,-0.1025,77,0.765,14,8.611,0.2776,-12.5885,0.138,0.0144,-0.0494,51
1.628,31,6.461,1.3642,-16.9184,0.0765,0.1392,-0.0897,77,0.817,15,8.5299,0.5338,-12.6055,0.0186,-0.0118,0.0178,51
1.68,32,6.5833,1.3427,-16.8511,0.0707,0.0992,-0.1048,77,0.869,16,8.5967,0.2498,-12.6314,0.0238,-0.0279,-0.0052,51
1.732,33,6.5759,1.2743,-16.7798,0.0727,0.0601,-0.0795,77,0.92,17,8.5891,0.0523,-12.6512,0.1317,-0.0396,-0.0588,51
1.784,34,6.7494,1.438,-16.6338,-0.0099,0.0208,0.0138,77,0.972,18,8.5696,0.3448,-12.7091,0.1335,-0.0404,-0.0246,51
1.835,35,7.0169,1.4273,-16.7085,-0.0063,0.0131,0.066,77,1.024,19,8.5714,0.1482,-12.7624,0.0932,0.0018,0.0076,51
1.887,36,7.0926,1.5844,-16.6493,-0.0179,0.0359,0.0643,77,1.075,20,8.5546,0.1197,-12.7241,0.0765,0.0028,0.009,51
1.939,37,6.9796,1.3271,-16.6429,0.0051,0.0732,0.0263,77,1.127,21,8.5589,0.1739,-12.8016,0.0439,-0.008,0.0272,51
1.991,38,6.9214,1.3004,-16.4486,0.0176,0.0932,-0.037,77,1.179,22,8.5729,0.0483,-12.7933,0.0444,-0.0147,0.0095,51
2.043,39,6.864,1.2357,-16.3757,-0.0199,0.1183,-0.0421,77,1.231,23,8.5305,0.075,-12.8335,0.0703,-0.0277,-0.0074,51
2.094,40,7.1173,1.3071,-16.4828,-0.0255,0.1191,0.0349,77,1.283,24,8.5117,0.2733,-12.8388,-0.0154,-0.0056,0.0385,51
2.146,41,7.2846,1.4919,-16.5805,0.0179,0.0991,0.0601,77,1.334,25,8.506,0.1618,-12.8605,-0.2605,0.0028,0.1292,51
2.198,42,7.2621,1.5102,-16.4547,0.0525,0.0904,0.0174,77,1.386,26,8.6347,0.1424,-12.821,-0.1748,-0.0354,0.0217,51
2.25,43,7.1833,1.6167,-16.3541,0.0946,0.0961,-0.0495,77,1.438,27,8.5912,0.0693,-12.8442,0.0185,-0.1186,-0.058,51
2.302,44,7.126,1.509,-16.2395,0.0372,0.1054,-0.102,77,1.49,28,8.5492,0.241,-12.9936,0.1373,-0.1622,-0.071,51
2.354,45,7.0904,1.3921,-16.1458,0.0272,0.1126,-0.1174,77,1.541,29,8.4615,0.3169,-13.102,0.1636,-0.1385,-0.046,51
2.405,46,7.2345,1.5659,-16.104,-0.0318,0.0988,-0.0621,77,1.593,30,8.3756,0.5724,-13.2529,-0.0323,-0.0425,0.0206,51
2.457,47,7.402,1.7918,-16.1573,-0.034,0.0939,-0.0051,77,1.645,31,8.5733,-0.7271,-13.0219,-0.1466,0.0106,0.0425,51
2.509,48,7.4608,1.8283,-16.231,-0.0279,0.0908,-0.034,77,1.697,32,8.5093,-0.6946,-13.1277,-0.1043,-0.0193,-0.0017,51
2.561,49,7.2454,1.8626,-16.1582,-0.0209,0.0775,-0.0746,77,1.749,33,8.5916,-0.3217,-13.1533,0.0115,-0.0104,-0.0462,51
2.613,50,6.9496,1.4181,-15.9422,-0.077,0.0722,-0.0753,77,1.8,34,8.5781,-0.1351,-13.1444,0.1113,-0.0162,-0.0534,51
2.664,51,6.9206,1.207,-15.8555,-0.1055,0.057,-0.0224,77,1.852,35,8.5144,-0.0494,-13.1694,0.1337,-0.0091,-0.0342,51
2.716,52,7.3895,1.1352,-16.0199,-0.1359,0.029,0.0518,77,1.904,36,8.4039,0.3012,-13.1995,0.0673,0.0255,0.0041,51
2.768,53,7.7737,1.4328,-16.1588,-0.1058,-0.0176,0.1198,77,1.956,37,8.5854,-0.5162,-13.1703,-0.1979,0.096,0.0955,51
2.82,54,7.8517,1.497,-16.1296,-0.0424,-0.0266,0.1237,77,2.008,38,8.5652,-0.3332,-13.0852,-0.1972,0.0379,0.0619,51
2.872,55,7.6648,1.5616,-16.0021,-0.0066,0.0087,0.0713,77,2.059,39,8.6435,-0.1115,-13.1182,0.0089,-0.0484,-0.011,51
2.923,56,7.5409,1.6408,-15.8643,0.0145,0.0423,0.0491,77,2.111,40,8.5781,-0.1364,-13.1978,0.1416,-0.0687,-0.0192,51
2.975,57,7.4503,1.596,-15.8877,0.0331,0.0842,0.0216,77,2.163,41,8.4275,0.2892,-13.2981,0.1427,-0.0652,0.0269,51
3.027,58,7.4272,1.4903,-15.9594,0.011,0.1065,-0.0101,77,2.215,42,8.3433,0.5407,-13.2619,-0.3482,-0.0093,0.1924,51
3.079,59,7.4774,1.4616,-16.027,0.0175,0.0911,-0.0032,77,2.267,43,8.3568,-0.1245,-13.2199,-0.4871,-0.0043,0.2422,51
3.13,60,7.4691,1.4736,-16.0287,-0.0012,0.0569,0.0359,77,2.318,44,8.4059,-0.5635,-13.2035,-0.4087,-0.0223,0.1628,51
3.182,61,7.5517,1.518,-15.9085,0.0009,0.0217,0.0547,77,2.37,45,8.4164,-0.4604,-13.2263,-0.1082,-0.0507,-0.0064,51
3.234,62,7.5316,1.6561,-15.7745,0.0009,0.0042,0.0569,77,2.422,46,8.403,-0.1173,-13.3616,0.0374,-0.0618,-0.0895,51
3.286,63,7.4314,1.5755,-15.7757,0.0044,0.0005,0.0544,77,2.474,47,8.3766,0.0543,-13.3885,0.0509,-0.0403,-0.0607,51
3.338,64,7.4554,1.532,-15.7868,0.0205,0.0033,0.0068,77,2.525,48,8.3703,0.0662,-13.3332,-0.0047,0.017,-0.0146,51
3.389,65,7.618,1.5086,-15.8066,0.0208,-0.0064,-0.0033,77,2.577,49,8.4099,-0.0185,-13.2169,0.0393,0.0075,-0.0522,51
3.441,66,7.7435,1.467,-15.8782,0.0573,0.0065,0.0065,77,2.629,50,8.3828,0.1474,-13.3089,0.0241,-0.0176,-0.027,51
3.493,67,7.7569,1.5051,-15.8369,0.0432,0.0278,0.0164,77,2.681,51,8.3867,0.083,-13.3611,-0.1078,0.0444,0.0344,51
3.545,68,7.6795,1.4775,-15.8323,0.0703,0.0598,0.0134,77,2.733,52,8.4137,-0.1882,-13.2172,-0.0649,0.0514,-0.0097,51
3.596,69,7.5293,1.4786,-15.7428,0.0495,0.0689,-0.0101,77,2.784,53,8.3786,-0.3086,-13.2149,0.0744,-0.0022,-0.0792,51
3.648,70,7.484,1.459,-15.6787,0.0317,0.0654,-0.0171,77,2.836,54,8.3874,-0.2101,-13.318,0.121,-0.0396,-0.0969,51
3.7,71,7.6111,1.2982,-15.7207,-0.0243,0.0454,0.0128,77,2.888,55,8.4266,-0.1513,-13.3708,0.1812,-0.0296,-0.1014,51
3.752,72,7.7514,1.2863,-15.8191,0.0025,0.0395,-0.0139,77,2.94,56,8.3585,0.0193,-13.355,0.2304,-0.026,-0.0987,51
3.804,73,7.7305,1.0984,-15.8002,0.0234,0.0258,-0.0464,77,2.991,57,8.3764,0.0084,-13.3175,0.2645,-0.0164,-0.105,51
3.856,74,7.5968,1.2325,-15.6271,0.0141,0.0115,-0.0424,77,3.043,58,8.3436,0.1116,-13.368,0.2613,-0.0188,-0.0924,51
3.907,75,7.5842,1.3069,-15.6517,-0.0162,0.0044,0.019,77,3.095,59,8.342,0.049,-13.4236,0.2353,0.0074,-0.0711,51
3.959,76,7.7117,1.4227,-15.7278,0.0098,0.0044,0.0389,77,3.147,60,8.3091,0.2344,-13.4082,0.2096,0.0345,-0.0509,51
4.011,77,7.8157,1.3752,-15.8141,-0.0005,0.0017,0.0288,77,3.199,61,8.1334,0.9131,-13.1918,-0.0088,0.0527,0.0187,51
4.063,78,7.7845,1.438,-15.7411,0.0541,0.0168,-0.0244,77,3.251,62,8.3128,0.2287,-13.0639,-0.0705,0.0174,0.0461,51
4.115,79,7.5889,1.4791,-15.6554,0.0396,0.0363,-0.0529,77,3.302,63,8.3452,0.1758,-13.2379,-0.0154,-0.0345,0.0103,51
4.166,80,7.5587,1.6173,-15.6239,0.0093,0.0356,-0.021,77,3.354,64,8.3813,0.2056,-13.291,0.0201,-0.0241,-0.0058,51
4.218,81,7.6827,1.7221,-15.6603,-0.0222,0.0379,-0.0097,77,3.406,65,8.3286,0.4315,-13.2626,-0.008,0.0083,0.0095,51
4.27,82,7.7972,1.7704,-15.622,-0.0732,0.0466,0.0065,77,3.458,66,8.3532,0.0377,-13.0101,-0.2634,0.0454,0.075,51
4.322,83,7.8452,1.8012,-15.4514,-0.087,0.0669,0.0581,77,3.509,67,8.32,0.2466,-13.018,-0.186,-0.0346,0.0179,51
4.374,84,7.8946,1.6198,-15.5144,-0.0919,0.1108,0.0736,77,3.561,68,8.4104,0.0768,-13.2199,-0.0019,-0.0733,-0.062,51
4.425,85,7.9061,1.5359,-15.5198,-0.1386,0.1431,0.0627,77,3.613,69,8.3712,0.087,-13.2748,0.093,-0.0658,-0.0918,51
4.477,86,7.8376,1.3736,-15.5513,-0.0886,0.1451,0.0222,77,3.665,70,8.2834,0.3776,-13.3095,0.1083,-0.0359,-0.0699,51
4.529,87,7.8189,1.3232,-15.5021,-0.0802,0.1021,-0.0084,77,3.717,71,8.1919,0.5616,-13.2873,-0.0977,0.0025,-0.001,51
4.581,88,7.7995,1.1678,-15.4632,-0.0375,0.0512,-0.011,77,3.768,72,8.256,0.3369,-13.1795,-0.0559,-0.0151,-0.0512,51
4.632,89,7.7733,1.1656,-15.3637,0.0181,0.0179,-0.0431,77,3.82,73,8.3079,0.3553,-13.3476,0.1035,-0.065,-0.107,51
4.684,90,7.8627,1.2746,-15.266,0.0007,-0.0109,-0.0293,77,3.872,74,8.3242,0.2107,-13.3197,0.2801,-0.0938,-0.1307,51
4.736,91,7.9492,1.3043,-15.3018,-0.0108,-0.0519,0.0601,77,3.924,75,8.3036,0.3039,-13.3612,0.3832,-0.1537,-0.1473,51
4.788,92,8.1481,1.3669,-15.4201,0.0123,-0.0748,0.0615,77,3.976,76,8.2715,0.2847,-13.5259,0.4628,-0.1689,-0.1532,51
4.84,93,8.1226,1.4204,-15.3936,0.0214,-0.0913,0.033,77,4.027,77,8.2262,0.3076,-13.6155,0.4706,-0.1276,-0.1399,51
4.891,94,8.0271,1.4626,-15.3063,0.0858,-0.0716,-0.0069,77,4.079,78,8.1131,0.6595,-13.7398,0.3306,-0.0559,-0.0845,51
4.943,95,7.8701,1.4848,-15.2795,0.0738,-0.035,-0.0295,77,4.131,79,8.1539,0.0407,-13.6778,0.1276,0.0381,0.0031,51
4.995,96,7.8507,1.6264,-15.2733,0.0746,0.0051,-0.0288,77,4.182,80,8.1479,0.1533,-13.6683,0.107,0.0236,-0.0148,51
5.047,97,7.9415,1.6939,-15.3689,0.0605,0.0323,-0.0365,77,4.234,81,7.7681,1.5351,-13.5337,-0.0941,0.0232,0.0347,51
5.099,98,7.9928,1.7711,-15.4739,0.0285,0.046,-0.0547,77,4.286,82,8.0558,-0.456,-13.7501,-0.3867,0.0949,0.2024,51
5.15,99,7.9392,1.6264,-15.5481,0.036,0.043,-0.0981,77,4.338,83,8.0524,-0.8516,-13.7015,-0.2783,0.0642,0.0798,51
5.202,100,7.8152,1.5056,-15.4963,0.0488,0.0233,-0.1704,77,4.39,84,8.1148,-0.4618,-13.7489,-0.1145,0.0153,-0.0084,51
5.254,101,7.7072,1.4428,-15.4007,0.0339,0.0032,-0.184,77,4.441,85,8.2024,-0.2445,-13.6678,-0.006,0.0131,-0.0465,51
5.306,102,7.8289,1.5038,-15.3785,0.011,-0.023,-0.1004,77,4.493,86,8.2414,0.0613,-13.5529,0.0749,-0.0101,-0.0522,51
5.358,103,7.9254,1.4181,-15.4919,0.0384,-0.0188,-0.0517,77,4.545,87,8.1749,0.2881,-13.6313,-0.0535,0.0354,0.0167,51
5.409,104,8.0136,1.4706,-15.555,0.0824,-0.0029,-0.0787,77,4.597,88,8.3238,-0.0479,-13.4378,-0.0198,0.0204,-0.0175,51
5.461,105,8.1209,1.5768,-15.4719,0.1521,0.0035,-0.1635,77,4.649,89,8.3142,0.1156,-13.4959,0.1047,-0.0682,-0.0778,51
5.513,106,8.1514,1.7501,-15.3306,0.1904,0.0125,-0.2201,77,4.7,90,8.4022,0.1262,-13.5625,0.1784,-0.0956,-0.0712,51
5.565,107,7.9423,1.8443,-15.2219,0.1931,0.0442,-0.2409,77,4.752,91,8.3551,0.1762,-13.5921,0.1953,-0.0985,-0.0543,51
5.617,108,7.6765,1.8754,-15.1393,0.1971,0.0825,-0.2269,77,4.804,92,8.1775,0.891,-13.7232,0.0801,-0.075,-0.004,51
5.668,109,7.5449,1.8017,-15.2253,0.1997,0.1193,-0.1865,77,4.856,93,8.3087,-0.7629,-13.6455,-0.1363,-0.0027,0.1244,51
5.72,110,7.5234,1.8668,-15.3447,0.163,0.1177,-0.1345,77,4.908,94,8.246,-0.5793,-13.7092,-0.0857,-0.0396,0.0575,51
5.772,111,7.6717,2.0786,-15.4364,0.094,0.0597,-0.0336,77,4.959,95,8.2806,-0.4303,-13.7482,0.0313,-0.0505,-0.0147,51
5.824,112,7.9118,2.1663,-15.4302,0.0351,-0.0034,0.0396,77,5.011,96,8.2706,-0.0416,-13.8091,0.0133,-0.0062,0.0184,51
5.876,113,8.0195,2.1537,-15.3558,-0.0605,-0.0405,0.0813,77,5.063,97,8.3075,-0.0982,-13.7353,-0.1152,0.0453,0.0922,51
5.927,114,7.9884,1.9784,-15.3535,0.0012,-0.0277,0.036,77,5.115,98,8.3668,-0.1921,-13.6405,-0.1069,0.0508,0.0573,51
5.979,115,7.8768,1.8226,-15.3256,-0.0367,-0.0102,-0.0075,77,5.166,99,8.3088,-0.2607,-13.5871,0.0454,0.0087,-0.0165,51
6.031,116,7.8659,1.7718,-15.2865,-0.0284,0.0139,0.0159,77,5.218,100,8.2754,-0.1098,-13.674,0.1141,0.009,-0.0515,51
6.083,117,7.9673,1.5818,-15.3606,-0.0835,0.0369,0.0853,77,5.27,101,8.2411,0.3025,-13.5818,0.1019,0.0269,-0.0309,51
6.135,118,7.8583,1.549,-15.3672,-0.0683,0.0692,0.0921,77,5.322,102,8.3184,0.0803,-13.6415,-0.1809,0.0879,0.1115,51
6.186,119,7.8214,1.4664,-15.418,-0.0238,0.0782,0.0897,77,5.374,103,8.4324,-0.1063,-13.4404,-0.1667,0.0375,0.0716,51
6.238,120,7.8307,1.5975,-15.3714,0.0207,0.0635,0.0628,77,5.425,104,8.3423,-0.1656,-13.3918,-0.0327,-0.0418,-0.0129,51
6.29,121,7.8915,1.7604,-15.2272,0.0156,0.0391,0.0556,77,5.477,105,8.3294,-0.1369,-13.5774,0.0795,-0.1242,-0.0552,51
6.342,122,7.9817,1.8351,-15.1278,0.0043,0.0396,0.0558,77,5.529,106,8.3339,0.331,-13.6853,0.1336,-0.1451,-0.0584,51
6.393,123,8.1174,1.9325,-15.1142,-0.0669,0.0334,0.1028,77,5.581,107,8.0403,0.9975,-13.8173,-0.0323,-0.0906,0.0414,51
6.445,124,8.2117,1.8037,-15.2513,-0.0347,0.0346,0.0904,77,5.632,108,8.1977,0.0245,-13.6427,-0.0716,-0.0616,0.0732,51
6.497,125,8.0997,1.7649,-15.2186,-0.0547,0.0246,0.0199,77,5.684,109,8.1154,0.0047,-13.8061,-0.0311,-0.0872,0.0426,51
6.549,126,7.9883,1.6324,-15.1055,-0.0094,0.0175,-0.0242,77,5.736,110,8.1633,0.1041,-13.8463,-0.0305,-0.0655,0.0386,51
6.601,127,7.8998,1.5677,-15.074,0.0066,0.0233,-0.046,77,5.788,111,8.1706,0.0463,-13.8866,-0.0846,-0.0039,0.0752,51
6.652,128,7.932,1.5321,-15.0841,0.0005,0.0245,-0.0312,77,5.84,112,8.1299,0.1958,-13.8347,-0.2055,0.0497,0.1098,51
6.704,129,7.9854,1.6178,-15.1208,-0.0005,0.0125,0.0146,77,5.891,113,8.1152,0.4693,-13.6875,-0.2806,0.0408,0.1232,51
6.756,130,8.0721,1.6428,-15.1249,0.0031,-0.0029,0.0324,77,5.943,114,8.3851,-0.3044,-13.5785,-0.4059,0.0003,0.1821,51
6.808,131,8.0979,1.6464,-15.0651,-0.0014,-0.0153,0.0299,77,5.995,115,8.3335,-0.6035,-13.7662,-0.2929,-0.0125,0.1069,51
6.86,132,8.1041,1.622,-15.0269,0.0171,-0.0127,0.023,77,6.047,116,8.2635,-0.5079,-13.8054,-0.0367,-0.0188,-0.0343,51
6.911,133,8.0771,1.5724,-15.0009,0.0079,0.0004,0.0311,77,6.098,117,8.1718,-0.2024,-13.8105,0.0202,-0.0109,-0.0432,51
6.963,134,8.1168,1.5043,-15.0384,0.0041,0.0057,0.0468,77,6.15,118,8.1712,-0.1532,-13.7559,0.0414,0.0008,-0.0271,51
7.015,135,8.1357,1.5422,-15.0616,0.0383,0.0072,0.0335,77,6.202,119,8.1528,0.0321,-13.7722,0.0484,0.0169,-0.0132,51
7.067,136,8.1621,1.5497,-15.097,0.057,0.0059,0.0024,77,6.254,120,8.1761,0.0048,-13.6803,-0.0934,0.0542,0.0578,51
7.119,137,8.132,1.6329,-15.0635,0.0621,0.0018,-0.0175,77,6.306,121,8.2553,0.0257,-13.5442,-0.0346,0.0212,0.0062,51
7.17,138,8.0912,1.6447,-15.0635,0.0504,-0.0054,-0.0198,77,6.357,122,8.2434,-0.2121,-13.6267,0.0742,-0.0107,-0.05,51
7.222,139,8.0588,1.6726,-15.0337,0.0713,-0.01,-0.04,77,6.409,123,8.2275,-0.0154,-13.6848,0.064,0.0059,-0.0365,51
7.274,140,8.0831,1.6547,-15.0521,0.069,-0.0117,-0.0559,77,6.461,124,8.2065,0.0812,-13.7555,-0.0083,0.0417,0.0092,51
7.326,141,8.0363,1.6081,-15.0619,0.0891,-0.002,-0.0815,77,6.513,125,8.2072,-0.0441,-13.6935,-0.0315,0.0619,0.0163,51
7.378,142,8.035,1.5565,-15.0952,0.0723,-0.008,-0.0771,77,6.565,126,8.1865,-0.1355,-13.6624,0.0238,0.043,-0.0231,51
7.429,143,8.1251,1.5445,-15.1297,0.0708,-0.0085,-0.0541,77,6.616,127,8.2136,-0.0481,-13.6589,0.0435,0.0311,-0.0375,51
7.481,144,8.1537,1.5749,-15.1126,0.0743,-0.0021,-0.0466,77,6.668,128,8.2587,0.0014,-13.6697,0.0253,0.0528,-0.0133,51
7.533,145,8.0852,1.5332,-15.1254,0.0982,0.0149,-0.035,77,6.72,129,8.2802,-0.0829,-13.5744,-0.0154,0.0722,0.0041,51
7.585,146,8.0741,1.6187,-15.1055,0.0864,0.0192,-0.0184,77,6.771,130,8.2988,-0.1495,-13.5145,0.0182,0.058,-0.0346,51
7.636,147,8.0483,1.6162,-15.0937,0.071,0.0161,-0.0107,77,6.823,131,8.3088,-0.1846,-13.4647,0.0956,0.0123,-0.071,51
7.688,148,8.0281,1.6084,-15.0874,0.0652,0.0156,-0.0295,77,6.875,132,8.2757,-0.05,-13.5684,0.1302,-0.0053,-0.0683,51
7.74,149,8.0241,1.5539,-15.1052,0.0731,0.0171,-0.0388,77,6.927,133,8.2649,0.1165,-13.5587,0.0798,0.0145,-0.0122,51
7.792,150,8.0306,1.6049,-15.125,0.069,0.0083,-0.0274,77,6.979,134,8.2841,-0.0816,-13.5414,-0.0137,0.0358,0.0309,51
7.843,151,8.0396,1.6043,-15.1235,0.0481,-0.0037,-0.0037,77,7.03,135,8.2947,-0.1744,-13.5477,-0.0126,0.0252,0.0122,51
7.895,152,8.0627,1.6556,-15.1203,0.031,-0.009,0.0094,77,7.082,136,8.2909,-0.1235,-13.5302,0.0423,0.0119,-0.0156,51
7.947,153,8.0904,1.6957,-15.1181,-0.0004,-0.0088,0.0313,77,7.134,137,8.3055,-0.0577,-13.5528,0.0234,0.0292,0.0046,51
7.999,154,8.1168,1.6569,-15.1321,-0.0132,-0.0044,0.0374,77,7.186,138,8.3279,-0.2228,-13.5121,-0.029,0.061,0.0291,51
8.051,155,8.0982,1.6359,-15.1251,-0.017,0.0,0.0139,77,7.237,139,8.3282,-0.2015,-13.4575,-0.0221,0.0585,0.0203,51
8.102,156,8.0654,1.6068,-15.116,-0.0157,-0.0001,0.0016,77,7.289,140,8.3267,-0.0291,-13.4002,-0.0055,0.0501,0.0087,51
8.154,157,8.0527,1.566,-15.0778,-0.0412,-0.0057,0.0133,77,7.341,141,8.1359,-0.432,-14.2002,-0.0179,0.0846,0.0008,51
8.206,158,7.9011,1.428,-15.1473,-0.0604,-0.0103,0.0498,77,7.393,142,8.2204,-0.3619,-13.9527,-0.0626,0.0752,0.0231,51
8.258,159,7.9134,1.5574,-15.1204,-0.1083,-0.0123,0.1027,77,7.445,143,8.2613,-0.2757,-13.7411,-0.0887,0.0667,0.0295,51
8.31,160,8.0889,1.5336,-15.1485,-0.1022,-0.0176,0.1335,77,7.496,144,8.3074,-0.2578,-13.6065,-0.0999,0.053,0.0353,51
8.361,161,8.2303,1.5248,-15.218,-0.0983,-0.0211,0.1126,77,7.548,145,8.3445,-0.314,-13.5508,-0.0709,0.0404,0.0279,51
8.413,162,8.1998,1.4922,-15.161,-0.0627,-0.0227,0.0568,77,7.6,146,8.3798,-0.3236,-13.4764,-0.0154,0.0402,-0.0018,51
8.465,163,8.0047,1.4093,-15.0457,-0.0316,-0.014,0.0109,77,7.652,147,8.34,-0.0546,-13.45,-0.0129,0.0379,0.0013,51
8.517,164,7.9651,1.39,-15.0143,-0.0332,0.005,0.0066,77,7.704,148,8.3518,-0.0208,-13.402,-0.0392,0.0383,0.0214,51
8.569,165,7.9962,1.3727,-15.0994,0.0174,0.0195,0.0153,77,7.756,149,8.3593,-0.1043,-13.3371,-0.0866,0.0409,0.0428,51
8.62,166,8.0914,1.4248,-15.2139,0.0173,0.016,0.0176,77,7.807,150,8.3233,-0.0523,-13.2856,-0.1688,0.0464,0.0557,51
8.672,167,8.1532,1.4571,-15.2436,0.0295,-0.0024,0.0137,77,7.859,151,8.4502,-0.2533,-13.2142,-0.2017,0.0125,0.056,51
8.724,168,8.1381,1.4997,-15.1874,0.0244,-0.0155,0.0028,77,7.911,152,8.4993,-0.2998,-13.2979,-0.14,-0.0182,0.0305,51
8.776,169,8.0756,1.491,-15.1079,0.023,-0.0142,-0.0147,77,7.963,153,8.4635,-0.1709,-13.3328,-0.0744,-0.0032,0.0039,51
8.827,170,8.0096,1.4831,-15.0719,0.0139,-0.007,-0.0232,77,8.015,154,8.407,0.1044,-13.2985,-0.0297,-0.0039,-0.0028,51
8.879,171,8.0178,1.439,-15.1018,0.0016,0.0017,-0.0165,77,8.066,155,8.3912,0.1058,-13.269,-0.0115,-0.0163,0.0076,51
8.931,172,8.0592,1.4041,-15.1623,-0.0042,0.0018,-0.002,77,8.118,156,8.4047,0.0526,-13.2806,-0.0249,-0.0477,0.0143,51
8.983,173,8.0912,1.3757,-15.2014,0.002,-0.0043,0.0041,77,8.17,157,8.4108,0.0127,-13.2859,0.0019,-0.0591,0.0059,51
9.035,174,8.0499,1.3872,-15.2032,0.0119,-0.0159,0.0042,77,8.222,158,8.3845,0.0029,-13.3104,0.0191,-0.0504,0.0045,51
9.086,175,8.0023,1.388,-15.1608,0.014,-0.0192,0.0063,77,8.274,159,8.3875,-0.0334,-13.3484,0.0122,-0.0418,0.0098,51
9.138,176,7.9755,1.3948,-15.1095,0.009,-0.0142,0.0151,77,8.325,160,8.3569,-0.0099,-13.3374,0.0187,-0.021,0.0032,51
9.19,177,8.0156,1.4107,-15.1217,0.0101,-0.0079,0.0293,77,8.377,161,8.3578,0.0028,-13.3597,0.0068,-0.0077,0.0064,51
9.242,178,8.091,1.4313,-15.1754,0.0109,-0.0028,0.0373,77,8.429,162,8.3664,0.0264,-13.3455,-0.0086,-0.0066,0.0176,51
9.294,179,8.1485,1.4367,-15.2069,0.0011,-0.004,0.0325,77,8.481,163,8.364,-0.0405,-13.3301,-0.0474,0.0001,0.0357,51
9.345,180,8.1346,1.465,-15.1749,-0.0011,-0.0135,0.0226,77,8.533,164,8.3465,-0.0921,-13.3301,-0.0347,-0.007,0.0229,51
9.397,181,8.093,1.4715,-15.1161,-0.0196,-0.0142,0.0181,77,8.584,165,8.3625,-0.13,-13.3699,0.0034,-0.0011,-0.0052,51
9.449,182,8.0795,1.4538,-15.092,-0.0202,-0.0046,0.0144,77,8.636,166,8.3538,-0.0445,-13.3762,0.0258,0.0023,-0.011,51
9.501,183,8.0879,1.4692,-15.0949,-0.0149,0.0046,0.0127,77,8.688,167,8.3465,0.0112,-13.3601,0.0111,0.0061,0.0046,51
9.553,184,7.9058,1.5725,-15.0637,-0.0228,0.006,0.0213,77,8.74,168,8.3302,0.0161,-13.3508,-0.0379,0.0072,0.0189,51
9.604,185,7.2366,1.4721,-15.1101,-0.0808,-0.016,0.0714,77,8.792,169,8.3608,-0.1031,-13.3404,-0.0629,0.0029,0.0239,51
9.656,186,6.2327,1.3212,-14.9619,-0.1696,-0.0416,0.1187,77,8.843,170,8.3468,-0.1044,-13.3695,-0.0316,0.0025,0.0002,51
9.708,187,4.6453,1.0287,-14.4432,-0.1467,-0.0114,0.1524,77,8.895,171,8.3521,0.0102,-13.3601,-0.0011,-0.0021,-0.023,51
9.76,188,3.9075,1.0734,-14.3425,0.1923,0.2454,0.1462,77,8.947,172,8.359,-0.0146,-13.349,-0.0123,0.0046,-0.0144,51
9.812,189,4.9519,1.3305,-14.1883,-0.0054,0.8096,-0.0025,77,8.999,173,8.3589,-0.0702,-13.3177,-0.0194,-0.0017,-0.0209,51
9.863,190,7.9247,0.633,-15.1022,0.1316,1.2693,-0.121,77,9.051,174,8.3712,-0.0957,-13.3767,0.0038,-0.0187,-0.03,51
9.915,191,11.0496,2.8607,-8.6482,0.1033,1.6047,0.0844,77,9.102,175,8.3044,-0.0766,-13.3812,0.0715,0.008,-0.0726,51
9.967,192,7.6737,1.9649,-7.8333,-0.5059,1.8495,0.2267,77,9.154,176,8.3194,0.0056,-13.4248,0.0955,-0.006,-0.0631,51
10.019,193,7.3651,2.2383,-8.2478,-0.8205,1.0357,0.1343,77,9.206,177,8.3594,0.0066,-13.4728,0.1289,0.0054,-0.0604,51
10.071,194,8.419,1.6692,-9.1303,-1.1161,0.1861,0.0857,77,9.258,178,8.3577,-0.006,-13.4581,0.1971,0.0409,-0.0747,51
10.122,195,8.5207,1.2196,-9.8694,-0.7578,-0.0859,0.0616,77,9.31,179,8.3967,0.0209,-13.4793,0.2139,0.0751,-0.071,51
10.174,196,8.5347,0.902,-10.9094,-0.2556,-0.1204,-0.1022,77,9.361,180,8.3983,-0.0737,-13.4206,0.2407,0.1212,-0.0718,51
10.226,197,8.6015,0.7507,-11.6293,0.3345,-0.2447,-0.2108,77,9.413,181,8.4138,0.003,-13.2484,0.2578,0.1253,-0.0845,51
10.278,198,8.8562,0.674,-11.7673,0.6292,-0.525,-0.1525,77,9.465,182,8.4082,0.0713,-13.1983,0.2253,0.1054,-0.0529,51
10.33,199,9.3253,1.3627,-9.9309,0.1623,-0.3985,0.0075,77,9.517,183,8.4003,-0.1125,-13.1515,0.1999,0.0884,-0.0533,51
10.381,200,10.0822,2.2203,-10.349,-0.0348,-0.2068,0.0157,77,9.569,184,8.7967,0.0431,-13.3904,0.1619,0.0931,-0.0281,51
10.433,201,9.9071,2.356,-10.4955,0.0659,-0.0155,0.0233,77,9.62,185,8.8831,-0.0774,-13.3615,0.0974,0.3067,-0.0358,51
