right_leg_timestamp,right_leg_index,right_leg_accel_x,right_leg_accel_y,right_leg_accel_z,right_leg_gyro_x,right_leg_gyro_y,right_leg_gyro_z,right_leg_battery_percentage,left_leg_timestamp,left_leg_index,left_leg_accel_x,left_leg_accel_y,left_leg_accel_z,left_leg_gyro_x,left_leg_gyro_y,left_leg_gyro_z,left_leg_battery_percentage
0.051,0,11.0405,3.1379,-17.0478,0.7017,-1.8581,-0.7897,86,0.052,0,8.9035,0.7908,-11.6361,0.2015,0.1066,-0.0276,51
0.102,1,9.5151,3.7085,-16.6157,1.1182,-2.0295,-0.4371,86,0.103,1,8.7865,0.979,-11.3139,0.1163,0.0582,0.005,51
0.154,2,7.9579,3.9435,-15.5918,1.2984,-2.1546,-0.1226,86,0.155,2,9.4477,0.6624,-12.2062,-0.1413,-0.048,0.1008,51
0.206,3,5.9388,3.401,-14.8421,1.1975,-2.1274,-0.0177,86,0.207,3,9.3649,0.8469,-12.0697,-0.185,0.1391,0.1493,51
0.258,4,3.9495,2.8929,-14.3789,1.0114,-1.7552,-0.0268,86,0.259,4,9.119,0.9563,-11.4699,-0.0666,0.1368,0.1486,51
0.31,5,2.5928,2.6916,-14.5314,0.4512,-1.11,-0.0886,86,0.311,5,8.9194,0.769,-11.4838,-0.152,0.1262,0.0926,51
0.361,6,1.4277,1.683,-15.2067,0.1038,-0.4693,-0.1251,86,0.362,6,8.8527,0.6328,-11.2371,-0.2481,0.1144,-0.0208,51
0.413,7,0.4066,1.3195,-16.7242,-0.0507,-0.0578,-0.1666,86,0.414,7,8.876,0.8045,-11.1384,-0.2348,0.0672,-0.107,51
0.465,8,-0.0716,1.266,-18.1102,-0.1948,0.1272,-0.1635,86,0.466,8,8.8837,0.9953,-11.1294,-0.1961,0.0323,-0.1466,51
0.517,9,-0.277,0.8721,-18.7324,-0.1964,0.1277,-0.1048,86,0.518,9,8.8821,1.0766,-11.1889,-0.1959,0.0215,-0.1509,51
0.569,10,-0.4648,0.6726,-18.9088,-0.0945,0.0509,-0.0251,86,0.569,10,8.8952,1.1427,-11.1598,-0.1187,0.033,-0.1257,51
0.62,11,-0.5334,0.9446,-18.9248,-0.138,0.0988,0.1006,86,0.621,11,8.8598,1.3011,-11.0661,-0.0195,0.019,-0.1043,51
0.672,12,-0.6739,1.1536,-19.0493,-0.0792,0.2333,0.1965,86,0.673,12,8.821,1.4231,-11.0533,0.0014,-0.0007,-0.0825,51
0.724,13,-1.0917,1.0067,-19.2842,-0.0232,0.3121,0.2615,86,0.725,13,8.8257,1.4177,-11.0679,-0.011,-0.0048,-0.058,51
0.776,14,-1.2253,0.9151,-19.5322,0.0132,0.2735,0.2361,86,0.777,14,8.8304,1.4125,-11.0574,-0.0136,0.0015,-0.0237,51
0.827,15,-1.1127,0.9931,-19.359,0.0432,0.191,0.1965,86,0.828,15,8.8202,1.3746,-11.0089,-0.0127,0.0146,0.0086,51
0.879,16,-0.9687,1.2333,-19.5256,0.1701,0.1255,0.1536,86,0.88,16,8.8125,1.3367,-10.9581,-0.0204,0.0115,0.0192,51
0.931,17,-0.8517,1.588,-19.6778,0.1563,0.1132,0.1487,86,0.932,17,8.8146,1.2978,-10.9388,-0.0187,0.0065,0.0067,51
0.983,18,-0.7614,1.646,-19.8058,0.1389,0.0875,0.1401,86,0.984,18,8.8226,1.3135,-10.9443,-0.0206,-0.0008,-0.0076,51
1.035,19,-0.5773,1.8171,-19.7681,0.109,0.0575,0.0923,86,1.035,19,8.8374,1.2941,-10.9747,-0.0379,-0.0017,-0.0092,51
1.086,20,-0.4834,1.7826,-19.6882,0.0993,0.0673,0.0383,86,1.087,20,8.836,1.3181,-10.9763,-0.027,0.0002,-0.0142,51
1.138,21,-0.42,1.5855,-19.586,0.0468,0.0882,-0.0009,86,1.139,21,8.8434,1.3284,-10.9817,-0.0115,0.0044,-0.0095,51
1.19,22,-0.3642,1.3174,-19.5792,0.0424,0.1212,-0.0132,86,1.191,22,8.8462,1.3483,-10.9634,-0.0118,0.0126,0.0017,51
1.242,23,-0.3018,1.2489,-19.5208,-0.03,0.1537,-0.0268,86,1.243,23,8.8421,1.3209,-10.9529,-0.0061,0.0166,0.0179,51
1.294,24,-0.2128,1.1351,-19.677,-0.0346,0.1873,-0.024,86,1.294,24,8.8463,1.2979,-10.9511,-0.0049,0.0152,0.0227,51
1.345,25,-0.1003,1.1124,-19.7668,-0.0454,0.1896,-0.0159,86,1.346,25,8.8617,1.288,-10.9672,-0.0002,0.0102,0.0138,51
1.397,26,0.0039,1.1079,-19.8534,-0.0407,0.1715,-0.0014,86,1.398,26,8.8509,1.2968,-10.9685,0.0059,0.0113,0.0127,51
1.449,27,0.0819,1.0745,-19.8762,-0.0368,0.1329,0.0273,86,1.45,27,8.8512,1.2789,-10.9553,0.0133,0.0061,0.0083,51
1.501,28,0.1474,1.1862,-19.869,-0.007,0.0885,0.0401,86,1.502,28,8.8315,1.2514,-10.9269,0.0032,-0.0075,0.0005,51
1.553,29,0.2471,1.1848,-19.7995,-0.007,0.0618,0.0216,86,1.553,29,8.8406,1.2644,-10.9367,-0.0101,-0.014,-0.0078,51
1.604,30,0.3063,1.1799,-19.7357,0.0278,0.0614,-0.0187,86,1.605,30,8.8382,1.2589,-10.9474,-0.0239,-0.0183,-0.013,51
1.656,31,0.2776,1.241,-19.7313,0.0525,0.0709,-0.0616,86,1.657,31,8.8295,1.2644,-10.9598,-0.0345,-0.02,-0.0155,51
1.708,32,0.3048,1.2925,-19.7265,0.0182,0.0677,-0.094,86,1.709,32,8.8293,1.2846,-10.9858,-0.0352,-0.0201,-0.0153,51
1.76,33,0.339,1.2086,-19.7222,0.0199,0.0608,-0.115,86,1.761,33,8.8306,1.3021,-11.0246,-0.0285,-0.0094,-0.0023,51
1.812,34,0.2948,1.206,-19.7003,0.013,0.0525,-0.1243,86,1.812,34,8.8223,1.3102,-10.9909,-0.0141,-0.001,0.0053,51
1.863,35,0.2866,1.1573,-19.6653,0.0144,0.0483,-0.1259,86,1.864,35,8.8336,1.3015,-10.9803,-0.0152,0.0,0.0121,51
1.915,36,0.2868,1.1385,-19.6663,0.0214,0.0521,-0.119,86,1.916,36,8.8441,1.2905,-10.9702,-0.0307,-0.0007,0.0209,51
1.967,37,0.3228,1.0973,-19.6875,0.0067,0.0544,-0.1031,86,1.968,37,8.8357,1.2885,-10.9709,-0.0346,0.0025,0.0227,51
2.019,38,0.331,1.0525,-19.691,0.0074,0.0546,-0.0809,86,2.019,38,8.8361,1.2897,-10.9798,-0.0396,0.0025,0.0308,51
2.071,39,0.3771,1.0113,-19.678,0.0249,0.0519,-0.0591,86,2.071,39,8.8443,1.2724,-11.009,-0.0178,-0.0067,0.038,51
2.122,40,0.4166,1.0097,-19.6994,0.0461,0.0456,-0.0347,86,2.123,40,8.8293,1.2124,-10.9336,-0.0439,-0.0001,0.0465,51
2.174,41,0.4349,0.9556,-19.6887,0.0824,0.0363,-0.0175,86,2.175,41,8.8243,1.1744,-10.9052,-0.0664,-0.0205,0.0105,51
2.226,42,0.4677,0.9221,-19.7041,0.0491,0.0262,0.0001,86,2.226,42,8.8368,1.209,-10.9556,-0.0933,-0.0394,-0.02,51
2.278,43,0.5135,0.986,-19.6975,0.0593,0.0261,0.0128,86,2.278,43,8.8385,1.2288,-10.9915,-0.0837,-0.0234,-0.0143,51
2.33,44,0.4996,0.9934,-19.6884,0.0462,0.03,0.0326,86,2.33,44,8.8386,1.2509,-10.9656,-0.0569,-0.0221,-0.0163,51
2.381,45,0.5098,0.967,-19.6991,0.0319,0.0324,0.0455,86,2.382,45,8.8437,1.292,-10.9948,-0.0437,-0.0284,-0.0172,51
2.433,46,0.529,0.9109,-19.7169,0.0453,0.0277,0.0558,86,2.433,46,8.838,1.2949,-11.0028,-0.0342,-0.0215,-0.0168,51
2.485,47,0.5389,0.8798,-19.7221,0.0371,0.019,0.09,86,2.485,47,8.8366,1.3169,-11.0207,-0.0293,-0.0145,-0.0174,51
2.537,48,0.5459,0.8626,-19.7242,0.0044,0.0028,0.1521,86,2.537,48,8.8306,1.3158,-11.0181,-0.0163,-0.007,-0.0157,51
2.588,49,0.6656,0.8383,-19.7014,-0.0149,-0.0023,0.2143,86,2.589,49,8.8181,1.3087,-11.0274,-0.0097,-0.0073,-0.0065,51
2.64,50,0.735,0.8407,-19.6674,-0.0209,0.0051,0.2499,86,2.641,50,8.8217,1.2738,-11.0197,0.0139,-0.0115,-0.0092,51
2.692,51,0.7327,0.8532,-19.6389,-0.0211,0.0154,0.2487,86,2.692,51,8.8421,1.2357,-11.0287,0.0537,-0.0208,-0.0238,51
2.744,52,0.7051,0.9272,-19.6639,-0.0085,0.0224,0.2205,86,2.744,52,8.8508,1.2659,-11.0797,0.1445,-0.0362,-0.0502,51
2.796,53,0.6965,0.9905,-19.6536,-0.0146,0.0217,0.1742,86,2.796,53,8.8222,1.4384,-11.0751,0.1563,-0.0251,-0.0307,51
2.847,54,0.6903,0.9665,-19.63,-0.0073,0.0223,0.1293,86,2.848,54,8.791,1.3376,-11.0723,0.1152,-0.0145,-0.0071,51
2.899,55,0.6912,0.932,-19.6448,-0.0073,0.0247,0.085,86,2.899,55,8.79,1.3858,-11.069,0.0779,-0.0239,-0.0318,51
2.951,56,0.7203,0.9106,-19.6624,-0.0172,0.0241,0.0601,86,2.951,56,8.791,1.4117,-11.1311,0.045,-0.0198,-0.0435,51
3.003,57,0.7419,0.8849,-19.6715,-0.0058,0.0212,0.0438,86,3.003,57,8.7814,1.401,-11.1491,0.0398,-0.0116,-0.0535,51
3.055,58,0.7311,0.8552,-19.701,0.0009,0.0034,0.0448,86,3.055,58,8.776,1.4076,-11.1464,0.031,-0.0033,-0.0328,51
3.107,59,0.635,0.6628,-19.678,0.1126,-0.0394,0.0692,86,3.107,59,8.7723,1.3734,-11.133,0.0353,-0.0028,-0.0321,51
3.158,60,0.5377,0.6904,-19.7153,0.1792,-0.09,0.1111,86,3.159,60,8.7712,1.4726,-11.1144,0.0191,-0.008,-0.0374,51
3.21,61,0.4597,0.7221,-19.6952,0.1855,-0.1384,0.1247,86,3.21,61,8.7745,1.4301,-11.1392,-0.0171,-0.0016,-0.0245,51
3.262,62,0.4364,0.6067,-19.6911,0.1581,-0.183,0.1537,86,3.262,62,8.7628,1.4461,-11.076,-0.0325,-0.0023,-0.0234,51
3.314,63,0.5002,0.5562,-19.7137,0.1177,-0.2064,0.1675,86,3.314,63,8.7628,1.4883,-11.1234,-0.0779,-0.0174,-0.0105,51
3.366,64,0.5099,0.497,-19.621,0.0719,-0.194,0.181,86,3.366,64,8.767,1.4829,-11.1402,-0.0984,-0.0114,0.002,51
3.417,65,0.4532,0.4757,-19.5781,0.0684,-0.1518,0.188,86,3.417,65,8.7738,1.4526,-11.1357,-0.0937,-0.01,0.0081,51
3.469,66,0.3605,0.5355,-19.5903,0.0386,-0.0927,0.1788,86,3.469,66,8.7811,1.4797,-11.1358,-0.0967,-0.0239,0.0093,51
3.521,67,0.3571,0.5651,-19.6894,0.0322,-0.0514,0.1563,86,3.521,67,8.777,1.4747,-11.161,-0.0924,-0.0299,0.0066,51
3.573,68,0.2278,0.577,-19.7463,-0.0093,-0.0334,0.137,86,3.573,68,8.7838,1.4943,-11.1512,-0.0804,-0.0411,0.0059,51
3.625,69,0.1432,0.4817,-19.7139,-0.0194,-0.0398,0.1338,86,3.625,69,8.7798,1.4962,-11.1709,-0.0707,-0.0442,0.0127,51
3.676,70,0.1367,0.4424,-19.713,-0.0184,-0.045,0.1145,86,3.676,70,8.7694,1.4901,-11.1825,-0.0603,-0.0406,0.0137,51
3.728,71,0.1383,0.3784,-19.7012,-0.016,-0.0492,0.0938,86,3.728,71,8.7808,1.4723,-11.2318,-0.0466,-0.0354,0.0115,51
3.78,72,0.1139,0.3619,-19.7858,-0.0077,-0.044,0.0932,86,3.78,72,8.7549,1.4593,-11.2047,-0.0384,-0.0259,0.0026,51
3.832,73,0.1305,0.3542,-19.9612,-0.0097,-0.0545,0.0881,86,3.832,73,8.7737,1.4635,-11.2455,-0.0199,-0.0259,-0.0057,51
3.883,74,0.1346,0.3906,-19.9565,-0.0517,-0.1107,0.0737,86,3.883,74,8.7677,1.4466,-11.2453,0.0102,-0.0136,-0.003,51
3.935,75,0.0629,0.5117,-19.8779,-0.0322,-0.1603,0.0664,86,3.935,75,8.7606,1.4607,-11.2262,0.0281,-0.0156,-0.0113,51
3.987,76,-0.0434,0.6134,-19.6428,-0.0284,-0.1421,0.049,86,3.987,76,8.7785,1.5353,-11.2696,0.0402,-0.0148,-0.0022,51
4.039,77,-0.1181,0.6008,-19.4722,-0.0026,-0.098,0.0264,86,4.039,77,8.7729,1.5326,-11.2211,0.0473,-0.0078,0.0185,51
4.091,78,-0.1915,0.5526,-19.4254,0.0227,-0.0183,0.0097,86,4.091,78,8.8033,1.5219,-11.33,0.0708,-0.0067,0.0461,51
4.142,79,-0.2141,0.4599,-19.4885,0.0209,0.0436,0.0031,86,4.142,79,8.7898,1.4987,-11.2892,0.0837,0.0148,0.0705,51
4.194,80,-0.1228,0.402,-19.6835,0.029,0.0766,-0.003,86,4.194,80,8.812,1.373,-11.2398,0.0747,0.0037,0.0721,51
4.246,81,-0.1165,0.395,-19.7832,0.0152,0.0896,-0.0087,86,4.246,81,8.8257,1.3197,-11.2617,0.0615,-0.0067,0.0439,51
4.298,82,-0.118,0.3869,-19.7498,0.0276,0.0744,-0.0123,86,4.298,82,8.8294,1.3169,-11.2953,0.039,0.0038,0.0416,51
4.35,83,-0.0969,0.4269,-19.7331,0.0346,0.0696,-0.0424,86,4.349,83,8.8037,1.2872,-11.2623,0.0292,0.0132,0.0383,51
4.401,84,-0.1423,0.3335,-19.7192,0.0577,0.0569,-0.0995,86,4.401,84,8.7941,1.2835,-11.2568,0.0155,0.002,0.025,51
4.453,85,-0.1162,0.3632,-19.7777,0.09,0.027,-0.19,86,4.453,85,8.8046,1.2512,-11.2929,-0.0111,0.0021,0.0257,51
4.505,86,-0.0971,0.4715,-19.7867,0.0829,0.0066,-0.2759,86,4.505,86,8.7953,1.2357,-11.2727,-0.0499,0.0011,0.0156,51
4.557,87,-0.0052,0.4623,-19.7621,0.0544,-0.0088,-0.316,86,4.557,87,8.7946,1.3118,-11.2925,-0.1031,-0.0096,0.0148,51
4.609,88,0.1026,0.3192,-19.7179,0.0099,-0.0162,-0.3159,86,4.609,88,8.8066,1.2694,-11.2903,-0.1079,0.012,0.0148,51
4.66,89,0.1913,0.2039,-19.6479,-0.0234,0.0012,-0.2639,86,4.66,89,8.8095,1.3021,-11.3374,-0.0803,0.0306,0.0112,51
4.712,90,0.1346,0.0624,-19.5948,-0.0365,0.0349,-0.1779,86,4.712,90,8.7938,1.3306,-11.3166,-0.0504,0.0625,0.0234,51
4.764,91,0.1536,0.0283,-19.644,-0.0145,0.0635,-0.0804,86,4.764,91,8.7545,1.1926,-11.1484,0.0259,0.0648,0.0237,51
4.816,92,0.168,0.1342,-19.6984,-0.0267,0.0808,0.0119,86,4.816,92,8.7787,1.1954,-11.1215,0.0845,0.054,-0.009,51
4.867,93,0.1692,0.1378,-19.7539,-0.0272,0.0889,0.0943,86,4.867,93,8.8199,1.2704,-11.1229,0.0999,0.0522,-0.0073,51
4.919,94,0.0983,0.0238,-19.727,-0.016,0.0922,0.144,86,4.919,94,8.8139,1.2835,-11.0944,0.1043,0.0527,-0.0001,51
4.971,95,-0.1473,-0.0561,-19.7006,0.0351,0.0948,0.1724,86,4.971,95,8.8078,1.2861,-11.1291,0.0958,0.0679,0.0237,51
5.023,96,-0.2225,-0.021,-19.7102,0.0395,0.0748,0.19,86,5.023,96,8.8363,1.1238,-11.0578,0.1023,0.0441,0.005,51
5.075,97,0.0455,0.1053,-19.7985,0.0791,0.0164,0.208,86,5.074,97,8.8422,1.2453,-11.0885,0.0627,0.029,-0.0013,51
5.126,98,0.2939,0.3798,-19.8401,0.0782,0.0219,0.1901,86,5.126,98,8.807,1.1873,-11.0057,0.0125,0.0044,0.0169,51
5.178,99,0.5017,0.4888,-19.7488,0.0161,0.0293,0.186,86,5.178,99,8.8151,1.1352,-11.0191,0.0213,-0.0142,-0.0058,51
5.23,100,0.7172,0.3463,-19.7705,0.0048,-0.0031,0.1606,86,5.23,100,8.8313,1.1685,-11.0493,0.0462,-0.0238,-0.0203,51
5.282,101,0.822,0.3084,-19.6937,-0.0545,0.0292,0.0977,86,5.281,101,8.8154,1.1543,-11.1047,0.0506,-0.0224,-0.0184,51
5.334,102,0.7099,0.3709,-19.7908,-0.1459,0.0627,0.0684,86,5.333,102,8.8246,1.1842,-11.1373,0.0497,-0.0116,-0.0146,51
5.385,103,0.5669,0.2115,-19.9865,-0.3799,0.0122,0.0917,86,5.385,103,8.8257,1.1866,-11.1704,0.053,-0.0067,-0.0113,51
5.437,104,0.2236,0.5366,-20.1899,-0.4938,-0.084,0.164,86,5.437,104,8.8026,1.2065,-11.1783,0.056,0.0039,-0.0132,51
5.489,105,0.2096,1.041,-20.0498,-0.5823,-0.2559,0.1799,86,5.489,105,8.8081,1.2081,-11.1359,0.0755,0.0251,0.0033,51
5.541,106,0.3242,1.1805,-19.7521,-0.5782,-0.3839,0.2347,86,5.54,106,8.7802,1.2479,-11.0933,0.0707,0.0204,0.0184,51
5.593,107,0.3221,1.2873,-19.4561,-0.357,-0.377,0.2392,86,5.592,107,8.8371,1.2119,-11.1569,0.0292,0.0146,0.0375,51
5.644,108,0.2801,1.7097,-19.3235,-0.3208,-0.2913,0.2564,86,5.644,108,8.8408,1.1294,-11.1099,-0.0118,0.011,0.0349,51
5.696,109,0.081,1.6653,-19.3075,-0.2787,-0.1591,0.2367,86,5.696,109,8.8403,1.1263,-11.1249,-0.0453,-0.0006,-0.0067,51
5.748,110,-0.2549,1.9319,-19.3803,-0.2095,-0.0551,0.1924,86,5.747,110,8.8204,1.2152,-11.1394,-0.0726,0.0104,-0.0151,51
5.8,111,-0.4537,2.0406,-19.4224,-0.2064,-0.0288,0.1431,86,5.799,111,8.8352,1.227,-11.1314,-0.0843,0.0454,-0.0044,51
5.852,112,-0.4224,2.2532,-19.4485,-0.1924,-0.0447,0.081,86,5.851,112,8.8522,1.1776,-11.0504,-0.116,0.0554,0.0083,51
5.904,113,-0.3786,2.3944,-19.4315,-0.1853,-0.0429,0.0167,86,5.903,113,8.848,1.1624,-11.0021,-0.0914,0.0374,-0.0062,51
5.955,114,-0.2266,2.6062,-19.4015,-0.1752,-0.0364,-0.0648,86,5.955,114,8.8412,1.1976,-10.9824,-0.0852,0.0106,-0.0216,51
6.007,115,-0.1738,2.4906,-19.4394,-0.1922,0.0053,-0.123,86,6.006,115,8.8493,1.1809,-11.0086,-0.0941,0.0097,-0.0076,51
6.059,116,-0.1636,2.3358,-19.4157,-0.1952,0.033,-0.1699,86,6.058,116,8.8547,1.1297,-10.9331,-0.0581,0.0066,-0.0202,51
6.111,117,-0.1562,2.1976,-19.3616,-0.1717,0.067,-0.1967,86,6.11,117,8.8527,1.1747,-10.954,-0.0299,-0.0139,-0.0431,51
6.162,118,-0.1638,2.2298,-19.3387,-0.1364,0.1047,-0.1682,86,6.162,118,8.8386,1.1642,-10.9544,0.045,-0.0106,-0.0499,51
6.214,119,-0.129,2.2403,-19.443,-0.082,0.1284,-0.1214,86,6.214,119,8.7968,1.2648,-10.9655,0.0699,-0.0214,-0.0528,51
6.266,120,-0.0096,2.2025,-19.5007,0.0465,0.1501,-0.0928,86,6.265,120,8.8111,1.3212,-10.9731,0.0347,-0.0419,-0.0343,51
6.318,121,0.075,2.5205,-19.576,0.0637,0.1641,-0.063,86,6.317,121,8.8126,1.3535,-10.9428,0.0014,-0.0527,-0.0266,51
6.37,122,0.0435,2.4793,-19.4895,0.085,0.1761,-0.0346,86,6.369,122,8.8309,1.3518,-11.0424,-0.0711,-0.0656,-0.0107,51
6.421,123,-0.0385,2.5466,-19.3985,0.0777,0.1825,-0.0138,86,6.421,123,8.8245,1.3122,-11.0619,-0.1091,-0.0523,0.0022,51
6.473,124,-0.0518,2.5504,-19.3834,0.052,0.1781,0.0076,86,6.472,124,8.8179,1.2962,-11.0952,-0.087,-0.0437,0.0017,51
6.525,125,-0.0169,2.6191,-19.4721,0.0417,0.1637,0.0229,86,6.524,125,8.8216,1.2936,-11.0988,-0.0707,-0.0274,-0.012,51
6.577,126,0.0913,2.6225,-19.509,-0.0034,0.1132,0.0367,86,6.576,126,8.7907,1.2534,-10.9723,-0.087,-0.049,-0.0387,51
6.629,127,0.2758,2.6271,-19.4305,0.0058,0.0835,0.0195,86,6.628,127,8.8432,1.3838,-11.3734,-0.0453,-0.0569,-0.0769,51
6.68,128,0.3388,2.6547,-19.2993,-0.0134,0.0998,0.0056,86,6.68,128,8.7947,1.4314,-11.2754,-0.048,-0.0279,-0.0428,51
6.732,129,0.4673,2.52,-19.2014,-0.1364,0.1486,0.0065,86,6.731,129,8.7725,1.3729,-11.3124,-0.0032,-0.0153,-0.023,51
6.784,130,0.5688,2.4812,-19.3083,-0.1134,0.1986,-0.0124,86,6.783,130,8.7861,1.4514,-11.2775,-0.0173,-0.0118,-0.0029,51
6.836,131,0.7187,2.5556,-19.4651,-0.1314,0.2024,-0.0702,86,6.835,131,8.7913,1.4165,-11.2901,-0.0227,0.0036,0.0124,51
6.888,132,0.7148,2.493,-19.5233,-0.0597,0.1918,-0.1464,86,6.887,132,8.7663,1.4291,-11.2469,-0.0174,0.0138,0.0215,51
6.939,133,0.6719,2.4626,-19.5101,-0.0082,0.1616,-0.2017,86,6.938,133,8.7864,1.4024,-11.2528,-0.0149,0.0149,0.0271,51
6.991,134,0.274,2.3334,-19.5267,0.1332,0.1563,-0.2754,86,6.99,134,8.787,1.4249,-11.1959,-0.0042,0.0213,0.0281,51
7.043,135,0.2327,2.3784,-19.4631,0.1169,0.0743,-0.3132,86,7.042,135,8.7668,1.4454,-11.1772,-0.0078,0.0205,0.0161,51
7.094,136,0.377,2.3601,-19.5072,0.1868,0.0285,-0.2973,86,7.094,136,8.7762,1.4189,-11.178,-0.0119,0.0142,-0.0023,51
7.146,137,0.6233,2.5652,-19.5007,0.1454,-0.0047,-0.2593,86,7.146,137,8.7873,1.4602,-11.1602,-0.0086,0.0083,-0.0199,51
7.198,138,0.8401,2.5806,-19.4819,0.1073,-0.0073,-0.1746,86,7.197,138,8.7943,1.4409,-11.1688,0.001,0.0046,-0.0267,51
7.25,139,0.9581,2.5349,-19.4545,0.0247,-0.0005,-0.0891,86,7.249,139,8.7836,1.442,-11.1496,0.0161,0.0035,-0.034,51
7.302,140,0.9761,2.4066,-19.4176,0.0083,0.0148,-0.0312,86,7.301,140,8.778,1.4713,-11.1375,0.0256,0.0003,-0.039,51
7.354,141,0.9461,2.4175,-19.3659,-0.0189,0.0383,0.006,86,7.353,141,8.7684,1.4964,-11.1459,0.0257,-0.0056,-0.039,51
7.405,142,0.9475,2.4337,-19.3163,-0.0465,0.0618,0.0267,86,7.405,142,8.7603,1.5025,-11.1854,0.035,-0.0083,-0.0396,51
7.457,143,0.9555,2.4293,-19.3913,-0.0486,0.08,0.0316,86,7.457,143,8.7056,1.6746,-11.1458,0.0676,0.0005,-0.0413,51
7.509,144,0.9334,2.4379,-19.4038,-0.0492,0.086,0.027,86,7.508,144,8.7023,1.6785,-11.1389,0.0466,0.0016,-0.0166,51
7.561,145,0.9115,2.4541,-19.3973,-0.0291,0.0927,0.0255,86,7.56,145,8.7203,1.6386,-11.1303,0.0399,0.006,-0.0056,51
7.612,146,0.938,2.5365,-19.4086,-0.0301,0.09,0.0318,86,7.612,146,8.7414,1.6092,-11.1537,0.0233,0.0056,0.0079,51
7.664,147,0.961,2.5529,-19.4473,-0.0208,0.0805,0.0267,86,7.664,147,8.7524,1.5421,-11.1636,0.0161,0.0157,0.0161,51
7.716,148,0.9563,2.6217,-19.4493,-0.0147,0.071,0.0193,86,7.715,148,8.7647,1.5346,-11.1788,0.0185,0.0238,0.0258,51
7.768,149,0.9531,2.643,-19.3941,-0.0059,0.0541,0.0235,86,7.767,149,8.7706,1.4897,-11.1516,0.019,0.0417,0.0387,51
7.82,150,0.9556,2.6302,-19.3999,-0.0151,0.0414,0.0305,86,7.819,150,8.7787,1.4557,-11.1146,0.0183,0.0405,0.0322,51
7.871,151,0.9691,2.5763,-19.3386,-0.0074,0.0404,0.0233,86,7.871,151,8.8045,1.4177,-11.1131,-0.0041,0.0335,0.0289,51
7.923,152,0.9682,2.5469,-19.325,-0.0054,0.0367,0.0319,86,7.923,152,8.8042,1.4046,-11.0844,-0.0241,0.0341,0.033,51
7.975,153,1.0426,2.5407,-19.3388,-0.005,0.0379,0.0383,86,7.974,153,8.8107,1.3897,-11.0601,-0.0252,0.0357,0.0327,51
8.027,154,1.0999,2.5533,-19.3629,-0.0187,0.0313,0.0545,86,8.026,154,8.8164,1.3982,-11.0367,-0.0239,0.0335,0.03,51
8.079,155,1.1504,2.5092,-19.3738,-0.003,0.0242,0.06,86,8.078,155,8.8178,1.3864,-11.0257,-0.0236,0.0343,0.0294,51
8.13,156,1.1464,2.5026,-19.3146,0.009,0.0132,0.0533,86,8.13,156,8.8259,1.3549,-10.993,-0.008,0.0372,0.0231,51
8.182,157,1.1907,2.494,-19.2866,0.013,0.0078,0.0469,86,8.182,157,8.8158,1.3519,-10.9615,0.0084,0.0301,0.0075,51
8.234,158,1.2726,2.5086,-19.3268,0.0173,0.0152,0.0346,86,8.233,158,8.8119,1.3737,-10.9642,0.022,0.0202,-0.0016,51
8.286,159,1.3379,2.5179,-19.3326,0.0208,0.0228,0.0226,86,8.285,159,8.8127,1.3595,-10.927,0.0369,0.0183,-0.0036,51
8.338,160,1.3687,2.545,-19.3366,0.0247,0.028,0.0047,86,8.337,160,8.8149,1.3632,-10.9269,0.0469,0.0049,-0.0093,51
8.389,161,1.3726,2.5411,-19.3285,0.0337,0.036,-0.0149,86,8.389,161,8.8185,1.3924,-10.9296,0.0462,-0.0016,-0.0083,51
8.441,162,1.3752,2.5698,-19.3225,0.0308,0.0375,-0.032,86,8.441,162,8.8177,1.4131,-10.9426,0.0245,0.0015,0.0037,51
8.493,163,1.3767,2.5629,-19.3017,0.0308,0.0406,-0.0441,86,8.492,163,8.8142,1.3914,-10.9619,-0.005,0.0043,0.0204,51
8.545,164,1.3912,2.5545,-19.2941,0.0268,0.0487,-0.0539,86,8.544,164,8.8183,1.3422,-10.9458,-0.0082,0.0099,0.0253,51
8.596,165,1.4249,2.5371,-19.2878,0.0253,0.0577,-0.056,86,8.596,165,8.8083,1.3166,-10.9287,-0.0029,0.0008,0.0138,51
8.648,166,1.4432,2.5575,-19.3002,0.0291,0.0596,-0.0419,86,8.648,166,8.8185,1.3348,-10.9209,-0.0142,-0.0065,0.0056,51
8.7,167,1.4779,2.5987,-19.3383,0.0168,0.0627,-0.0328,86,8.7,167,8.8281,1.3203,-10.9425,-0.0313,-0.0055,0.014,51
8.752,168,1.4982,2.5929,-19.354,0.0159,0.062,-0.042,86,8.752,168,8.8014,1.2923,-10.9109,-0.0386,-0.0101,0.0167,51
8.804,169,1.4872,2.5782,-19.3159,0.0062,0.0566,-0.0621,86,8.803,169,8.8112,1.2898,-10.9622,-0.0463,-0.019,0.0206,51
8.856,170,1.4533,2.5151,-19.3041,-0.0016,0.0563,-0.0757,86,8.855,170,8.8163,1.2583,-10.9476,-0.0497,-0.0235,0.0277,51
8.907,171,1.4319,2.4789,-19.3242,-0.007,0.0522,-0.0798,86,8.907,171,8.8348,1.2123,-10.9632,-0.0332,-0.028,0.0218,51
8.959,172,1.4493,2.463,-19.3662,-0.0243,0.0373,-0.0722,86,8.959,172,8.8333,1.1902,-10.9428,-0.0122,-0.0462,-0.0014,51
9.011,173,1.4725,2.4575,-19.3713,-0.0431,0.0177,-0.0377,86,9.01,173,8.8662,1.2128,-11.0033,0.0178,-0.0581,-0.0201,51
9.063,174,1.4859,2.4372,-19.3606,-0.0627,-0.0067,0.0163,86,9.062,174,8.8575,1.2043,-11.003,0.0321,-0.0511,-0.0267,51
9.114,175,1.4601,2.4652,-19.3663,-0.0615,-0.0271,0.0748,86,9.114,175,8.8491,1.2827,-11.0923,0.0104,-0.0572,-0.0331,51
9.166,176,1.4713,2.5142,-19.3349,-0.0537,-0.0364,0.1386,86,9.166,176,8.8523,1.3245,-11.1621,-0.0044,-0.0396,-0.0235,51
9.218,177,1.475,2.5479,-19.3121,-0.0428,-0.0487,0.1852,86,9.218,177,8.8471,1.3192,-11.127,-0.0065,-0.0256,-0.0249,51
9.27,178,1.492,2.6161,-19.288,-0.0437,-0.053,0.2036,86,9.269,178,8.8096,1.3516,-11.1744,-0.0193,-0.0224,-0.0205,51
9.322,179,1.5341,2.6326,-19.269,-0.0352,-0.0432,0.209,86,9.321,179,8.8044,1.3423,-11.1656,-0.0361,-0.0154,-0.0025,51
9.373,180,1.5137,2.683,-19.2556,-0.0517,-0.0262,0.2106,86,9.373,180,8.8011,1.3272,-11.157,-0.0293,-0.018,-0.0107,51
9.425,181,1.4314,2.6722,-19.2741,-0.0413,-0.0163,0.214,86,9.425,181,8.8092,1.3354,-11.1738,0.0028,-0.017,-0.0291,51
9.477,182,1.5029,2.6876,-19.2889,-0.0468,-0.0256,0.2155,86,9.477,182,8.8236,1.3916,-11.1998,0.0288,-0.0136,-0.0255,51
9.529,183,1.5026,2.5626,-19.2449,-0.0415,-0.0426,0.2117,86,9.528,183,8.8161,1.3708,-11.1686,0.0415,-0.0095,-0.0329,51
9.581,184,1.5477,2.591,-19.2135,-0.0465,-0.048,0.2149,86,9.58,184,8.8069,1.3766,-11.184,0.0693,-0.0139,-0.0656,51
9.632,185,1.6961,2.6881,-19.1955,-0.0476,-0.0439,0.1941,86,9.632,185,8.7607,1.462,-11.2097,0.0475,-0.0254,-0.0896,51
9.684,186,1.7229,2.7589,-19.2084,-0.029,-0.0437,0.1561,86,9.683,186,8.7898,1.5035,-11.29,0.0252,-0.0221,-0.0762,51
9.736,187,1.7386,2.7436,-19.2027,-0.026,-0.0384,0.1213,86,9.735,187,8.7665,1.525,-11.2425,0.0243,-0.016,-0.068,51
9.788,188,1.759,2.7263,-19.1715,-0.0299,-0.0269,0.0883,86,9.787,188,8.7544,1.5467,-11.2798,0.0146,-0.0188,-0.0627,51
9.84,189,1.6987,2.6587,-19.1856,-0.0161,-0.0029,0.0556,86,9.839,189,8.7478,1.5673,-11.2948,0.0092,-0.0116,-0.0517,51
9.891,190,1.677,2.7327,-19.2222,-0.0181,0.0099,0.0192,86,9.891,190,8.7373,1.5856,-11.2671,-0.0004,-0.0108,-0.0556,51
9.943,191,1.6491,2.8024,-19.2843,-0.0075,0.006,-0.0169,86,9.942,191,8.7239,1.622,-11.2881,-0.0066,-0.0121,-0.0578,51
9.995,192,1.6339,2.7495,-19.3081,-0.0091,-0.0184,-0.0609,86,9.994,192,8.7215,1.6566,-11.2837,-0.0124,-0.0056,-0.0443,51
10.047,193,1.6287,2.7022,-19.211,-0.0139,-0.0339,-0.0746,86,10.046,193,8.7228,1.6659,-11.2678,-0.0178,-0.0037,-0.0406,51
10.099,194,1.6218,2.7014,-19.1766,-0.0217,-0.0234,-0.0643,86,10.098,194,8.7322,1.6909,-11.2766,-0.0261,-0.0072,-0.0337,51
10.151,195,1.6055,2.6667,-19.1783,-0.0101,-0.0127,-0.0589,86,10.15,195,8.7407,1.673,-11.2867,-0.0215,0.0021,-0.0226,51
10.202,196,1.5802,2.6812,-19.1731,-0.0077,-0.0078,-0.0464,86,10.201,196,8.7011,1.7345,-11.1558,0.0182,0.011,-0.0302,51
10.254,197,1.5546,2.6833,-19.1922,-0.0015,-0.0023,-0.0407,86,10.253,197,8.7309,1.6531,-11.2415,0.0596,0.0078,-0.0436,51
10.306,198,1.5361,2.7075,-19.192,0.004,-0.0029,-0.0303,86,10.305,198,8.6416,1.8338,-11.1379,0.0505,0.0051,-0.0455,51
10.358,199,1.5299,2.7016,-19.1588,0.0172,0.003,-0.0146,86,10.357,199,8.645,1.8025,-11.2646,0.0075,-0.0015,-0.0099,51
10.41,200,1.5221,2.7469,-19.213,0.014,0.0118,0.0007,86,10.409,200,8.6712,1.7518,-11.2428,0.0013,0.0112,-0.0155,51
10.461,201,1.4981,2.8072,-19.2734,0.0062,0.0108,0.0227,86,10.46,201,8.6792,1.7892,-11.2584,-0.0165,0.0053,-0.0213,51
10.513,202,1.4909,2.8038,-19.2742,-0.0134,-0.0067,0.045,86,10.512,202,8.6864,1.7941,-11.3028,-0.0288,0.0173,-0.0091,51
10.565,203,1.5169,2.747,-19.2768,-0.0084,-0.025,0.0539,86,10.564,203,8.6885,1.7953,-11.2634,-0.0043,0.0341,-0.0005,51
10.617,204,1.5726,2.8063,-19.2112,0.0056,-0.0216,0.0373,86,10.616,204,8.6845,1.7973,-11.2623,0.0048,0.0274,-0.0087,51
10.668,205,1.592,2.8046,-19.1549,0.0232,-0.0081,0.0203,86,10.667,205,8.7287,1.8444,-11.2368,0.0278,0.0494,0.0166,51
10.72,206,1.6245,2.8107,-19.1497,0.028,0.0187,-0.0104,86,10.719,206,8.747,1.5776,-11.1899,0.0305,0.0511,0.0548,51
10.772,207,1.5892,2.7396,-19.1894,0.0335,0.0474,-0.0383,86,10.771,207,8.7261,1.68,-11.1204,0.0601,0.0349,0.0544,51
10.824,208,1.5594,2.6919,-19.2211,0.0359,0.0522,-0.0615,86,10.823,208,8.7275,1.7232,-11.146,0.0537,0.0076,0.0625,51
10.876,209,1.538,2.6212,-19.2203,0.0496,0.0558,-0.0597,86,10.875,209,8.7225,1.6699,-11.1629,0.0499,0.0005,0.0776,51
10.927,210,1.559,2.6112,-19.2616,0.0463,0.0538,-0.0346,86,10.926,210,8.7171,1.5915,-11.1267,0.0498,-0.0074,0.0743,51
10.979,211,1.6185,2.6447,-19.3019,0.0498,0.0555,-0.0159,86,10.978,211,8.7353,1.5998,-11.1538,0.0449,-0.0314,0.0623,51
11.031,212,1.5996,2.6958,-19.3013,0.0453,0.0438,-0.0085,86,11.03,212,8.7392,1.5762,-11.1788,0.029,-0.041,0.0621,51
11.083,213,1.6327,2.6992,-19.2751,0.048,0.0244,-0.0113,86,11.082,213,8.732,1.6198,-11.1899,-0.0049,-0.043,0.0621,51
11.135,214,1.8152,2.8429,-19.2431,0.0358,0.0213,-0.0265,86,11.133,214,8.7318,1.6038,-11.3064,-0.0385,-0.0156,0.0655,51
11.186,215,1.9698,2.9919,-19.2073,0.0371,0.0485,-0.0469,86,11.185,215,8.769,1.468,-11.2901,-0.1006,0.0041,0.0654,51
11.238,216,1.9809,3.0767,-19.1236,-0.0117,0.0788,-0.0512,86,11.237,216,8.7693,1.3971,-11.2644,-0.1224,0.0017,0.0266,51
11.29,217,1.9468,3.078,-19.1214,-0.0505,0.1054,-0.065,86,11.289,217,8.7705,1.5075,-11.2777,-0.1564,-0.0082,0.0129,51
11.342,218,1.9573,3.0312,-19.0931,-0.0889,0.1344,-0.0884,86,11.341,218,8.8736,1.3499,-11.3889,-0.1443,0.0537,0.0583,51
11.394,219,1.9105,2.9565,-19.1211,-0.099,0.1528,-0.1065,86,11.392,219,8.8159,1.2972,-11.1833,-0.0803,0.0588,0.0196,51
11.445,220,1.8789,2.868,-19.1106,-0.1037,0.1552,-0.1258,86,11.444,220,8.8184,1.3687,-11.1875,-0.0612,0.0407,-0.0265,51
11.497,221,1.7825,2.6802,-19.1762,-0.0732,0.15,-0.1536,86,11.496,221,8.8091,1.3856,-11.1728,-0.0199,0.053,-0.0418,51
11.549,222,1.6934,2.569,-19.1976,-0.0533,0.1213,-0.1823,86,11.548,222,8.8002,1.4386,-11.1058,-0.0052,0.0718,-0.0293,51
11.601,223,1.638,2.4934,-19.2348,0.0326,0.077,-0.1971,86,11.6,223,8.8025,1.4283,-11.0369,0.0179,0.0684,-0.0262,51
11.653,224,1.7654,2.4186,-19.2598,0.0948,0.0198,-0.1962,86,11.651,224,8.75,1.5307,-10.9133,0.056,0.0507,-0.0457,51
11.705,225,1.875,2.2775,-19.2101,0.1774,-0.015,-0.1853,86,11.703,225,8.7418,1.5777,-10.8891,0.0926,0.0308,-0.0543,51
11.756,226,1.9396,2.2641,-19.1331,0.2301,-0.0386,-0.1688,86,11.755,226,8.7466,1.5975,-10.8603,0.0849,0.0183,-0.054,51
11.808,227,2.0243,2.3303,-19.1774,0.2794,-0.0279,-0.1756,86,11.807,227,8.7516,1.6061,-10.8891,0.0759,0.0014,-0.0503,51
11.86,228,2.0628,2.4426,-19.2015,0.2902,-0.0094,-0.1681,86,11.858,228,8.7463,1.5878,-10.9203,0.0576,-0.0111,-0.0495,51
11.912,229,2.0288,2.5209,-19.2135,0.266,0.0165,-0.129,86,11.91,229,8.7424,1.6021,-10.9518,0.0426,-0.0243,-0.0546,51
11.964,230,1.9705,2.6984,-19.2527,0.2462,0.0517,-0.1012,86,11.962,230,8.7426,1.6358,-11.0037,0.0345,-0.0337,-0.0545,51
12.015,231,1.9708,2.771,-19.2615,0.1632,0.0636,-0.0963,86,12.014,231,8.7146,1.6757,-11.0183,0.0296,-0.0306,-0.0396,51
12.067,232,2.0038,2.7348,-19.2516,0.0894,0.0665,-0.1078,86,12.066,232,8.7081,1.6998,-11.0228,0.0024,-0.0349,-0.0178,51
12.119,233,2.0596,2.6553,-19.2061,0.0222,0.0655,-0.1265,86,12.117,233,8.725,1.6179,-11.0424,-0.0217,-0.0405,-0.0084,51
12.171,234,2.1051,2.54,-19.1942,0.0043,0.0771,-0.1415,86,12.169,234,8.7118,1.6606,-11.0761,-0.0222,-0.051,-0.0393,51
12.222,235,2.0904,2.4783,-19.1881,-0.0326,0.0878,-0.1426,86,12.221,235,8.7428,1.7025,-11.1474,-0.0336,-0.0437,-0.0407,51
12.274,236,2.1028,2.4646,-19.2125,-0.0474,0.095,-0.1244,86,12.272,236,8.7081,1.6325,-11.1198,-0.0248,-0.0275,-0.0254,51
12.326,237,2.0831,2.3841,-19.2081,-0.0586,0.0935,-0.0989,86,12.324,237,8.689,1.6926,-11.1434,-0.0048,-0.0382,-0.0268,51
12.378,238,2.0661,2.4096,-19.215,-0.0669,0.0818,-0.0497,86,12.376,238,8.707,1.7391,-11.2155,0.0079,-0.0521,-0.038,51
12.43,239,2.2073,2.4119,-19.1942,-0.0663,0.0674,0.0135,86,12.428,239,8.7031,1.8158,-11.2458,0.0109,-0.0548,-0.0234,51
12.481,240,2.3129,2.1324,-19.0398,0.0164,0.0677,0.1176,86,12.48,240,8.7042,1.7927,-11.2556,0.0025,-0.0483,0.0034,51
12.533,241,2.3597,2.4194,-19.1287,0.0183,0.1004,0.2348,86,12.531,241,8.7034,1.7659,-11.2747,0.0068,-0.0442,0.0058,51
12.585,242,2.412,2.3665,-19.08,-0.1091,0.1014,0.3061,86,12.583,242,8.7083,1.7692,-11.3064,0.0109,-0.036,0.0017,51
12.637,243,2.3746,2.5794,-19.1395,-0.0422,0.1141,0.3506,86,12.635,243,8.6929,1.7392,-11.3419,0.0286,-0.0288,-0.0008,51
12.689,244,2.4012,2.6189,-19.1065,-0.0968,0.0875,0.3283,86,12.687,244,8.6964,1.7665,-11.3144,0.0547,-0.0221,0.0019,51
12.74,245,2.456,2.6684,-19.0282,-0.0446,0.0779,0.276,86,12.738,245,8.7081,1.7888,-11.3559,0.079,-0.0262,0.016,51
12.792,246,2.4891,2.7561,-18.9333,-0.0967,0.086,0.2146,86,12.79,246,8.6785,1.7862,-11.3571,0.0794,-0.0232,0.0341,51
12.844,247,2.4856,2.8119,-18.9649,-0.1167,0.1018,0.1508,86,12.842,247,8.6756,1.7939,-11.3388,0.0542,-0.0257,0.0618,51
12.896,248,2.5613,2.8591,-19.0664,-0.1165,0.0858,0.0693,86,12.894,248,8.6423,1.7027,-11.2304,-0.0159,-0.0457,0.0823,51
12.947,249,2.6858,2.7427,-19.084,-0.0983,0.0511,-0.0108,86,12.946,249,8.7145,1.638,-11.4093,-0.184,-0.1153,0.0616,51
12.999,250,2.7455,2.6162,-18.8927,-0.124,0.0275,-0.06,86,12.997,250,8.7489,1.7969,-11.6904,-0.2118,-0.0729,0.0253,51
13.051,251,2.8001,2.5178,-18.8548,-0.0891,0.0389,-0.0661,86,13.049,251,8.7701,1.5157,-11.6037,-0.1672,0.001,0.0493,51
13.103,252,2.7703,2.6328,-18.9452,-0.0992,0.0475,-0.0278,86,13.101,252,8.7569,1.5074,-11.5175,0.0209,0.033,0.0124,51
13.155,253,2.7959,2.8364,-19.032,-0.0998,0.0265,0.0271,86,13.153,253,8.695,1.832,-11.4257,0.1247,0.0464,0.0215,51
13.207,254,2.8898,2.9096,-18.9773,-0.1044,-0.0056,0.0802,86,13.205,254,8.7138,1.6787,-11.3245,0.119,0.0333,0.0231,51
13.258,255,2.8133,2.8255,-18.8024,-0.0728,0.0051,0.09,86,13.256,255,8.7104,1.7285,-11.4121,0.1154,0.0171,0.0173,51
13.31,256,2.6408,2.7197,-18.8301,-0.0361,0.0111,0.0604,86,13.308,256,8.7031,1.6211,-11.4111,0.1172,0.0513,0.0625,51
