right_leg_timestamp,right_leg_index,right_leg_accel_x,right_leg_accel_y,right_leg_accel_z,right_leg_gyro_x,right_leg_gyro_y,right_leg_gyro_z,right_leg_battery_percentage
0.128,2,9.6269,-0.9716,-9.8588,0.0187,0.0091,0.0079,75
0.18,3,9.6221,-0.9715,-9.8451,0.0333,0.0141,0.0158,75
0.232,4,9.618,-0.9899,-9.8512,0.0431,0.0193,0.0252,75
0.283,5,9.6026,-1.0493,-9.8487,0.0595,0.034,0.0192,75
0.335,6,9.5865,-0.9911,-9.8069,0.0933,0.0285,0.0062,75
0.387,7,9.6102,-0.9544,-9.8062,0.1497,0.068,-0.0006,75
0.439,8,9.8236,-1.0648,-9.534,0.1442,0.0489,-0.0001,75
0.49,9,9.8047,-1.0213,-9.4865,0.1511,0.0661,0.0166,75
0.542,10,9.7424,-1.0801,-9.4584,0.1317,0.0408,0.0376,75
0.594,11,9.7452,-0.9659,-9.5004,0.0981,0.0367,0.0422,75
0.646,12,9.6646,-0.7477,-9.5127,-0.0063,0.017,0.028,75
0.698,13,9.5677,-0.7908,-9.606,-0.0312,-0.0146,0.0002,75
0.75,14,9.4577,-0.4772,-9.5229,-0.0599,0.01,0.0515,75
0.801,15,9.3722,-0.8769,-9.2257,-0.0542,-0.0248,0.0266,75
0.853,16,9.5169,-0.7576,-9.5971,0.0089,-0.0596,-0.0036,75
0.905,17,9.6601,-0.8169,-9.7201,0.0613,-0.0067,0.0083,75
0.957,18,9.4807,-1.2154,-9.5077,0.0566,-0.0109,0.0651,75
1.008,19,9.3791,-1.4153,-9.3758,-0.0043,-0.062,0.0323,75
1.06,20,10.0173,-0.615,-10.0832,0.1536,-0.1577,-0.2566,75
1.112,21,10.1396,-0.4986,-9.8622,0.1792,-0.1092,-0.1892,75
1.164,22,9.9305,-0.6995,-9.6914,0.1259,-0.0834,-0.1184,75
1.216,23,9.8343,-0.8422,-9.7114,0.0828,-0.0791,-0.0743,75
1.267,24,9.8483,-0.7678,-9.7507,0.0638,-0.0459,-0.0523,75
1.319,25,9.7756,-0.8551,-9.6981,0.0635,-0.0267,-0.0273,75
1.371,26,9.7471,-0.9432,-9.7003,0.0472,-0.0226,-0.0047,75
1.423,27,9.6893,-1.0492,-9.6317,0.0277,-0.0192,0.0037,75
1.474,28,9.6753,-1.0505,-9.694,0.031,-0.0066,0.0107,75
1.526,29,9.6399,-0.9995,-9.7157,0.0345,-0.0129,0.0351,75
1.578,30,9.5959,-1.0966,-9.6574,0.0159,-0.0213,0.0468,75
1.63,31,9.4503,-1.2455,-9.4049,-0.0293,-0.0384,0.0489,75
1.682,32,9.4869,-1.2123,-9.9053,0.0811,-0.0456,-0.0305,75
1.733,33,9.5557,-1.189,-9.9483,0.0931,-0.0249,-0.0206,75
1.785,34,9.572,-1.1566,-9.9102,0.0837,-0.0135,-0.0082,75
1.837,35,9.4901,-1.2826,-9.7977,0.0541,-0.0092,0.0308,75
1.888,36,9.4405,-1.3608,-9.741,0.0267,-0.0049,0.0387,75
1.941,37,9.4657,-1.3317,-9.7694,0.0094,-0.0083,0.0205,75
1.992,38,9.5235,-1.2553,-9.8268,0.0108,-0.0027,0.0178,75
2.044,39,9.5617,-1.2608,-9.8343,0.0208,0.0051,0.0234,75
2.096,40,9.5121,-1.3272,-9.7606,0.0068,0.0092,0.0185,75
2.148,41,9.4905,-1.3571,-9.7145,0.0056,0.01,0.0121,75
2.2,42,9.5536,-1.3153,-9.6795,0.0293,0.0019,-0.0044,75
2.252,43,9.5342,-1.3256,-9.6518,0.0415,0.0034,0.0008,75
2.303,44,9.5258,-1.342,-9.659,0.0338,0.0012,-0.0043,75
2.355,45,9.532,-1.3647,-9.6566,0.0256,0.0013,-0.0033,75
2.407,46,9.5142,-1.355,-9.6549,0.0173,0.0047,-0.0051,75
2.459,47,9.5883,-1.2872,-9.6853,0.017,0.0018,-0.0098,75
2.51,48,9.5835,-1.2672,-9.6212,0.0271,0.0051,-0.0144,75
2.562,49,9.5687,-1.2921,-9.609,0.0194,0.0071,-0.0171,75
2.614,50,9.5559,-1.3026,-9.6066,0.0113,0.0004,-0.015,75
2.666,51,9.5798,-1.2803,-9.6382,0.0058,-0.0075,-0.0114,75
2.718,52,9.5714,-1.2687,-9.6174,0.0145,-0.0015,-0.0079,75
2.769,53,9.5701,-1.2772,-9.6054,0.0116,-0.0035,-0.0068,75
2.821,54,9.5723,-1.294,-9.5801,0.0064,-0.0139,-0.0118,75
2.873,55,9.484,-1.3018,-9.508,0.0052,-0.0395,-0.0451,75
2.925,56,9.7309,-1.0923,-9.7238,0.0146,-0.0336,-0.058,75
2.976,57,9.7278,-1.0641,-9.6901,0.0325,-0.0032,-0.0331,75
3.028,58,9.6781,-1.1269,-9.6046,0.0418,0.0096,-0.0012,75
3.08,59,9.6179,-1.1872,-9.5163,0.0411,0.0151,0.0164,75
3.132,60,9.5202,-1.3029,-9.4031,-0.0039,-0.0219,-0.0007,75
3.184,61,9.551,-1.2426,-9.6138,-0.0236,-0.0424,-0.0298,75
3.236,62,9.6075,-1.1437,-9.6455,-0.0239,-0.034,-0.0214,75
3.287,63,9.5777,-1.1981,-9.7039,-0.0315,-0.0399,-0.014,75
3.339,64,9.5771,-1.1777,-9.7053,-0.027,-0.0233,-0.0061,75
3.391,65,9.5913,-1.1457,-9.7028,-0.0257,-0.0144,-0.0036,75
3.442,66,9.6119,-1.0794,-9.786,-0.0183,-0.0125,0.0014,75
3.494,67,9.6293,-1.0311,-9.8053,0.0008,-0.0022,0.0046,75
3.546,68,9.6043,-1.0862,-9.7333,0.0099,0.0243,0.0367,75
3.598,69,9.5544,-1.1804,-9.6981,0.0113,0.0252,0.0596,75
3.65,70,9.5814,-1.2116,-9.7372,-0.0021,0.0223,0.0526,75
3.702,71,9.6088,-1.2143,-9.7556,0.0093,0.0132,0.0556,75
3.754,72,9.5864,-1.2498,-9.7784,0.0151,0.0077,0.0636,75
3.805,73,9.5825,-1.2468,-9.7116,0.0196,0.0205,0.0614,75
3.857,74,9.5433,-1.3273,-9.6573,0.0259,0.0169,0.0433,75
3.909,75,9.4158,-1.4895,-9.2923,-0.0186,-0.0345,0.0137,75
3.96,76,9.487,-1.3272,-9.5589,-0.0185,-0.0187,0.0415,75
4.012,77,9.4967,-1.3086,-9.5205,0.0079,-0.0034,0.0553,75
4.064,78,9.5014,-1.3631,-9.5456,-0.0052,-0.0218,0.0577,75
4.116,79,9.4146,-1.5076,-9.4529,-0.0375,-0.0367,0.026,75
4.168,80,9.6815,-1.1167,-9.6521,-0.0195,-0.017,-0.0316,75
4.219,81,9.6495,-1.1076,-9.6861,0.0002,-0.0081,0.0016,75
4.271,82,9.6565,-1.127,-9.7216,0.0141,-0.01,0.0207,75
4.323,83,9.6074,-1.2475,-9.757,0.0316,0.0001,0.0331,75
4.375,84,9.581,-1.2702,-9.7016,0.0403,0.0072,0.0282,75
4.427,85,9.5728,-1.3,-9.6731,0.0212,-0.0028,0.0288,75
4.478,86,9.5543,-1.3327,-9.6416,-0.0038,-0.0084,0.014,75
4.53,87,9.5964,-1.2984,-9.719,-0.0042,-0.0027,0.0018,75
4.582,88,9.5515,-1.3543,-9.7044,-0.0129,-0.0046,0.0001,75
4.634,89,9.5123,-1.3818,-9.7443,-0.0436,-0.0165,-0.0341,75
4.685,90,9.5968,-1.2867,-9.8327,-0.0339,-0.0049,-0.0259,75
4.737,91,9.5496,-1.3211,-9.7323,-0.0271,-0.0003,-0.0133,75
4.789,92,9.5358,-1.3465,-9.7487,-0.0333,-0.0103,-0.0124,75
4.841,93,9.5514,-1.4182,-9.7937,-0.0204,-0.019,-0.0404,75
4.893,94,9.6278,-1.348,-9.7751,-0.0026,-0.0168,-0.0582,75
4.944,95,9.641,-1.2461,-9.772,0.0133,-0.0113,-0.0437,75
4.996,96,9.6796,-1.0878,-9.792,0.0436,-0.0108,-0.0411,75
5.048,97,9.7617,-1.1455,-9.9456,0.0526,0.0333,0.011,75
5.1,98,9.6898,-1.176,-9.8004,0.0636,0.0525,0.0593,75
5.152,99,9.6017,-1.2919,-9.7603,0.0522,0.0331,0.0572,75
5.203,100,9.5323,-1.3594,-9.697,0.0173,0.0147,0.0238,75
5.255,101,9.6465,-1.2757,-9.8751,-0.0077,0.0012,-0.0036,75
5.307,102,9.6225,-1.3003,-9.8004,-0.0104,-0.0034,0.0007,75
5.359,103,9.5119,-1.4811,-9.7979,-0.0315,-0.041,-0.0449,75
5.411,104,9.5879,-1.3303,-9.9452,-0.0143,-0.0598,-0.1222,75
5.462,105,9.6014,-1.2335,-9.9416,-0.0153,-0.0426,-0.1041,75
5.514,106,9.6391,-1.0426,-9.8227,-0.0159,-0.0448,-0.0801,75
5.566,107,9.6326,-1.0322,-9.9313,0.0164,-0.0394,-0.0699,75
5.618,108,9.6048,-0.9401,-9.9054,0.0455,-0.0208,-0.0582,75
5.67,109,9.6219,-0.938,-9.9041,0.0514,-0.015,-0.0443,75
5.721,110,9.6274,-0.951,-9.9256,0.0548,-0.0026,-0.036,75
5.773,111,9.6252,-0.9203,-9.9321,0.0579,0.0077,-0.0346,75
5.825,112,9.5944,-0.9237,-9.9134,0.0574,0.0143,-0.0474,75
5.877,113,9.6206,-0.9173,-9.9162,0.0476,0.0066,-0.0439,75
5.928,114,9.6137,-0.8951,-9.8934,0.0465,0.0029,-0.0432,75
5.98,115,9.6071,-0.871,-9.8663,0.0438,0.0035,-0.0413,75
6.032,116,9.6288,-0.8448,-9.8581,0.032,-0.0004,-0.0359,75
6.084,117,9.6243,-0.866,-9.8348,0.0319,-0.005,-0.0318,75
6.136,118,9.6521,-0.919,-9.9046,0.0174,-0.0101,-0.0212,75
6.187,119,9.6542,-0.8981,-9.9552,0.0157,-0.0125,-0.0171,75
6.239,120,9.6396,-0.8766,-9.9157,0.0087,-0.0109,-0.0108,75
6.291,121,9.6427,-0.8578,-9.9367,0.0139,-0.0086,-0.0106,75
6.343,122,9.6281,-0.8391,-9.9358,0.0197,-0.0028,-0.0163,75
6.394,123,9.6059,-0.7003,-9.9577,0.0682,-0.0106,-0.0636,75
6.446,124,9.5458,-1.0319,-9.4109,0.075,-0.0355,0.1029,75
6.498,125,9.3751,-1.7484,-9.6461,0.0959,-0.1442,0.3391,75
6.55,126,9.4007,-0.7716,-9.748,0.0005,-0.242,0.4322,75
6.602,127,9.2209,-1.2165,-9.5478,-0.2481,-0.5241,0.6494,75
6.654,128,9.0575,-1.6049,-10.3312,-0.3097,-0.6297,0.8491,75
6.705,129,8.9329,-2.3983,-11.2479,-0.2547,-0.4136,0.5948,75
6.757,130,9.0007,-3.0537,-11.524,-0.4616,-0.3003,-0.0773,75
6.809,131,11.4625,-5.0929,-8.4625,-0.4044,0.1315,-0.2651,75
6.861,132,9.2295,-7.16,-14.1812,-0.9704,0.0096,0.4843,75
6.913,133,4.0421,0.1262,-15.1944,-0.0317,-0.6074,0.5536,75
6.964,134,8.2159,5.444,-8.5055,0.6534,-0.7788,-0.27,75
7.016,135,11.2621,0.049,-11.0801,-0.0935,-0.9204,-0.791,75
7.068,136,10.3197,-1.4332,-12.1219,-0.1224,-0.8087,-0.5897,75
7.12,137,9.162,-2.7399,-12.0431,-0.2671,-0.6691,-0.3957,75
7.172,138,8.9497,-3.135,-12.3055,-0.3252,-0.6157,-0.5205,75
7.223,139,8.7817,-3.4138,-12.6649,-0.2782,-0.4344,-0.7374,75
7.275,140,8.7858,-3.332,-12.7056,-0.1454,-0.2756,-0.8025,75
7.327,141,8.6312,-3.5473,-12.8189,0.0764,-0.0481,-0.8688,75
7.379,142,8.621,-4.5669,-12.9541,0.4903,0.0247,-0.9978,75
7.43,143,9.5727,-4.3688,-12.5055,1.0344,-0.0228,-1.0177,75
7.482,144,9.4005,1.4618,-11.9754,1.105,-0.2851,-1.0085,75
7.534,145,7.9538,1.2245,-9.5111,0.8645,-0.1196,-0.6113,75
7.586,146,8.3156,0.3724,-9.9196,0.3965,-0.2268,-0.3331,75
7.638,147,9.296,-0.4757,-9.4306,0.0993,-0.3826,-0.073,75
7.689,148,8.3015,-1.6323,-9.3002,-0.6027,0.0649,0.3856,75
7.741,149,6.3753,-1.8238,-11.9904,-1.1151,0.7072,0.4122,75
7.793,150,9.0627,-1.1372,-9.5963,-1.1512,0.235,0.3599,75
7.845,151,9.853,-2.3211,-10.3994,-1.125,0.301,0.1673,75
7.897,152,9.6378,-1.7877,-10.6467,-0.7164,0.1427,-0.0992,75
7.948,153,9.4743,-1.9688,-10.9634,-0.5701,-0.1347,-0.276,75
8.0,154,9.7501,-1.6489,-11.4158,-0.5287,-0.3526,-0.3486,75
8.052,155,9.7057,-1.3821,-11.8017,-0.2767,-0.3558,-0.4574,75
8.104,156,9.3978,-1.004,-12.3481,-0.0069,-0.226,-0.3602,75
8.156,157,9.2273,-1.5068,-11.8676,0.027,-0.0222,-0.1926,75
8.207,158,9.3145,-1.3553,-12.2404,0.0117,0.0419,-0.189,75
8.259,159,9.2118,-1.1976,-12.3326,0.044,0.0065,-0.1157,75
8.311,160,9.0989,-1.0351,-12.6858,-0.0372,0.1323,-0.062,75
8.363,161,9.3759,-0.9064,-12.4537,0.0409,0.3689,-0.0254,75
8.415,162,9.2794,-1.0005,-12.0676,0.0421,0.4876,0.087,75
8.466,163,9.5031,-0.9464,-11.755,0.0385,0.4456,0.0837,75
8.518,164,9.5948,-0.812,-11.61,0.04,0.3788,-0.0047,75
8.57,165,9.5064,-1.2426,-11.2928,0.0303,0.3371,0.012,75
8.622,166,9.544,-1.2288,-11.2302,0.0313,0.2696,0.036,75
8.673,167,9.5225,-1.3277,-11.1946,0.0533,0.2366,0.0625,75
8.725,168,9.5023,-1.3811,-11.0079,0.0471,0.2198,0.0964,75
8.777,169,9.457,-1.4711,-10.8304,0.0528,0.1511,0.116,75
8.829,170,9.4874,-1.4534,-10.8722,0.0898,0.1159,0.0994,75
8.881,171,9.5536,-1.45,-10.7742,0.1097,0.1285,0.093,75
8.932,172,9.5246,-1.5561,-10.6467,0.0992,0.1123,0.0859,75
8.984,173,9.5405,-1.4846,-10.678,0.0881,0.0932,0.0845,75
9.036,174,9.5246,-1.5276,-10.6574,0.0881,0.0831,0.0757,75
9.088,175,9.4815,-1.4251,-10.6855,0.0256,0.1021,0.0908,75
9.139,176,9.4407,-1.4276,-10.5814,-0.013,0.1162,0.1095,75
9.191,177,9.7086,-1.6939,-10.4868,-0.0474,0.1562,0.0647,75
9.243,178,9.4214,-1.9118,-10.5413,-0.1074,0.2114,0.0374,75
9.295,179,9.4346,-1.9011,-10.4404,-0.174,0.2579,-0.057,75
9.347,180,9.4249,-1.7389,-10.3838,-0.1907,0.2892,-0.1108,75
9.398,181,9.5209,-1.6742,-10.1317,-0.195,0.259,-0.1405,75
9.45,182,9.5087,-1.638,-10.0951,-0.1616,0.2075,-0.1225,75
9.502,183,9.5938,-1.6208,-10.0272,-0.1054,0.1633,-0.1251,75
9.554,184,9.6519,-1.4327,-9.9969,-0.0915,0.1469,-0.0957,75
9.606,185,9.6987,-1.4359,-9.8881,-0.0814,0.1162,-0.0602,75
9.657,186,9.6026,-1.4907,-9.8868,-0.0501,0.0902,-0.0363,75
9.709,187,9.5451,-1.4857,-9.8501,-0.0458,0.0654,-0.0536,75
9.761,188,9.6023,-1.5375,-9.8127,-0.0674,0.0747,-0.0915,75
9.813,189,9.577,-1.4534,-9.7286,-0.1064,0.0667,-0.1374,75
9.865,190,9.5689,-1.3488,-9.7864,-0.1215,0.0767,-0.1859,75
9.916,191,9.5667,-1.1529,-9.8135,-0.2167,0.1035,-0.2174,75
