right_leg_timestamp,right_leg_index,right_leg_accel_x,right_leg_accel_y,right_leg_accel_z,right_leg_gyro_x,right_leg_gyro_y,right_leg_gyro_z,right_leg_battery_percentage,left_leg_timestamp,left_leg_index,left_leg_accel_x,left_leg_accel_y,left_leg_accel_z,left_leg_gyro_x,left_leg_gyro_y,left_leg_gyro_z,left_leg_battery_percentage
0.492,9,10.0142,1.002,-9.0303,-2.1097,-0.2545,0.1477,70,0.008,0,8.3883,3.0115,-8.0831,0.0461,0.1123,-0.1709,39
0.544,10,10.1965,1.7592,-8.1186,-1.994,-0.0614,-0.0235,70,0.059,1,8.3061,3.1072,-8.0197,0.0616,0.0759,-0.1493,39
0.596,11,10.4531,0.9285,-8.4909,-1.1905,0.276,0.1571,70,0.111,2,8.2825,3.1768,-8.0104,0.0522,0.028,-0.1222,39
0.648,12,10.1307,0.706,-8.732,-0.8359,0.5213,0.2774,70,0.163,3,8.2342,3.2326,-8.0266,0.0202,-0.0157,-0.092,39
0.699,13,10.0773,0.8009,-8.7164,-0.5242,0.7271,0.3945,70,0.215,4,8.3161,3.2914,-7.9469,-0.0386,-0.0542,-0.0824,39
0.751,14,9.7829,0.7281,-8.3487,-0.4286,0.8558,0.5579,70,0.266,5,8.301,3.2565,-8.0415,-0.1026,-0.0852,-0.0691,39
0.803,15,9.6833,0.4434,-7.9893,-0.3421,0.74,0.5138,70,0.318,6,8.3184,3.252,-8.0966,-0.1655,-0.0775,-0.0698,39
0.855,16,9.5981,0.3203,-7.7315,-0.2997,0.5939,0.4349,70,0.37,7,8.3313,3.2543,-8.1265,-0.2456,-0.0725,-0.0631,39
0.907,17,9.509,0.0913,-7.6911,-0.3212,0.4945,0.3673,70,0.422,8,8.2598,3.2361,-8.0713,-0.2931,-0.0776,0.0045,39
0.958,18,9.4622,-0.0712,-7.6206,-0.2613,0.4262,0.293,70,0.474,9,8.319,3.2999,-7.9231,-0.2521,-0.0845,0.1964,39
1.01,19,9.4671,-0.2247,-7.525,-0.3452,0.3651,0.1813,70,0.525,10,8.5894,3.6662,-7.891,-0.2833,-0.2419,0.5372,39
1.062,20,9.6175,-1.0862,-6.9194,-0.4999,0.2573,-0.0495,70,0.577,11,8.921,4.6798,-8.9829,-0.8838,-0.6431,0.525,39
1.114,21,9.3788,-1.1119,-6.4987,-0.5908,-0.0328,-0.0033,70,0.629,12,8.2138,4.6825,-9.631,-1.3221,-0.9975,0.2267,39
1.166,22,9.6607,-0.7466,-6.345,-0.7193,-0.6842,0.064,70,0.68,13,8.307,4.1905,-9.754,-1.642,-0.8156,-0.0061,39
1.217,23,10.662,-0.1029,-7.0159,-0.7652,-1.0473,0.2694,70,0.732,14,8.4038,3.9852,-9.5122,-1.544,-0.4976,-0.2514,39
1.269,24,10.3295,0.5743,-8.1668,-0.9474,-1.2296,0.0645,70,0.784,15,8.798,3.4573,-9.3844,-1.5292,-0.404,-0.5358,39
1.321,25,8.5128,2.8666,-7.7753,-1.3658,-0.7808,-0.257,70,0.836,16,8.6117,1.9919,-10.3853,-1.7932,-0.5492,-0.606,39
1.373,26,8.2064,2.8702,-8.3312,-1.3664,0.0894,-0.6231,70,0.888,17,11.2454,-3.843,-8.8593,-1.6172,-0.4455,-0.1785,39
1.424,27,9.0568,2.3283,-9.3767,-0.516,0.6363,-0.8534,70,0.939,18,11.0208,-2.4849,-8.9005,-1.2362,-0.3999,-0.1345,39
1.476,28,11.8758,-3.5378,-12.615,-0.4122,0.8548,-0.4153,70,0.991,19,10.5345,-1.3905,-8.4079,-0.9294,-0.3076,-0.1384,39
1.528,29,11.5981,0.2371,-12.537,-0.6879,0.5675,-0.4985,70,1.043,20,10.0263,-0.2877,-8.5328,-0.7263,-0.3009,-0.1406,39
1.58,30,10.9223,0.3745,-11.6463,-0.2878,0.5699,-0.3201,70,1.095,21,9.7276,0.455,-8.6063,-0.5092,-0.3407,0.0006,39
1.632,31,10.4825,0.5767,-10.5439,-0.1953,0.5494,-0.1049,70,1.146,22,9.506,0.7709,-8.8387,-0.353,-0.3022,0.0788,39
1.683,32,10.2459,0.7478,-9.883,-0.0843,0.4978,0.0234,70,1.198,23,9.322,1.0657,-8.8711,-0.2346,-0.2006,0.1109,39
1.735,33,9.9603,0.6777,-9.3057,-0.0083,0.4307,0.1182,70,1.25,24,9.1621,1.2747,-8.8367,-0.131,-0.1556,0.1739,39
1.787,34,9.8182,0.7705,-8.6992,0.0416,0.424,0.1672,70,1.302,25,9.0811,1.2649,-9.0098,-0.0374,-0.1518,0.2831,39
1.839,35,9.706,0.703,-8.3502,0.0565,0.3979,0.2352,70,1.354,26,9.0439,1.1449,-9.0231,0.0092,-0.0447,0.2994,39
1.891,36,9.6344,0.5996,-8.1611,0.0738,0.3332,0.2545,70,1.406,27,8.9971,1.0524,-8.9469,0.0292,0.036,0.3003,39
1.942,37,9.6549,0.6599,-8.0074,0.0808,0.3165,0.2349,70,1.457,28,8.9607,0.8162,-8.9185,0.03,0.0704,0.2515,39
1.994,38,9.4295,0.6882,-7.6193,0.0593,0.2949,0.2495,70,1.509,29,8.871,0.856,-8.8492,0.05,0.1139,0.2263,39
2.046,39,9.2964,0.497,-7.3649,0.0227,0.2453,0.2735,70,1.561,30,8.8913,0.8383,-8.7474,0.0656,0.1318,0.2178,39
2.097,40,9.2618,0.2946,-7.233,0.0078,0.1694,0.2699,70,1.613,31,8.8766,0.8438,-8.6692,0.0547,0.1116,0.2103,39
2.149,41,9.2803,0.1382,-7.1638,-0.0075,0.1417,0.2667,70,1.664,32,8.8446,0.7314,-8.6042,0.0613,0.0953,0.2043,39
2.201,42,9.2486,-0.0187,-7.0688,0.0054,0.1277,0.2722,70,1.716,33,8.8057,0.7459,-8.5673,0.0594,0.0882,0.2002,39
2.253,43,9.219,-0.1624,-6.9705,0.0068,0.1339,0.3066,70,1.768,34,8.8911,0.6735,-8.5116,0.0468,0.0624,0.2122,39
2.305,44,9.1311,-0.4036,-6.8771,0.0628,0.028,0.2502,70,1.82,35,8.9181,0.6235,-8.5061,0.0445,0.0299,0.2231,39
2.356,45,9.3528,-0.4359,-7.1432,0.0361,-0.1553,0.1254,70,1.872,36,8.956,0.625,-8.4689,0.0357,-0.0032,0.2305,39
2.408,46,9.5459,-0.3801,-7.3868,-0.0158,-0.2505,0.1099,70,1.923,37,9.0292,0.3194,-8.3623,0.0639,-0.0242,0.2614,39
2.46,47,9.5389,-0.5067,-7.5145,-0.0138,-0.1636,0.1142,70,1.975,38,9.0577,0.4995,-8.394,0.0268,-0.1316,0.29,39
2.512,48,9.6918,-0.2862,-7.5919,-0.0258,-0.1151,0.1289,70,2.027,39,9.252,0.5339,-8.686,0.0633,-0.2307,0.3831,39
2.563,49,9.6078,-0.5217,-7.6081,-0.0888,0.0846,0.2214,70,2.079,40,11.1527,-0.2074,-11.6014,-0.1428,-0.8346,0.6868,39
2.615,50,10.1351,-1.7264,-6.3888,-0.1426,0.1405,-0.0022,70,2.13,41,12.3029,-0.9517,-13.3909,-0.1431,-1.2759,1.0492,39
2.667,51,9.6907,-1.6255,-6.379,-0.1196,0.0821,-0.0177,70,2.182,42,11.5852,-1.3047,-13.5242,0.0094,-1.598,1.3384,39
2.719,52,9.5709,-1.4677,-6.6818,-0.066,0.0095,-0.0805,70,2.234,43,10.0658,-1.9483,-13.1332,-0.0201,-1.8331,1.3971,39
2.771,53,9.6006,-1.1076,-6.8696,-0.0339,0.0461,-0.0809,70,2.286,44,8.5111,-2.5775,-12.7093,0.0268,-2.0046,1.3772,39
2.823,54,9.2954,-1.2174,-6.8398,-0.0678,0.0613,-0.0334,70,2.338,45,7.3837,-3.1067,-12.4134,0.1881,-2.1299,1.2487,39
2.874,55,9.0763,-1.3928,-6.8383,0.0277,0.0095,-0.1122,70,2.389,46,6.4759,-3.5057,-13.2334,0.3001,-2.0173,1.0048,39
2.926,56,9.2461,-0.9273,-6.8697,0.1115,-0.0696,-0.1432,70,2.441,47,5.7621,-4.0041,-14.2282,0.2096,-1.8172,0.7602,39
2.978,57,9.5887,-0.5569,-7.1666,0.0727,-0.0823,-0.0553,70,2.493,48,4.9559,-4.2174,-15.1638,0.3184,-1.6094,0.6461,39
3.03,58,9.4906,-0.6327,-7.2502,-0.0634,0.1264,0.1601,70,2.545,49,4.0108,-4.1573,-15.6478,0.4102,-1.4079,0.5571,39
3.081,59,9.2427,-0.8662,-7.0187,-0.1173,0.1578,0.121,70,2.596,50,3.1926,-4.1408,-15.7632,0.3754,-1.2153,0.45,39
3.133,60,9.3846,-1.6137,-6.9501,-0.2584,0.0584,0.0484,70,2.648,51,2.57,-4.2596,-15.9172,0.2401,-1.0157,0.3714,39
3.185,61,9.372,-1.5357,-7.0974,-0.2416,0.0156,-0.016,70,2.7,52,1.7848,-4.2287,-16.2072,0.1459,-0.7547,0.285,39
3.237,62,9.4461,-1.1227,-7.1368,-0.1585,0.053,-0.0667,70,2.752,53,1.3403,-4.3532,-16.2983,0.1081,-0.4774,0.1999,39
3.289,63,8.5838,0.6167,-7.5271,-0.2092,0.0332,-0.089,70,2.804,54,1.1643,-4.5601,-16.398,0.0597,-0.2353,0.1025,39
3.34,64,8.8495,-0.2772,-7.3171,-0.2403,0.041,-0.1133,70,2.855,55,1.153,-5.0061,-16.9823,-0.0532,-0.0568,0.0475,39
3.392,65,9.0982,-0.4012,-7.5318,-0.074,0.008,-0.1726,70,2.907,56,1.3845,-5.3428,-17.4646,-0.0625,0.0555,0.0425,39
3.444,66,9.2608,-0.2979,-7.4959,-0.121,-0.0005,-0.0629,70,2.959,57,1.5091,-5.5052,-17.8309,-0.0599,0.0783,0.0385,39
3.496,67,9.3022,-0.7176,-7.4502,-0.1531,-0.0187,-0.0324,70,3.011,58,1.4986,-5.452,-18.0666,-0.0067,0.0435,0.0208,39
3.547,68,9.3861,-0.5603,-7.4211,-0.0734,0.0225,-0.0402,70,3.063,59,1.223,-5.4419,-18.137,-0.0006,0.0038,0.0184,39
3.599,69,9.2996,-0.9566,-7.191,-0.1861,-0.0083,-0.0204,70,3.114,60,0.9443,-5.4421,-18.0849,-0.039,-0.0493,0.0564,39
3.651,70,9.2244,-1.1193,-7.1492,-0.1646,-0.0448,-0.019,70,3.166,61,0.8224,-5.3678,-17.9844,-0.0241,-0.0861,0.1165,39
3.703,71,9.2692,-0.8546,-7.237,-0.0314,-0.0378,-0.0592,70,3.218,62,0.6926,-5.2445,-17.7969,0.0216,-0.0901,0.1309,39
3.755,72,9.3201,-0.7538,-7.2586,-0.0553,0.0046,0.017,70,3.27,63,0.8573,-5.1429,-17.7501,0.0272,-0.0605,0.0882,39
3.806,73,9.2639,-0.8154,-7.1974,-0.0377,0.0103,0.0224,70,3.321,64,0.9988,-5.0804,-17.9063,-0.0126,-0.0214,0.0284,39
3.858,74,9.4166,-0.6861,-7.0818,0.0249,0.037,-0.0075,70,3.373,65,0.896,-5.124,-17.9977,-0.0044,0.0008,-0.0325,39
3.91,75,9.3481,-1.1676,-7.0017,-0.0348,-0.0097,0.0092,70,3.425,66,0.8978,-5.2136,-18.0566,-0.038,-0.0064,-0.0736,39
3.962,76,9.2601,-1.1965,-6.9771,0.0236,-0.0298,-0.0044,70,3.477,67,0.9638,-5.2223,-18.0295,-0.0461,-0.014,-0.0869,39
4.014,77,9.4652,-0.5822,-7.1169,0.0891,-0.0166,-0.024,70,3.528,68,0.8999,-5.1802,-17.9672,-0.0155,-0.0065,-0.1033,39
4.066,78,9.4408,-0.6084,-7.181,-0.002,-0.0054,0.0434,70,3.58,69,0.9347,-5.1157,-18.0375,-0.0159,0.0139,-0.114,39
4.117,79,9.3036,-1.0004,-7.0742,-0.0578,-0.0211,0.004,70,3.632,70,0.8979,-5.095,-18.0676,-0.0657,0.0252,-0.0868,39
4.169,80,9.3049,-0.8815,-7.0633,-0.0281,0.0003,-0.0024,70,3.684,71,0.8093,-5.0963,-18.0491,-0.0829,0.0346,-0.068,39
4.221,81,9.3827,-1.3122,-6.8821,-0.09,-0.002,0.0368,70,3.735,72,0.908,-5.0818,-18.0896,-0.0991,0.0322,-0.0652,39
4.273,82,9.339,-1.1357,-6.9681,-0.0336,-0.0085,0.0137,70,3.787,73,0.9754,-5.0749,-18.1312,-0.0924,0.0309,-0.0724,39
4.324,83,9.2796,-0.9489,-7.0675,-0.0235,-0.0159,0.0092,70,3.839,74,1.0265,-5.0694,-18.1995,-0.065,0.0262,-0.1143,39
4.376,84,9.0601,-1.0131,-7.2412,-0.0437,-0.0293,-0.0031,70,3.891,75,1.2283,-5.0594,-18.3581,-0.0505,0.0026,-0.1517,39
4.428,85,9.1062,-0.9664,-7.2898,0.0184,-0.0395,-0.0196,70,3.943,76,1.2592,-5.0574,-18.3014,-0.0782,-0.0432,-0.1355,39
4.48,86,9.1818,-0.8693,-7.2726,0.0268,-0.0337,-0.0229,70,3.994,77,1.136,-5.0283,-18.222,-0.0566,-0.0654,-0.1253,39
4.531,87,9.2382,-0.7955,-7.308,0.0206,-0.0209,-0.0078,70,4.046,78,1.1584,-4.9926,-18.237,-0.0461,-0.062,-0.1079,39
4.583,88,9.1839,-0.826,-7.1984,-0.0331,0.0137,0.01,70,4.098,79,1.1626,-5.0245,-18.2179,-0.0569,-0.0443,-0.0799,39
4.635,89,9.2025,-0.8182,-7.1674,-0.0294,0.0174,0.0013,70,4.15,80,1.1318,-5.0533,-18.176,-0.0313,-0.0266,-0.0624,39
4.687,90,9.2285,-0.7431,-7.2076,-0.0334,0.0204,0.0017,70,4.202,81,1.1151,-5.0196,-18.1874,-0.0354,-0.0095,-0.0434,39
4.739,91,9.5813,-1.0478,-6.9391,-0.1386,-0.0777,-0.0025,70,4.254,82,1.0801,-4.9651,-18.2176,-0.02,0.0084,-0.0251,39
4.79,92,9.4279,-0.967,-7.1383,-0.1468,-0.0767,-0.0163,70,4.305,83,1.0918,-4.8565,-18.2433,0.011,0.0084,-0.0297,39
4.842,93,9.3296,-1.0174,-7.1344,-0.0876,-0.0497,-0.0279,70,4.357,84,1.1502,-4.7532,-18.2865,0.0054,-0.0009,-0.047,39
4.894,94,9.3982,-0.9033,-7.1727,-0.0748,-0.0295,-0.0213,70,4.409,85,1.2261,-4.7031,-18.3264,-0.0058,-0.0013,-0.0599,39
4.946,95,9.3587,-0.8779,-7.1819,-0.0493,-0.0269,-0.0209,70,4.461,86,1.2496,-4.6972,-18.2606,-0.0159,0.003,-0.0757,39
4.998,96,9.3654,-0.8053,-7.2363,-0.0169,-0.0223,-0.0259,70,4.512,87,1.2975,-4.7244,-18.2104,-0.0249,0.0117,-0.0937,39
5.049,97,9.3855,-0.7201,-7.2174,-0.0052,-0.0118,-0.0301,70,4.564,88,1.3679,-4.8045,-18.2487,-0.0358,0.0265,-0.091,39
5.101,98,9.3509,-0.7323,-7.2355,-0.0076,-0.0065,-0.0278,70,4.616,89,1.4321,-4.8605,-18.2268,-0.0514,0.0407,-0.0621,39
5.153,99,9.2903,-0.858,-7.2608,0.0822,-0.0257,-0.042,70,4.668,90,1.4619,-4.8769,-18.2017,-0.0731,0.0548,-0.031,39
5.205,100,9.2612,-0.6677,-7.2921,0.252,-0.0345,-0.0558,70,4.72,91,1.4679,-4.8277,-18.2676,-0.0564,0.0762,-0.0011,39
5.257,101,9.2731,-0.6401,-7.2414,0.2417,-0.0293,-0.0124,70,4.771,92,1.4876,-4.7245,-18.3221,-0.0383,0.0871,0.025,39
5.308,102,9.3469,-0.5449,-7.2812,0.1485,0.0062,-0.0002,70,4.823,93,1.4837,-4.6189,-18.351,-0.0463,0.0854,0.0362,39
5.36,103,9.2602,-0.6481,-7.2337,0.0623,0.009,0.0119,70,4.875,94,1.4828,-4.5625,-18.3607,-0.0442,0.0833,0.0283,39
5.412,104,9.245,-0.626,-7.2124,0.0249,0.0173,-0.009,70,4.927,95,1.5077,-4.5301,-18.3675,-0.0653,0.0747,0.0188,39
5.464,105,9.3662,-0.5292,-7.1176,0.0288,0.0096,-0.0062,70,4.978,96,1.516,-4.5379,-18.3966,-0.0639,0.0629,0.0108,39
5.516,106,9.3513,-0.5328,-7.1627,0.0131,0.0121,-0.0037,70,5.03,97,1.4596,-4.5317,-18.3659,-0.0593,0.0588,-0.0015,39
5.567,107,9.3072,-0.6406,-7.2647,0.0794,-0.0306,-0.0257,70,5.082,98,1.5391,-4.5811,-18.3963,-0.0212,0.0641,-0.0192,39
5.619,108,9.3602,-0.4574,-7.2891,0.1091,-0.04,-0.0267,70,5.134,99,1.6803,-4.6458,-18.4605,-0.0134,0.0524,-0.02,39
5.671,109,9.3972,-0.3894,-7.3359,0.1034,-0.0407,-0.0113,70,5.186,100,1.7166,-4.6765,-18.4463,-0.009,0.0252,0.0096,39
5.722,110,9.3738,-0.3835,-7.3364,0.0609,-0.0012,0.0159,70,5.237,101,1.7142,-4.6059,-18.338,0.0099,0.0076,0.0405,39
5.774,111,9.2814,-0.5008,-7.2294,0.0058,0.022,0.0277,70,5.289,102,1.7018,-4.4879,-18.2761,0.0113,0.0063,0.0497,39
5.826,112,9.2958,-0.4832,-7.2522,0.0231,-0.0097,0.0023,70,5.341,103,1.6963,-4.3924,-18.2642,-0.0035,0.0202,0.0389,39
5.878,113,9.2841,-0.4923,-7.2543,0.0386,-0.0202,0.0059,70,5.393,104,1.6504,-4.3578,-18.2755,-0.0087,0.0343,0.0097,39
5.93,114,9.3175,-0.4518,-7.2989,0.028,-0.0106,0.021,70,5.444,105,1.6154,-4.3673,-18.3507,0.0096,0.038,-0.0417,39
5.981,115,9.35,-0.3955,-7.3241,-0.0138,0.0322,0.0345,70,5.496,106,1.6213,-4.369,-18.4562,0.018,0.0174,-0.0831,39
6.033,116,9.3593,-0.4421,-7.3348,-0.0432,0.0318,0.0296,70,5.548,107,1.6569,-4.4063,-18.4519,0.0027,-0.016,-0.0998,39
6.085,117,9.3518,-0.4666,-7.3216,-0.0319,0.0192,0.0131,70,5.6,108,1.7149,-4.463,-18.3374,-0.0075,-0.035,-0.1078,39
6.137,118,9.3397,-0.4745,-7.2864,-0.0291,0.0064,0.0142,70,5.652,109,1.7576,-4.5163,-18.2622,-0.005,-0.0327,-0.1228,39
6.189,119,9.354,-0.4631,-7.3245,0.0127,-0.025,-0.0025,70,5.704,110,1.8021,-4.5194,-18.2668,0.0241,-0.0223,-0.1373,39
6.24,120,9.4014,-0.4072,-7.3335,0.0241,-0.0198,0.0015,70,5.755,111,1.8441,-4.4949,-18.2952,0.0351,-0.0124,-0.1355,39
6.292,121,9.4128,-0.4022,-7.367,0.0153,-0.0037,0.0128,70,5.807,112,1.8375,-4.4803,-18.2998,0.0184,-0.0093,-0.1099,39
6.344,122,9.5095,-0.3513,-7.4856,-0.0355,-0.0226,0.0382,70,5.859,113,1.8569,-4.4757,-18.2479,0.0045,-0.0028,-0.0892,39
6.396,123,9.452,-0.4623,-7.4127,-0.1167,-0.0216,0.0314,70,5.911,114,1.8969,-4.4931,-18.2132,0.0138,0.0057,-0.0843,39
6.448,124,9.456,-0.464,-7.3699,-0.0933,-0.019,0.0193,70,5.962,115,1.9473,-4.4663,-18.2527,0.0182,0.0154,-0.082,39
6.499,125,9.4348,-0.4467,-7.395,-0.1222,-0.0298,0.0257,70,6.014,116,1.9441,-4.4559,-18.2843,0.0213,0.027,-0.0702,39
6.552,126,9.3872,-0.5535,-7.3731,-0.1418,-0.0321,0.0361,70,6.066,117,1.9185,-4.4308,-18.3119,0.0124,0.0334,-0.0547,39
6.603,127,9.3397,-0.6171,-7.3827,-0.1202,-0.0186,0.0189,70,6.118,118,1.9104,-4.475,-18.2751,-0.0116,0.0416,-0.0286,39
6.655,128,9.3529,-0.5845,-7.3937,-0.1796,-0.0357,0.0262,70,6.17,119,1.9536,-4.5401,-18.2877,-0.0287,0.0495,0.0071,39
6.707,129,9.3235,-0.6248,-7.456,-0.1884,-0.0483,0.0279,70,6.221,120,2.0604,-4.5528,-18.2332,-0.0159,0.0563,0.044,39
6.758,130,9.3021,-0.7105,-7.4777,-0.1044,-0.0354,0.0051,70,6.273,121,2.0663,-4.4524,-18.1925,0.0211,0.0647,0.0314,39
6.81,131,9.3734,-0.6004,-7.5166,-0.0835,-0.0004,0.0093,70,6.325,122,2.0563,-4.3539,-18.2095,0.0423,0.0666,-0.0101,39
6.862,132,9.3118,-0.7475,-7.4928,-0.0528,-0.0354,0.0002,70,6.376,123,2.1444,-4.3274,-18.3166,0.0267,0.062,-0.0429,39
6.914,133,9.2066,-0.9202,-7.5117,0.2945,-0.0726,-0.0527,70,6.428,124,2.1367,-4.3726,-18.2648,0.0018,0.0447,-0.0383,39
6.966,134,9.2073,-0.8392,-7.4431,0.2215,-0.0599,-0.0029,70,6.48,125,2.1282,-4.4168,-18.1945,-0.017,0.0392,-0.0282,39
7.017,135,9.2651,-0.8354,-7.4116,0.2833,-0.0786,0.005,70,6.532,126,2.14,-4.4457,-18.1248,-0.0325,0.0418,-0.0138,39
7.069,136,9.3553,-0.6321,-7.5024,0.2133,-0.0651,0.0126,70,6.584,127,2.1653,-4.4523,-18.1373,-0.0265,0.0435,-0.0135,39
7.121,137,9.3704,-0.6101,-7.5557,0.1453,-0.0327,0.0195,70,6.635,128,2.2209,-4.4007,-18.2075,-0.0148,0.043,-0.0241,39
7.173,138,9.3413,-0.6308,-7.4991,0.1051,-0.0044,0.0172,70,6.687,129,2.264,-4.3719,-18.2521,-0.0124,0.0388,-0.0326,39
7.224,139,9.3487,-0.5759,-7.4606,0.0719,0.0153,0.015,70,6.739,130,2.0654,-4.3352,-18.2076,0.0077,0.0296,-0.0536,39
7.276,140,9.2991,-0.6474,-7.4017,0.0589,0.0062,0.0017,70,6.791,131,1.9746,-4.2695,-18.2515,0.0435,0.024,-0.0992,39
7.328,141,9.2895,-0.5968,-7.3955,0.107,-0.0323,-0.032,70,6.842,132,2.0051,-4.2556,-18.3602,0.0509,0.0071,-0.1374,39
7.38,142,9.2892,-0.4222,-7.5218,0.2374,-0.0394,-0.018,70,6.894,133,2.1334,-4.2618,-18.4351,0.0587,-0.0362,-0.1705,39
7.432,143,9.3112,-0.3365,-7.4934,0.2606,-0.0831,-0.021,70,6.946,134,2.2574,-4.2744,-18.3321,0.0599,-0.0839,-0.1883,39
7.483,144,9.2305,-0.2761,-7.705,0.2525,-0.1014,0.0026,70,6.998,135,2.3206,-4.3144,-18.186,0.0434,-0.1036,-0.1973,39
7.535,145,9.2706,-0.1838,-7.7892,0.2289,-0.0792,0.0216,70,7.05,136,2.3682,-4.3585,-18.062,0.0346,-0.086,-0.1939,39
7.587,146,9.3803,-0.112,-7.7888,0.1838,-0.0089,0.0536,70,7.101,137,2.4541,-4.397,-18.0249,0.0202,-0.0515,-0.1858,39
7.639,147,9.3702,-0.2326,-7.7164,0.1246,0.0327,0.0833,70,7.153,138,2.4905,-4.4344,-18.0698,0.0292,-0.0195,-0.1784,39
7.691,148,9.4609,-0.1662,-7.6921,0.0528,0.1015,0.1113,70,7.205,139,2.4557,-4.3124,-18.1169,0.0525,0.007,-0.1603,39
7.742,149,9.4168,-0.4039,-7.679,-0.0983,0.1338,0.1426,70,7.257,140,2.3892,-4.189,-18.132,0.0744,0.0364,-0.1461,39
7.794,150,9.3551,-0.4849,-7.421,-0.2392,0.1301,0.1074,70,7.309,141,2.4026,-4.0912,-18.1642,0.0847,0.0483,-0.1651,39
7.846,151,9.203,-0.0087,-7.6086,-0.4436,0.0685,0.019,70,7.36,142,2.5083,-4.0428,-18.2221,0.0754,0.0419,-0.1959,39
7.898,152,9.2017,-0.6289,-7.5276,-0.5575,0.0288,-0.089,70,7.412,143,2.5188,-4.0351,-18.2321,0.0661,0.0417,-0.211,39
7.949,153,9.0412,-0.9498,-7.4091,-0.4959,0.0504,-0.1383,70,7.464,144,2.4354,-4.0493,-18.1807,0.0299,0.0233,-0.2009,39
8.001,154,9.1659,-1.2145,-7.3462,-0.3906,0.012,-0.1905,70,7.516,145,2.4343,-4.0969,-18.1305,-0.0299,-0.0195,-0.1715,39
8.053,155,9.1733,-0.972,-7.2294,-0.3031,-0.0101,-0.1863,70,7.567,146,2.7157,-4.2196,-18.1436,-0.0961,-0.0585,-0.1324,39
8.105,156,9.1356,-1.0503,-7.4056,-0.014,-0.0309,-0.1904,70,7.619,147,3.118,-4.3283,-18.0602,-0.1454,-0.0736,-0.0972,39
8.157,157,9.1428,-0.925,-7.4256,0.1009,-0.0134,-0.1649,70,7.671,148,3.4306,-4.504,-17.7473,-0.1243,-0.0395,-0.1144,39
8.208,158,9.3488,-0.1873,-7.3098,0.2205,0.0047,-0.1112,70,7.723,149,3.4881,-4.5729,-17.6045,-0.0603,0.0371,-0.1162,39
8.26,159,9.1945,-0.2718,-7.2084,0.1887,-0.0677,-0.0954,70,7.775,150,3.379,-4.5617,-17.5504,-0.0227,0.1263,-0.0537,39
8.312,160,9.2268,-0.2366,-7.5364,0.5423,-0.1331,-0.0749,70,7.826,151,3.2673,-4.2905,-17.7481,-0.0753,0.2115,0.0634,39
8.364,161,9.3266,-0.2664,-7.6397,0.5553,-0.1927,-0.0238,70,7.878,152,3.192,-4.0331,-17.9894,-0.1535,0.2708,0.1907,39
8.416,162,9.363,-0.0568,-7.6488,0.6096,-0.2524,-0.0231,70,7.93,153,3.0206,-3.7631,-18.1062,-0.1652,0.2988,0.2791,39
8.467,163,9.5604,-0.2379,-7.6577,0.5555,-0.2344,0.0125,70,7.982,154,2.8917,-3.6107,-18.2042,-0.1096,0.3007,0.2854,39
8.519,164,9.4622,0.4176,-7.9259,0.5316,-0.2851,0.0068,70,8.033,155,2.9308,-3.485,-18.3473,-0.1012,0.2646,0.2509,39
8.571,165,9.5643,0.3932,-8.135,0.4225,-0.2659,0.024,70,8.085,156,3.122,-3.4211,-18.4359,-0.1278,0.1931,0.1875,39
8.623,166,9.6058,0.3493,-8.2888,0.3194,-0.2223,0.0189,70,8.137,157,3.1698,-3.5728,-18.3207,-0.0981,0.1137,0.0896,39
8.675,167,9.6093,0.3028,-8.3656,0.2227,-0.0857,0.056,70,8.189,158,3.2949,-3.7114,-18.1534,-0.1028,0.0854,0.0225,39
8.726,168,9.5427,0.1836,-8.2588,0.1406,0.0028,0.043,70,8.241,159,3.3517,-4.0846,-18.0361,-0.1122,0.1004,0.0337,39
8.778,169,9.7169,0.1602,-8.2988,0.0386,0.0091,-0.0006,70,8.292,160,3.1804,-4.4609,-16.6768,0.0108,0.1863,0.0556,39
8.83,170,9.8635,-0.4056,-7.8897,0.0114,-0.0614,-0.0644,70,8.344,161,2.2277,-4.3486,-14.6587,0.2311,0.5858,-0.0583,39
8.882,171,9.7951,-0.0971,-7.8376,-0.1086,-0.1388,-0.0212,70,8.396,162,3.8838,-4.512,-12.3331,0.2079,1.1125,-0.3023,39
8.933,172,9.639,-0.0276,-8.0203,-0.1313,-0.1742,-0.0144,70,8.447,163,5.8826,-3.334,-12.2894,0.1791,1.4969,-0.4934,39
8.985,173,9.4354,-0.1431,-8.2196,-0.115,-0.1509,-0.0079,70,8.5,164,9.1172,-1.581,-14.9161,-0.5464,1.7775,-0.6679,39
9.037,174,9.5974,0.1599,-8.3822,-0.0899,-0.0751,-0.0155,70,8.551,165,10.8522,2.1223,-10.1288,-0.0204,1.0095,-0.5917,39
9.089,175,9.6174,0.1644,-8.2814,-0.1167,0.0476,0.0271,70,8.603,166,9.0888,1.0449,-11.0016,0.1241,0.9774,-0.5997,39
9.141,176,9.6195,0.1606,-8.2813,-0.0995,0.0225,0.0583,70,8.655,167,8.9196,0.6536,-11.6593,0.0188,0.7217,-0.5309,39
9.192,177,9.5989,0.1027,-8.3052,-0.1263,0.0087,0.0989,70,8.706,168,8.8868,-0.2643,-11.8845,0.0007,0.5687,-0.465,39
9.244,178,9.5896,0.0364,-8.3789,-0.1074,0.0152,0.1046,70,8.758,169,8.6989,-0.1413,-11.9551,0.0086,0.3793,-0.361,39
9.296,179,9.6462,0.0569,-8.4141,-0.1016,0.0844,0.1298,70,8.81,170,8.7427,-0.5623,-11.9992,0.0475,0.169,-0.2531,39
9.348,180,9.6401,-0.1066,-8.3853,-0.0885,0.1925,0.1556,70,8.862,171,8.7317,-0.7474,-12.2088,0.0338,0.0131,-0.1193,39
9.399,181,9.7316,-0.188,-8.1673,-0.0673,0.2041,0.1357,70,8.914,172,8.6043,-1.0021,-12.4446,0.0215,-0.0732,-0.0141,39
9.451,182,9.6782,-0.5391,-7.9589,-0.0745,0.1903,0.1267,70,8.965,173,8.524,-1.2497,-12.7663,-0.0162,-0.0873,0.0453,39
9.503,183,9.5677,-0.5676,-7.8147,-0.0363,0.1398,0.0879,70,9.017,174,8.174,-1.608,-13.0342,-0.0367,-0.0941,0.0775,39
9.555,184,9.5981,-0.4504,-7.8414,-0.0432,0.1002,0.093,70,9.069,175,8.2105,-1.6868,-13.1642,-0.0293,-0.0781,0.0785,39
9.606,185,9.5222,-0.5168,-7.7758,-0.0514,0.135,0.1211,70,9.121,176,8.1365,-1.3989,-12.7389,-0.0093,-0.0735,0.0742,39
9.658,186,9.5349,-0.7208,-7.6429,-0.0837,0.2262,0.1621,70,9.172,177,8.2214,-1.4978,-12.7222,0.0961,-0.1007,0.1024,39
9.71,187,9.5252,-1.2433,-7.55,-0.1677,0.2218,0.1135,70,9.224,178,8.3467,-1.7073,-13.0612,0.1387,-0.0947,0.1131,39
9.762,188,9.469,-1.0925,-7.43,-0.1006,0.1775,0.0472,70,9.276,179,8.2091,-1.3431,-12.2473,0.215,-0.1165,0.188,39
9.814,189,9.4136,-0.9945,-7.4049,-0.0212,0.1082,-0.0008,70,9.328,180,7.9772,-2.2129,-13.1088,0.1628,-0.1074,0.1934,39
9.866,190,9.4155,-0.9064,-7.4468,-0.0261,0.0797,0.0248,70,9.38,181,8.327,-2.0942,-13.5972,0.0671,-0.0681,0.1955,39
9.918,191,9.304,-0.9547,-7.5061,0.0096,0.0829,0.0428,70,9.431,182,9.6579,-2.1705,-15.3553,-0.2956,-0.4107,0.3465,39
9.969,192,9.5109,-0.9646,-7.5463,0.0988,0.0343,0.0157,70,9.483,183,9.5663,-2.3386,-15.9788,-0.0124,-0.8388,0.4648,39
10.021,193,9.5508,-0.6091,-7.4421,0.0396,-0.0071,0.0683,70,9.535,184,8.8523,-2.2282,-15.6099,0.1455,-1.1831,0.4858,39
10.073,194,9.665,-0.7467,-7.6499,-0.0717,0.0277,0.1321,70,9.587,185,7.8806,-2.6592,-14.9778,-0.0779,-1.422,0.4279,39
10.124,195,9.4535,-1.2053,-7.5585,-0.1655,0.0473,0.0961,70,9.638,186,6.7637,-3.1844,-14.8577,-0.0815,-1.4277,0.2951,39
10.176,196,9.6024,-1.6892,-7.3525,-0.2262,0.0158,0.0131,70,9.69,187,6.0627,-3.2025,-14.9963,-0.1309,-1.3362,0.1515,39
10.228,197,9.4866,-1.3923,-7.3312,-0.2487,0.0093,-0.0179,70,9.742,188,5.6097,-3.4924,-15.358,-0.1009,-1.176,0.0944,39
