right_leg_timestamp,right_leg_index,right_leg_accel_x,right_leg_accel_y,right_leg_accel_z,right_leg_gyro_x,right_leg_gyro_y,right_leg_gyro_z,right_leg_battery_percentage,left_leg_timestamp,left_leg_index,left_leg_accel_x,left_leg_accel_y,left_leg_accel_z,left_leg_gyro_x,left_leg_gyro_y,left_leg_gyro_z,left_leg_battery_percentage
0.101,1,9.5115,1.256,-14.7055,-0.1142,-1.5433,-0.4375,87,0.028,0,7.895,3.7205,-9.8786,0.0667,-0.039,0.3591,51
0.153,2,8.7184,1.3254,-15.039,-0.0399,-1.7412,-0.4804,87,0.08,1,7.9026,3.6197,-9.7899,-0.0499,-0.052,0.2051,51
0.204,3,7.7429,1.3499,-14.9765,0.0578,-1.794,-0.4464,87,0.131,2,7.9902,3.6684,-9.8371,0.0624,-0.1977,0.2208,51
0.256,4,6.8718,1.5299,-15.2347,0.098,-1.6556,-0.3897,87,0.183,3,8.1534,3.151,-10.2868,0.0755,-0.3113,0.2206,51
0.308,5,6.1786,1.8688,-15.1596,0.1037,-1.4359,-0.3196,87,0.235,4,8.3163,2.9269,-10.3131,0.0194,-0.1411,0.1212,51
0.36,6,5.5328,1.9682,-15.5288,0.0989,-1.12,-0.2469,87,0.287,5,8.2467,3.0797,-10.2526,0.0052,-0.0569,0.0901,51
0.412,7,5.1629,2.1687,-15.8642,0.0768,-0.8513,-0.1975,87,0.339,6,8.3626,2.9739,-10.32,-0.0011,-0.0662,0.1328,51
0.463,8,4.9028,1.9802,-16.5984,0.0981,-0.5932,-0.1269,87,0.39,7,8.4554,2.8888,-10.3768,-0.0178,-0.0685,0.1364,51
0.515,9,4.9701,2.1475,-17.1355,0.1234,-0.398,-0.0828,87,0.442,8,8.4289,2.7484,-10.3036,-0.0717,-0.0677,0.1046,51
0.567,10,5.0997,2.221,-17.4662,0.0672,-0.2499,-0.015,87,0.494,9,8.476,2.7108,-10.3018,-0.0697,-0.0873,0.0554,51
0.619,11,5.1591,2.4179,-17.7372,0.0172,-0.204,0.1078,87,0.546,10,8.5532,2.6712,-10.341,-0.0869,-0.033,0.0031,51
0.67,12,5.0408,2.3388,-17.8752,-0.0137,-0.1773,0.1913,87,0.597,11,8.5407,2.6761,-10.3397,-0.0888,0.013,-0.0342,51
0.722,13,4.8315,2.3785,-18.0808,-0.0164,-0.1376,0.2016,87,0.649,12,8.5495,2.6558,-10.3619,-0.0991,0.0502,-0.0658,51
0.774,14,4.4877,2.4899,-18.1565,0.0235,-0.0997,0.157,87,0.701,13,8.5536,2.7104,-10.2336,-0.1141,0.1466,-0.0949,51
0.826,15,4.5254,2.465,-18.1826,0.0846,-0.1276,0.0405,87,0.753,14,8.611,2.5502,-10.3276,-0.1564,0.2124,-0.1535,51
0.878,16,4.8189,2.3528,-18.0957,0.1243,-0.1619,-0.1571,87,0.805,15,8.1834,3.3246,-9.8702,-0.1026,0.2114,-0.2109,51
0.929,17,4.9414,2.363,-18.0977,0.2271,-0.1229,-0.3492,87,0.857,16,8.3832,3.2063,-10.0021,-0.0759,0.2268,-0.2538,51
0.981,18,4.9423,2.371,-17.8645,0.2894,-0.0572,-0.4691,87,0.908,17,8.3905,3.2559,-9.7949,-0.0586,0.2164,-0.2954,51
1.033,19,4.7064,2.0707,-17.9499,0.3716,0.0019,-0.5408,87,0.96,18,8.2286,3.4195,-9.594,0.0514,0.1998,-0.2288,51
1.085,20,4.3478,1.7938,-18.1375,0.4388,0.0784,-0.5389,87,1.012,19,7.7448,3.8199,-9.104,0.0898,0.1345,-0.1442,51
1.137,21,4.1476,1.7493,-18.2958,0.4386,0.0904,-0.4446,87,1.064,20,7.6823,4.0264,-9.6113,0.2385,-0.1096,0.2484,51
1.188,22,4.5167,2.6943,-18.2856,0.3448,0.1304,-0.1694,87,1.116,21,8.2585,3.3594,-9.8912,0.1084,-0.1642,0.1627,51
1.24,23,4.7011,2.4306,-18.4322,0.2759,0.1528,0.0024,87,1.167,22,8.2946,3.2859,-9.9284,0.1122,-0.1518,0.1448,51
1.292,24,5.1677,2.6372,-18.2813,0.0083,0.0323,0.0065,87,1.219,23,8.5559,3.0376,-9.8091,0.0584,-0.1376,0.061,51
1.344,25,5.0253,2.4966,-18.2912,-0.1284,0.0259,0.0677,87,1.271,24,8.5614,2.9152,-10.1854,0.0423,-0.0831,-0.0808,51
1.396,26,4.8319,2.5581,-18.3155,-0.2492,-0.0137,0.1478,87,1.323,25,8.5106,3.0586,-10.1087,0.0455,-0.0311,-0.2176,51
1.447,27,4.2663,2.7117,-18.0511,-0.2058,-0.114,0.1326,87,1.374,26,8.1895,3.3511,-9.7568,0.0903,0.0123,-0.1799,51
1.499,28,3.8082,2.3942,-18.125,-0.1764,-0.0147,0.0989,87,1.426,27,7.6296,3.7179,-9.6956,0.2009,-0.1378,0.1425,51
1.551,29,4.1416,1.7867,-18.2397,-0.195,0.0553,0.0687,87,1.478,28,8.0371,3.3636,-10.0455,0.0688,-0.1785,0.1836,51
1.603,30,4.3614,2.1302,-18.3279,-0.0521,-0.047,0.262,87,1.53,29,8.1087,3.3096,-10.1058,0.0733,-0.1652,0.146,51
1.655,31,4.7259,2.3623,-18.4192,-0.0511,-0.0823,0.3556,87,1.582,30,8.3241,3.1354,-10.1383,-0.0021,-0.102,0.0821,51
1.706,32,4.6419,2.2255,-18.4494,-0.1272,-0.0838,0.3166,87,1.633,31,8.3117,3.032,-10.3109,-0.0201,0.0076,-0.0095,51
1.758,33,4.4519,2.6321,-18.404,0.0318,-0.0148,0.2493,87,1.685,32,8.2672,3.0971,-10.3359,0.0564,-0.0269,0.016,51
1.81,34,3.7795,3.1645,-18.3698,-0.0883,-0.0376,0.0736,87,1.737,33,8.304,3.0728,-10.4268,0.0874,-0.1007,0.1212,51
1.862,35,3.4052,3.288,-17.7685,-0.192,0.1062,-0.0027,87,1.789,34,8.3581,2.9871,-10.4177,0.0856,-0.1177,0.1502,51
1.914,36,4.0294,2.2437,-18.0278,-0.1716,0.0687,-0.0581,87,1.84,35,8.5391,2.844,-10.5177,0.0508,-0.1395,0.1254,51
1.965,37,4.5859,2.4242,-18.0338,-0.0171,-0.0623,0.102,87,1.892,36,8.6,2.7096,-10.5831,-0.0118,-0.0658,0.0545,51
2.017,38,4.8779,2.8448,-18.1616,0.0947,-0.093,0.101,87,1.944,37,8.6064,2.6908,-10.5877,-0.0598,-0.0347,0.0057,51
2.069,39,4.7551,2.9377,-18.1481,-0.0785,-0.0125,-0.0905,87,1.996,38,8.5302,2.79,-10.4936,-0.0591,-0.0306,-0.0097,51
2.121,40,4.8693,2.5558,-18.2033,0.0138,0.0826,-0.154,87,2.048,39,8.5346,2.7713,-10.5869,-0.0352,-0.0685,-0.0182,51
2.173,41,4.5461,2.2232,-18.458,0.058,0.105,-0.1814,87,2.099,40,8.5567,2.7513,-10.6279,-0.0462,-0.0658,-0.0232,51
2.224,42,4.3861,1.7461,-18.5308,0.1189,0.0421,-0.1603,87,2.151,41,8.5347,2.7628,-10.699,-0.0814,-0.0296,-0.0438,51
2.276,43,4.2942,1.7801,-18.5893,0.2026,-0.1128,-0.1447,87,2.203,42,8.538,2.7902,-10.6682,-0.09,0.0295,-0.0478,51
2.328,44,4.4174,2.0477,-18.5369,0.2439,-0.1895,-0.1247,87,2.255,43,8.4929,2.8363,-10.6493,-0.0977,0.0601,-0.0663,51
2.38,45,4.3099,2.0049,-18.6754,0.255,-0.2182,-0.1917,87,2.307,44,8.5101,2.8328,-10.6236,-0.1044,0.0835,-0.1032,51
2.431,46,4.1945,1.9482,-18.7339,0.2361,-0.202,-0.1481,87,2.358,45,8.5335,2.8045,-10.45,-0.1272,0.1346,-0.1832,51
2.483,47,3.8843,1.6742,-18.8135,0.2,-0.2378,0.0521,87,2.41,46,8.3598,3.0762,-10.4257,-0.1117,0.1914,-0.3061,51
2.535,48,3.6638,1.8899,-18.9056,0.1554,-0.1648,0.2885,87,2.462,47,8.3485,3.1834,-10.3099,-0.0839,0.1691,-0.3337,51
2.587,49,3.7714,1.7527,-18.7686,0.1989,-0.1264,0.2267,87,2.514,48,8.4302,3.3639,-10.2555,-0.0061,0.1878,-0.3749,51
2.639,50,3.968,1.5703,-18.8277,0.2625,-0.1192,0.054,87,2.566,49,8.027,3.6958,-10.0047,0.1089,0.1731,-0.3037,51
2.69,51,3.9412,1.3984,-18.877,0.2316,-0.1899,-0.0082,87,2.617,50,7.7027,3.8844,-9.964,0.1213,0.0547,-0.0747,51
2.742,52,3.8888,1.3921,-18.8215,0.0813,-0.2042,-0.0726,87,2.669,51,8.2698,3.7329,-10.1119,0.0546,-0.0145,0.0263,51
2.794,53,3.7207,1.3543,-18.7507,-0.017,-0.1326,-0.0788,87,2.721,52,8.2704,3.6454,-10.4054,0.0399,-0.1216,0.2611,51
2.846,54,3.736,1.3655,-18.9022,0.0654,-0.059,-0.0659,87,2.773,53,8.4608,3.3751,-10.3855,-0.0086,-0.0964,0.1873,51
2.898,55,3.5701,1.4977,-19.1224,0.0244,-0.0361,-0.0415,87,2.824,54,8.4868,3.2816,-10.4444,-0.0229,-0.0237,0.0902,51
2.949,56,3.2437,1.6672,-18.9894,-0.1031,-0.0411,0.0569,87,2.876,55,8.35,3.3862,-10.3546,-0.0498,0.0581,-0.0081,51
3.001,57,2.803,2.1815,-18.6506,-0.2248,-0.0492,0.1265,87,2.928,56,8.3105,3.4245,-10.2304,-0.0165,0.0678,0.0109,51
3.053,58,2.9424,1.2657,-18.7419,0.0255,0.0652,0.1026,87,2.98,57,8.4119,3.3767,-10.1336,0.0037,0.0799,0.0168,51
3.105,59,3.1072,1.596,-18.8953,0.1756,0.2393,0.2842,87,3.031,58,8.2806,3.3775,-10.2473,-0.0078,0.0964,-0.0033,51
3.157,60,3.4372,1.2008,-19.2889,0.2101,0.2827,0.3071,87,3.083,59,8.227,3.4634,-10.0585,0.0063,0.0531,-0.0014,51
3.208,61,3.6579,1.1534,-19.1153,-0.0046,0.1767,0.2349,87,3.135,60,8.1746,3.4587,-10.1215,0.0462,-0.0074,0.0798,51
3.26,62,3.6686,1.1858,-18.897,-0.0303,0.12,0.1698,87,3.187,61,8.3324,3.3454,-10.147,0.0552,-0.0836,0.1562,51
3.312,63,3.8796,1.2393,-18.7593,-0.0091,0.1029,0.0801,87,3.238,62,8.4692,3.1846,-10.2733,0.032,-0.0884,0.1236,51
3.364,64,3.9683,1.0064,-18.7225,0.1196,0.1037,-0.0396,87,3.29,63,8.4996,3.1344,-10.2557,-0.0253,-0.014,0.0449,51
3.416,65,4.0948,0.8587,-18.7968,0.151,0.1206,-0.0524,87,3.342,64,8.4369,3.1786,-10.2229,-0.0411,0.0041,0.005,51
3.467,66,4.1412,0.8949,-18.7405,0.1479,0.104,-0.0381,87,3.394,65,8.3574,3.247,-10.1821,-0.0252,0.0015,0.0055,51
3.519,67,4.0669,1.0279,-18.7672,0.0838,0.0472,-0.0819,87,3.446,66,8.3606,3.2371,-10.1376,0.008,-0.0123,0.0107,51
3.571,68,4.1007,0.6785,-18.7472,0.0535,0.0463,-0.0625,87,3.497,67,8.3875,3.2081,-10.1814,0.0197,-0.0133,-0.0009,51
3.623,69,4.1082,0.5805,-18.8725,0.018,0.057,0.0873,87,3.549,68,8.4062,3.1909,-10.1935,0.0104,0.0055,-0.0231,51
3.674,70,4.0624,0.7333,-18.8877,-0.2374,0.0175,0.1736,87,3.601,69,8.4059,3.2149,-10.1933,0.0038,0.0052,-0.0156,51
3.726,71,4.0994,0.8734,-18.6869,-0.2566,0.0007,0.1895,87,3.653,70,8.4566,3.2033,-10.2197,-0.0124,0.0263,-0.0056,51
3.778,72,4.205,1.0814,-18.59,-0.174,0.0098,0.1217,87,3.705,71,8.6944,3.2639,-9.8355,-0.0366,0.075,-0.0299,51
3.83,73,4.2491,0.9684,-18.5229,-0.0223,0.0379,0.0102,87,3.756,72,8.5894,3.307,-9.8465,-0.0501,0.104,-0.1288,51
3.882,74,4.2172,0.8809,-18.661,0.0918,0.06,-0.0329,87,3.808,73,8.4297,3.4263,-9.7919,0.0016,0.095,-0.189,51
3.933,75,4.1406,0.8799,-18.7679,0.0488,0.0458,-0.0508,87,3.86,74,8.0664,3.6925,-9.6363,0.0523,0.0689,-0.1552,51
3.985,76,4.0895,0.9771,-18.8028,-0.0417,0.023,-0.0411,87,3.912,75,8.4939,3.347,-9.9493,0.0973,0.0322,-0.044,51
4.037,77,4.1087,0.9609,-18.7634,-0.1042,0.0267,-0.052,87,3.964,76,8.4228,3.4048,-9.9997,0.0326,-0.0018,-0.0536,51
4.089,78,4.2249,0.9666,-18.7612,-0.1186,0.0519,-0.046,87,4.015,77,8.3784,3.4456,-10.0263,-0.0044,-0.0116,-0.0652,51
4.14,79,4.4907,0.9773,-18.6419,-0.1321,0.0527,-0.0365,87,4.067,78,8.232,3.5757,-9.9719,-0.0032,0.0215,-0.0355,51
4.192,80,4.5791,1.1628,-18.6039,-0.157,0.0185,-0.0635,87,4.119,79,8.3072,3.4825,-9.9603,-0.0065,0.0473,-0.0091,51
4.244,81,4.4246,1.4782,-18.4455,-0.1407,0.0182,-0.1348,87,4.171,80,8.2501,3.531,-9.9586,-0.0239,0.0498,-0.0036,51
4.296,82,4.5453,1.3385,-18.3798,-0.1839,-0.0266,-0.1671,87,4.222,81,8.0966,3.6574,-9.8224,0.032,0.0147,0.0522,51
4.347,83,4.4186,1.4354,-18.5347,0.0056,0.0725,0.0124,87,4.274,82,8.1137,3.5726,-10.0786,0.0897,-0.0815,0.2292,51
4.4,84,4.4253,1.5023,-18.7197,0.0686,0.1054,0.1142,87,4.326,83,8.3025,3.3245,-10.1502,0.0538,-0.1414,0.2154,51
4.451,85,4.345,1.6946,-18.7214,-0.0283,0.0224,0.0624,87,4.378,84,8.3427,3.2608,-10.2069,0.0198,-0.1274,0.1338,51
4.503,86,4.3823,1.4686,-18.5408,-0.1928,-0.0462,0.0198,87,4.43,85,8.3184,3.2648,-10.2244,0.0258,-0.1098,0.0967,51
4.555,87,4.4758,1.4709,-18.2967,-0.0919,-0.0047,0.062,87,4.481,86,8.4234,3.1383,-10.2697,0.0296,-0.0807,0.072,51
4.607,88,4.4616,1.7971,-18.4172,0.0733,0.0318,0.0495,87,4.533,87,8.4746,3.1054,-10.2644,-0.0037,-0.0178,0.0258,51
4.659,89,4.4265,1.7622,-18.3724,-0.0237,0.0032,0.0092,87,4.585,88,8.461,3.1164,-10.268,-0.0398,0.0192,-0.0555,51
4.71,90,4.4484,1.2704,-18.4621,0.0144,0.0413,0.1085,87,4.637,89,8.3868,3.2098,-10.225,-0.063,0.0585,-0.1291,51
4.762,91,4.542,1.3623,-18.4857,0.0839,0.0805,0.2815,87,4.688,90,8.2631,3.3431,-10.1138,-0.0474,0.0819,-0.1151,51
4.814,92,4.5536,1.5705,-18.6012,0.0009,0.0226,0.2342,87,4.74,91,8.3392,3.3147,-10.0938,-0.0369,0.1023,-0.0835,51
4.866,93,4.5362,1.4134,-18.4922,-0.1682,-0.0435,0.1033,87,4.792,92,8.2759,3.3741,-10.0229,-0.039,0.1042,-0.0827,51
4.918,94,4.5508,1.2092,-18.3093,-0.14,0.0045,0.0732,87,4.844,93,8.1752,3.475,-9.9146,-0.0224,0.0733,-0.0552,51
4.969,95,4.5632,1.2301,-18.4514,0.0583,0.064,0.1015,87,4.895,94,8.1522,3.4979,-9.9374,0.0251,0.019,0.0411,51
5.021,96,4.5593,1.4594,-18.5739,0.0724,0.0572,0.0728,87,4.947,95,8.2907,3.3583,-9.9954,0.0188,0.0104,0.0454,51
5.073,97,4.4938,1.5343,-18.4976,-0.0468,0.0192,0.0055,87,4.999,96,8.3489,3.3169,-10.0104,0.0113,0.0022,0.0367,51
5.124,98,4.5391,1.3479,-18.356,-0.0435,0.0194,-0.0244,87,5.051,97,8.3152,3.3341,-9.9735,0.0082,0.0045,0.0313,51
5.176,99,4.5975,1.373,-18.3323,0.0661,0.0497,0.0036,87,5.103,98,8.348,3.302,-9.9744,0.0159,-0.0019,0.0463,51
5.228,100,4.6261,1.4989,-18.3766,0.145,0.0578,-0.0299,87,5.155,99,8.3759,3.2692,-9.9712,0.0089,-0.01,0.045,51
5.28,101,4.5383,1.5962,-18.3072,0.0745,0.0252,-0.0943,87,5.206,100,8.3116,3.3132,-9.9025,0.0174,-0.0246,0.0502,51
5.332,102,4.5994,1.1918,-18.2652,0.1334,0.0352,-0.0912,87,5.258,101,8.2633,3.3328,-10.0118,0.059,-0.0692,0.1205,51
5.383,103,4.6872,1.2482,-18.3478,0.173,0.065,-0.0023,87,5.31,102,8.3996,3.1867,-9.9918,0.0457,-0.0899,0.1188,51
5.435,104,4.6946,1.2944,-18.3923,0.1551,0.0424,-0.0095,87,5.362,103,8.4266,3.1227,-10.0868,0.0264,-0.0953,0.0745,51
5.487,105,4.6748,1.1759,-18.3631,0.0432,0.0088,-0.0152,87,5.413,104,8.4103,3.1305,-10.1382,0.0136,-0.082,0.0269,51
5.539,106,4.7116,1.0789,-18.2889,0.0647,0.0196,0.0309,87,5.465,105,8.418,3.1138,-10.1798,0.0174,-0.0835,0.0172,51
5.591,107,4.742,1.1718,-18.3925,0.0781,0.0246,0.0733,87,5.517,106,8.4175,3.1151,-10.2117,0.0164,-0.0721,0.0065,51
5.642,108,4.7223,1.2603,-18.3734,-0.0373,-0.0176,0.0488,87,5.569,107,8.4301,3.092,-10.2541,0.0144,-0.0603,-0.0015,51
5.694,109,4.7377,1.0499,-18.4261,-0.105,-0.0581,0.0157,87,5.621,108,8.4295,3.0923,-10.2884,0.0136,-0.0493,-0.0127,51
5.746,110,4.7901,1.0369,-18.3657,-0.2204,-0.0756,0.0806,87,5.672,109,8.4209,3.1061,-10.3019,0.0187,-0.0412,-0.0132,51
5.798,111,4.7413,1.1959,-18.3439,-0.1884,-0.0825,0.0883,87,5.724,110,8.4423,3.0897,-10.307,0.019,-0.0315,-0.0214,51
5.85,112,4.6513,1.3094,-18.3058,-0.1398,-0.0635,0.0692,87,5.776,111,8.4302,3.0956,-10.3501,0.0232,-0.0283,-0.0232,51
5.901,113,4.6275,1.2896,-18.3238,-0.0349,-0.0236,0.0465,87,5.827,112,8.3788,3.1486,-10.2927,0.0405,-0.0305,-0.0109,51
5.953,114,4.6464,1.2739,-18.3979,0.0468,0.0001,0.0351,87,5.879,113,8.3496,3.1422,-10.3824,0.0753,-0.0379,0.0329,51
6.005,115,4.6398,1.2768,-18.3898,0.0691,-0.0065,0.0122,87,5.931,114,8.3898,3.0909,-10.4375,0.0793,-0.0403,0.058,51
6.057,116,4.6349,1.2785,-18.4085,0.1019,-0.0008,-0.0114,87,5.983,115,8.415,3.0437,-10.4978,0.0848,-0.0571,0.0754,51
6.109,117,4.6437,1.1876,-18.3698,0.1216,0.012,-0.0086,87,6.035,116,8.4409,2.9959,-10.5459,0.0654,-0.063,0.0808,51
6.16,118,4.6813,1.1747,-18.4205,0.1438,0.0257,0.0035,87,6.086,117,8.461,2.938,-10.564,0.0289,-0.0596,0.0861,51
6.212,119,4.6817,1.2538,-18.459,0.0954,0.0085,-0.0364,89,6.138,118,8.477,2.8965,-10.5912,-0.0108,-0.0512,0.0815,51
6.264,120,4.5943,1.2093,-18.4707,0.0217,-0.0107,-0.103,89,6.19,119,8.5342,2.8318,-10.5965,-0.0555,-0.0067,0.0478,51
6.316,121,4.5985,1.1244,-18.41,0.0166,-0.0102,-0.1118,89,6.242,120,8.5494,2.8164,-10.5559,-0.0771,0.0342,0.0196,51
6.368,122,4.557,1.1287,-18.4477,0.0331,-0.0037,-0.0727,89,6.293,121,8.5108,2.8731,-10.4491,-0.0928,0.1027,-0.0291,51
6.419,123,4.4614,1.1671,-18.5262,0.0231,-0.0033,-0.0301,89,6.345,122,8.4331,2.9173,-10.4532,-0.0772,0.087,-0.0581,51
6.471,124,4.4257,1.1389,-18.5307,-0.051,-0.0125,0.0326,89,6.397,123,8.4049,2.9829,-10.4102,-0.0354,0.0525,-0.0725,51
6.523,125,4.4682,1.118,-18.49,-0.1241,-0.0253,0.103,89,6.449,124,8.4143,3.0165,-10.3768,-0.0086,0.0435,-0.0731,51
6.575,126,4.5244,1.1095,-18.4612,-0.1598,-0.0304,0.1373,89,6.501,125,8.4006,3.0416,-10.3377,0.0031,0.0274,-0.0609,51
6.626,127,4.5711,1.194,-18.3793,-0.1542,-0.0142,0.149,89,6.552,126,8.3874,3.0793,-10.3204,0.0075,0.0226,-0.0506,51
6.678,128,4.7224,1.2154,-18.3013,-0.1172,-0.0001,0.1245,89,6.604,127,8.3425,3.1089,-10.3205,0.0351,0.0012,-0.0247,51
6.73,129,4.8421,1.2567,-18.2724,-0.0656,0.0158,0.1045,89,6.656,128,8.3547,3.1112,-10.3614,0.0437,-0.0044,0.0209,51
6.782,130,4.8938,1.3573,-18.2743,-0.0,0.0262,0.0487,89,6.708,129,8.4451,3.043,-10.338,0.0159,-0.0098,0.0367,51
6.834,131,4.8019,1.3642,-18.2879,0.0609,0.0432,-0.0416,89,6.76,130,8.5276,2.9802,-10.3443,-0.0215,0.0109,0.004,51
6.885,132,4.7155,1.3216,-18.3708,0.1057,0.0488,-0.0632,89,6.811,131,8.4628,3.0287,-10.3157,-0.0484,0.0554,-0.0327,51
6.937,133,4.7174,1.3221,-18.4095,0.0908,0.0358,-0.0558,89,6.863,132,8.4691,3.0511,-10.259,-0.0476,0.0643,-0.0303,51
6.989,134,4.6329,1.3695,-18.4005,0.0751,0.0147,-0.07,89,6.915,133,8.4581,3.0668,-10.2833,-0.0466,0.075,-0.0435,51
7.041,135,4.5703,1.2738,-18.4254,0.0783,0.0101,-0.0896,89,6.967,134,8.4826,3.0909,-10.2196,-0.0571,0.0694,-0.0707,51
7.093,136,4.624,1.1681,-18.4597,0.0487,0.0133,-0.0335,89,7.018,135,8.4717,3.1739,-10.189,-0.0521,0.058,-0.0923,51
7.144,137,4.7076,1.203,-18.4529,-0.011,-0.0005,0.0157,89,7.07,136,8.4807,3.1721,-10.1537,-0.0492,0.0711,-0.1165,51
7.196,138,4.7339,1.2766,-18.3579,-0.0036,0.0028,-0.0084,89,7.122,137,8.5072,3.1524,-10.1629,-0.0481,0.0848,-0.1289,51
7.248,139,4.7618,1.2238,-18.3166,0.0272,0.0184,-0.0391,89,7.174,138,8.1162,3.7241,-10.3473,-0.0278,0.0889,-0.1531,51
7.3,140,4.7935,1.1411,-18.3413,0.0678,0.0391,-0.0181,89,7.226,139,8.0402,3.7781,-10.1806,-0.018,0.0857,-0.131,51
7.352,141,4.8425,1.1539,-18.4176,0.0495,0.0277,0.0128,89,7.277,140,8.0323,3.988,-9.973,0.0152,0.0948,-0.0423,51
7.403,142,4.8117,1.2065,-18.3647,-0.0046,0.0,0.0049,89,7.329,141,7.6692,4.1042,-9.7045,0.0393,0.001,0.0808,51
7.455,143,4.7431,1.1539,-18.3653,-0.0055,-0.0025,-0.0054,89,7.381,142,8.2247,3.7273,-10.0403,-0.014,-0.0829,0.2835,51
7.507,144,4.749,1.0761,-18.2961,0.0473,0.0051,0.0531,89,7.433,143,8.3023,3.5317,-10.0432,-0.0714,-0.0943,0.1857,51
7.559,145,4.7195,1.064,-18.4116,0.0975,-0.0031,0.1494,89,7.484,144,8.2817,3.454,-10.0784,-0.0523,-0.1097,0.1307,51
7.611,146,4.7004,1.2385,-18.4347,-0.0009,-0.0294,0.2109,89,7.536,145,8.3582,3.3133,-10.1358,0.0057,-0.0786,0.1217,51
7.662,147,4.6645,1.3127,-18.371,-0.0723,-0.0621,0.1772,89,7.588,146,8.4322,3.1617,-10.1491,0.0174,-0.0338,0.0848,51
7.714,148,4.5452,1.213,-18.2384,-0.2135,-0.086,0.1374,89,7.64,147,8.4262,3.1163,-10.1499,0.0198,-0.0226,0.0524,51
7.766,149,4.6517,0.8146,-18.2136,-0.2994,-0.0969,0.1203,89,7.691,148,8.4376,3.0752,-10.188,0.0263,-0.0154,0.048,51
7.818,150,4.7434,0.9141,-18.5637,-0.1157,0.0017,0.2256,89,7.743,149,8.4917,3.0407,-10.1107,0.0211,0.015,0.026,51
7.87,151,5.0021,1.233,-18.2444,-0.196,0.0077,0.2224,89,7.795,150,8.4627,3.0334,-10.1292,0.0079,-0.0004,0.0111,51
7.921,152,4.7349,1.4953,-18.4658,-0.2454,-0.0755,0.0391,89,7.847,151,8.4418,3.0392,-10.1226,0.0127,0.0008,0.0082,51
7.973,153,4.6008,1.1244,-18.1396,-0.3719,-0.0736,-0.0281,89,7.899,152,8.3952,3.0474,-10.1496,0.039,-0.0072,0.023,51
8.025,154,4.6055,1.2651,-18.2457,-0.1444,-0.0023,0.0546,89,7.951,153,8.4891,2.9513,-10.1895,0.0227,-0.0069,0.0499,51
8.077,155,4.6873,1.3825,-18.2674,0.0309,0.0353,0.0465,89,8.002,154,8.521,2.9079,-10.1767,-0.0105,0.003,0.0278,51
8.128,156,4.6748,1.395,-18.4812,-0.0139,0.0124,-0.0097,89,8.054,155,8.4996,2.9144,-10.2403,-0.0489,-0.0016,0.0079,51
8.18,157,4.7523,1.2448,-18.2129,-0.0877,-0.0037,0.0104,89,8.106,156,8.4696,2.9385,-10.1821,-0.0772,0.0216,-0.011,51
8.232,158,4.7313,1.4036,-18.3237,0.0242,0.0129,0.0125,89,8.158,157,8.4609,2.9479,-10.1804,-0.0458,0.0166,-0.0158,51
8.284,159,4.6457,1.4066,-18.2418,0.0231,0.0145,-0.0232,89,8.209,158,8.4551,2.9652,-10.1448,-0.0175,0.0234,-0.0293,51
8.336,160,4.5221,1.2124,-18.4022,0.0578,0.0204,-0.0237,89,8.261,159,8.418,2.9903,-10.1099,0.0186,0.0074,-0.0175,51
8.387,161,4.4377,1.1015,-18.4012,0.0447,0.0074,0.1027,89,8.313,160,8.4727,2.9318,-10.1386,0.0395,-0.0237,0.0158,51
8.439,162,4.4912,1.164,-18.4805,0.0254,0.025,0.2658,89,8.365,161,8.5341,2.9174,-10.1897,0.0189,-0.0137,0.011,51
8.491,163,4.845,1.3488,-18.4458,-0.0522,-0.0798,0.2452,89,8.416,162,8.567,2.9446,-10.1101,-0.021,0.0095,0.001,51
8.543,164,5.1265,1.3082,-18.3101,-0.1606,-0.1556,0.1348,89,8.468,163,8.5398,2.9542,-10.0598,-0.0448,0.0233,-0.0078,51
8.595,165,5.0225,1.1711,-18.2312,-0.0949,-0.0946,0.0434,89,8.52,164,8.5353,2.94,-10.0665,-0.047,0.0342,-0.0163,51
8.646,166,4.8199,1.2421,-18.27,0.0645,-0.0161,-0.0103,89,8.572,165,8.5226,2.9626,-10.0476,-0.0413,0.0402,-0.0562,51
8.698,167,4.62,1.1914,-18.442,0.0901,0.0065,-0.0331,89,8.623,166,8.5232,2.9588,-9.9898,-0.0364,0.031,-0.083,51
8.75,168,4.5468,1.0708,-18.5387,0.0601,0.0108,-0.0069,89,8.675,167,8.5146,2.9841,-10.0217,-0.0325,0.0342,-0.0943,51
8.802,169,4.5642,1.1539,-18.5596,-0.0008,-0.0072,0.0236,89,8.727,168,8.4849,3.0449,-9.9803,-0.0296,0.0596,-0.0799,51
8.854,170,4.6519,1.165,-18.4406,-0.0696,-0.0443,0.0234,89,8.779,169,8.432,3.1054,-9.9396,-0.0079,0.0624,-0.0621,51
8.905,171,4.7323,1.2309,-18.2897,-0.0434,-0.0371,0.0126,89,8.831,170,8.4703,3.079,-9.9537,0.0045,0.0821,-0.0308,51
8.957,172,4.5983,1.1208,-18.3878,-0.0797,0.0216,-0.177,89,8.882,171,8.3575,3.1688,-9.872,0.0262,0.1202,0.0125,51
9.009,173,4.5735,1.5603,-18.4085,-0.2113,0.1308,-0.3381,89,8.934,172,8.3921,3.1359,-9.7646,0.0481,0.1322,0.0454,51
9.061,174,4.5301,1.6398,-17.7347,-0.402,0.3354,-0.3473,89,8.986,173,8.3593,3.1542,-9.7503,0.0892,0.1033,0.0652,51
9.113,175,4.6527,1.8055,-16.9383,-0.4122,0.6528,-0.2982,89,9.038,174,8.4218,3.113,-9.7557,0.1043,0.1143,0.0916,51
9.164,176,5.2632,2.1569,-16.2639,-0.1714,1.0931,-0.2447,89,9.089,175,8.4299,3.0832,-9.7161,0.1715,0.1607,0.1396,51
9.216,177,6.1871,1.7336,-15.7739,-0.0446,1.4731,-0.1327,89,9.141,176,8.4019,3.3556,-9.515,0.2649,0.1663,0.2375,51
9.268,178,7.3252,1.9147,-15.6284,-0.006,1.7535,-0.02,89,9.193,177,8.5624,3.276,-9.3946,0.2282,0.1583,0.2646,51
9.32,179,8.015,1.5355,-15.743,0.1905,1.9201,0.0867,89,9.245,178,8.5028,3.07,-9.4161,0.0975,0.1296,0.2895,51
9.372,180,8.4225,1.3568,-15.4252,0.4717,1.904,0.197,89,9.297,179,8.4234,2.6605,-9.5732,-0.0324,0.1062,0.3014,51
9.423,181,8.1657,1.0293,-15.0158,0.7995,1.7002,0.3491,89,9.348,180,8.6503,2.5035,-9.5069,-0.1332,0.1203,0.2784,51
9.475,182,10.6601,2.8149,-18.5608,0.4109,1.0975,0.2978,89,9.4,181,8.6065,2.3075,-9.3632,-0.1784,0.1023,0.2316,51
9.527,183,11.4934,3.1453,-17.3659,0.4857,0.8289,0.3312,89,9.452,182,8.6329,2.1539,-9.2914,-0.2049,0.0721,0.1841,51
