right_leg_timestamp,right_leg_index,right_leg_accel_x,right_leg_accel_y,right_leg_accel_z,right_leg_gyro_x,right_leg_gyro_y,right_leg_gyro_z,right_leg_battery_percentage,left_leg_timestamp,left_leg_index,left_leg_accel_x,left_leg_accel_y,left_leg_accel_z,left_leg_gyro_x,left_leg_gyro_y,left_leg_gyro_z,left_leg_battery_percentage
0.016,0,9.5855,0.3314,-9.1677,-0.0778,-0.2042,-0.2086,91,0.384,7,8.4956,2.8321,-9.0089,0.0612,-0.1324,0.1247,62
0.067,1,9.505,0.2239,-9.0551,-0.0107,-0.1264,-0.1378,91,0.436,8,8.5417,2.7631,-9.1081,0.0531,-0.1313,0.1412,62
0.119,2,9.5882,0.2526,-8.6049,-0.0821,0.0514,-0.0476,91,0.487,9,8.5575,2.7178,-9.1642,0.0415,-0.1148,0.1512,62
12.762,246,9.7569,0.9185,-8.8969,-0.2684,-0.3431,-0.2499,91,0.539,10,8.5705,2.6371,-9.1803,0.0421,-0.1226,0.1697,62
0.171,3,9.6095,0.1518,-8.5852,-0.1683,0.134,0.0378,91,0.591,11,8.5927,2.5261,-9.2621,0.0496,-0.1426,0.1988,62
0.223,4,9.6041,0.2293,-8.5776,-0.2165,0.1486,0.1041,91,0.643,12,8.635,2.4176,-9.335,0.0659,-0.1627,0.2277,62
0.275,5,9.5798,0.3117,-8.6237,-0.2491,0.1155,0.1578,91,0.695,13,8.6771,2.3326,-9.3923,0.0929,-0.1793,0.2533,62
0.326,6,9.5736,0.2827,-8.719,-0.2319,0.0597,0.2006,91,0.746,14,8.6796,2.3227,-9.5021,0.0906,-0.1718,0.2492,62
0.378,7,9.6443,0.294,-8.7997,-0.1536,-0.0085,0.2313,91,0.798,15,8.8149,2.1578,-9.5855,0.1281,-0.2199,0.2866,62
0.43,8,9.6728,0.2301,-8.8973,-0.0676,-0.0715,0.2492,91,0.85,16,9.0317,1.9121,-9.6502,0.1494,-0.2486,0.3065,62
0.482,9,9.6181,0.13,-9.0027,-0.0407,-0.1107,0.2659,91,0.902,17,9.1717,1.6645,-9.2688,0.2638,-0.3818,0.2873,62
0.533,10,9.6506,-0.065,-9.0328,-0.0379,-0.0616,0.2478,91,0.954,18,9.7297,2.171,-8.685,0.5394,-0.7108,0.0935,62
0.585,11,9.7347,-0.1292,-9.2061,-0.0222,-0.0557,0.2309,91,1.005,19,9.2282,2.1498,-8.8843,1.0606,-0.5017,-0.2159,62
0.637,12,9.6877,-0.2825,-9.3459,0.0527,0.1383,0.2374,91,1.057,20,8.4533,2.0436,-10.0454,0.4549,0.3188,-0.2512,62
0.689,13,9.724,-0.321,-9.0953,0.034,0.2189,0.1613,91,1.109,21,7.8252,2.3105,-13.1947,-0.3451,0.4352,-0.024,62
0.741,14,9.5984,-0.4117,-8.8899,-0.0079,0.1393,0.0596,91,1.161,22,10.0222,-3.6105,-11.9654,-0.0858,0.4344,0.0208,62
0.792,15,9.5314,-0.4273,-8.6904,-0.0435,-0.0271,-0.0117,91,1.212,23,10.4754,-3.4658,-11.0576,-0.2522,0.3534,-0.0432,62
0.844,16,10.1524,-0.556,-7.9963,-0.0749,-0.4158,-0.1474,91,1.264,24,9.918,-1.776,-10.6189,-0.2484,0.3832,-0.1457,62
0.896,17,10.4252,0.2276,-8.0747,-0.2149,-0.7908,-0.2351,91,1.316,25,9.6703,-0.7256,-10.034,-0.2509,0.3504,-0.1828,62
0.948,18,11.1474,-0.1415,-8.8269,-0.4368,-1.0959,-0.2599,91,1.368,26,9.4153,0.0284,-9.6365,-0.2416,0.2469,-0.1604,62
0.999,19,11.1653,-0.3091,-9.5198,-0.8055,-1.0125,-0.2331,91,1.42,27,9.1975,0.6252,-9.3868,-0.2189,0.1072,-0.1245,62
1.051,20,10.9598,-0.2792,-10.7407,-0.4035,-0.9928,-0.2634,91,1.471,28,9.1165,0.9871,-9.3813,-0.1785,0.0568,-0.1279,62
1.103,21,10.5786,0.1806,-11.5038,-0.114,-1.0415,-0.3196,91,1.523,29,9.0294,1.3014,-9.2807,-0.154,0.0633,-0.151,62
1.155,22,10.1137,0.2666,-12.2619,0.0981,-1.0726,-0.3901,91,1.575,30,8.9199,1.5033,-9.1981,-0.1023,0.0563,-0.1709,62
1.207,23,9.4268,0.5239,-12.7176,0.2428,-1.0518,-0.4167,91,1.627,31,8.861,1.7645,-9.1689,-0.0413,0.0588,-0.1725,62
1.259,24,8.7889,0.757,-13.0999,0.2838,-0.9494,-0.3865,91,1.678,32,8.8862,1.5156,-9.1504,0.0428,0.0821,-0.1853,62
1.31,25,8.3822,1.013,-13.4425,0.2861,-0.837,-0.3056,91,1.73,33,8.7416,2.1288,-9.0876,0.1425,0.0862,-0.1684,62
1.362,26,8.3208,1.3134,-13.7882,0.1994,-0.6982,-0.1912,91,1.782,34,8.6735,2.3337,-9.0376,0.1465,0.0338,-0.11,62
1.414,27,8.3328,1.4624,-14.0415,0.1236,-0.5554,-0.0879,91,1.834,35,8.6278,2.4419,-9.1047,0.1276,-0.0287,-0.0571,62
1.466,28,8.2177,1.5685,-14.158,0.0326,-0.4072,-0.0003,91,1.886,36,8.684,2.3967,-9.1507,0.0997,-0.0594,-0.0336,62
1.517,29,7.9094,1.5508,-14.1833,-0.0863,-0.2583,0.0862,91,1.937,37,8.6417,2.4499,-9.2079,0.1091,-0.0522,-0.0283,62
1.569,30,7.6646,1.4879,-14.1951,-0.1851,-0.1133,0.1767,91,1.989,38,8.6036,2.5674,-9.2396,0.1033,-0.0625,-0.0113,62
1.621,31,7.6117,1.3638,-14.3952,-0.2584,0.0262,0.235,91,2.041,39,8.6415,2.5538,-9.2646,0.1132,-0.066,0.0086,62
1.673,32,7.7405,1.3746,-14.5449,-0.2578,0.1121,0.2321,91,2.093,40,8.6433,2.5657,-9.3021,0.1544,-0.0679,0.0163,62
1.725,33,7.8078,1.359,-14.5627,-0.2221,0.1388,0.184,91,2.144,41,8.5781,2.6557,-9.3776,0.1589,-0.0779,0.0367,62
1.776,34,8.01,1.1404,-14.726,-0.2535,0.1622,0.1313,91,2.196,42,8.4988,2.7294,-9.4979,0.1089,-0.0817,0.0686,62
1.828,35,8.1116,0.9345,-14.7781,-0.1897,0.1129,0.099,91,2.248,43,8.5385,2.725,-9.5568,0.0159,-0.0733,0.0711,62
1.88,36,8.1606,0.8085,-14.7122,-0.1944,0.0593,0.1072,91,2.3,44,8.5686,2.6098,-9.5841,-0.0482,-0.0483,0.0667,62
1.932,37,8.135,0.7592,-14.6377,-0.1842,0.0168,0.1136,91,2.352,45,8.5971,2.5282,-9.5695,-0.0614,-0.0259,0.0356,62
1.983,38,8.2352,0.6902,-14.6107,-0.1894,0.0039,0.1069,91,2.403,46,8.5996,2.4526,-9.6134,-0.0569,0.0082,-0.0052,62
2.035,39,8.3868,0.6121,-14.6179,-0.1758,-0.0183,0.1,91,2.455,47,8.5794,2.525,-9.5605,-0.0692,0.0109,-0.0172,62
2.087,40,8.4979,0.5565,-14.5878,-0.1447,-0.0363,0.0964,91,2.507,48,8.5684,2.5627,-9.5236,-0.0803,0.0085,-0.0155,62
2.139,41,8.4833,0.5921,-14.4698,-0.0971,-0.0495,0.0942,91,2.559,49,8.5975,2.5686,-9.488,-0.0839,0.0076,-0.0229,62
2.19,42,8.5382,0.674,-14.3828,-0.0602,-0.0468,0.0892,91,2.61,50,8.6166,2.5229,-9.4442,-0.08,0.0134,-0.0358,62
2.242,43,8.6065,0.7187,-14.303,-0.0461,-0.0365,0.0674,91,2.662,51,8.6353,2.5395,-9.4073,-0.0716,0.0209,-0.054,62
2.294,44,8.6731,0.735,-14.273,-0.0467,-0.0074,0.0488,91,2.714,52,8.5812,2.6451,-9.3627,-0.0448,0.0185,-0.0653,62
2.346,45,8.5968,0.7361,-14.2463,-0.0393,0.0118,0.0344,91,2.766,53,8.5809,2.6799,-9.3497,-0.0242,0.0051,-0.0573,62
2.398,46,8.4994,0.7065,-14.2431,-0.0204,0.0279,0.0222,91,2.818,54,8.5874,2.6858,-9.3583,-0.0051,0.0116,-0.0535,62
2.45,47,8.5442,0.771,-14.2717,0.0001,0.0408,0.0112,91,2.869,55,8.5703,2.6976,-9.3457,0.0043,0.0066,-0.0319,62
2.502,48,8.7065,0.7916,-14.3995,0.0187,0.0346,-0.0092,91,2.921,56,8.5582,2.7454,-9.3486,0.0085,-0.0165,-0.0071,62
2.553,49,8.7921,0.8005,-14.4148,0.0383,0.0114,-0.0356,91,2.973,57,8.5548,2.7188,-9.353,0.0147,-0.0144,0.002,62
2.605,50,8.7333,0.7879,-14.3233,0.043,-0.01,-0.0388,91,3.025,58,8.5597,2.7191,-9.379,0.0265,-0.0168,0.0034,62
2.657,51,8.6607,0.782,-14.2537,0.029,-0.0125,-0.0279,91,3.076,59,8.5632,2.7067,-9.3858,0.0386,-0.0135,0.0007,62
2.709,52,8.5834,0.761,-14.2253,0.0394,0.0046,-0.0167,91,3.128,60,8.5607,2.722,-9.4053,0.051,-0.0176,0.0089,62
2.761,53,8.567,0.762,-14.2711,0.0334,0.026,-0.0047,91,3.18,61,8.5601,2.7366,-9.4351,0.0457,-0.0222,0.0208,62
2.812,54,8.5751,0.777,-14.3323,0.045,0.0274,-0.0095,91,3.232,62,8.5564,2.7162,-9.4491,0.031,-0.0444,0.0312,62
2.864,55,8.5788,0.751,-14.3704,0.0428,0.0124,-0.0151,91,3.284,63,8.5694,2.675,-9.4701,0.0085,-0.056,0.0376,62
2.916,56,8.5387,0.7035,-14.3762,0.0336,-0.0067,-0.0056,91,3.335,64,8.5908,2.6443,-9.4945,-0.0099,-0.0707,0.0499,62
2.967,57,8.491,0.6826,-14.347,0.0198,-0.0187,0.008,91,3.387,65,8.6011,2.6406,-9.545,-0.0161,-0.0679,0.0358,62
3.019,58,8.5125,0.7025,-14.359,0.0021,-0.0169,0.0229,91,3.439,66,8.6,2.6058,-9.5875,-0.0197,-0.0498,0.0104,62
3.071,59,8.5541,0.7078,-14.4157,-0.0082,-0.0213,0.0288,91,3.491,67,8.6088,2.5802,-9.5934,-0.0127,-0.0237,-0.0249,62
3.123,60,8.5678,0.6927,-14.4792,-0.0142,-0.0286,0.0234,91,3.542,68,8.586,2.6333,-9.5955,-0.0003,-0.0075,-0.0445,62
3.175,61,8.56,0.688,-14.5473,-0.0129,-0.0422,0.0091,91,3.594,69,8.5874,2.6516,-9.6238,-0.0006,-0.0012,-0.0329,62
3.226,62,8.4906,0.7112,-14.5045,0.0078,-0.0611,-0.0087,91,3.646,70,8.5902,2.6545,-9.5847,0.0109,0.0309,-0.0372,62
3.278,63,8.4403,0.7386,-14.4831,0.0237,-0.0679,-0.0207,91,3.698,71,8.5583,2.6896,-9.5827,0.0349,0.0423,-0.0374,62
3.33,64,8.4264,0.7785,-14.4727,0.0234,-0.0724,-0.0246,91,3.75,72,8.5577,2.7038,-9.5628,0.0545,0.0313,-0.0274,62
3.382,65,8.4495,0.8066,-14.4814,0.0295,-0.0652,-0.0357,91,3.801,73,8.5524,2.7354,-9.5749,0.0605,0.0271,-0.0074,62
3.434,66,8.5535,0.8394,-14.4951,0.0361,-0.0595,-0.0409,91,3.853,74,8.5506,2.733,-9.5555,0.0562,0.0225,0.011,62
3.485,67,8.6026,0.8362,-14.4879,0.0259,-0.0536,-0.034,91,3.905,75,8.5509,2.7273,-9.5609,0.0467,0.0135,0.0219,62
3.537,68,8.5277,0.7842,-14.4555,0.0107,-0.0436,-0.0088,91,3.957,76,8.5345,2.7718,-9.5792,0.029,-0.0141,0.0316,62
3.589,69,8.4556,0.7476,-14.4553,-0.0016,-0.0237,0.0284,91,4.009,77,8.5758,2.7193,-9.6483,-0.0174,-0.0408,0.0474,62
3.641,70,8.4117,0.7455,-14.5194,-0.0225,-0.0023,0.0523,91,4.06,78,8.6191,2.6165,-9.646,-0.0761,-0.0419,0.0651,62
3.692,71,8.3905,0.7211,-14.6553,-0.0457,-0.0003,0.0635,91,4.112,79,8.6111,2.5657,-9.5814,-0.0671,-0.0402,0.0411,62
3.744,72,8.3651,0.6833,-14.7742,-0.0662,-0.0158,0.0672,91,4.164,80,8.6253,2.5358,-9.641,-0.0462,-0.0307,0.0012,62
3.796,73,8.4102,0.6542,-14.7887,-0.0795,-0.0413,0.0699,91,4.216,81,8.5802,2.6294,-9.6551,-0.0406,-0.0188,-0.0031,62
3.848,74,8.4364,0.6382,-14.7562,-0.075,-0.0607,0.0648,91,4.267,82,8.573,2.6254,-9.636,-0.0408,-0.0019,0.0031,62
3.9,75,8.42,0.6271,-14.7027,-0.0468,-0.0576,0.0474,91,4.319,83,8.5747,2.6181,-9.6222,-0.037,0.0146,0.0034,62
3.951,76,8.4235,0.6644,-14.6461,-0.0257,-0.0393,0.034,91,4.371,84,8.5711,2.6158,-9.613,-0.0406,0.0281,0.0036,62
4.003,77,8.4015,0.6709,-14.6415,-0.0135,-0.0194,0.0228,91,4.423,85,8.5646,2.6355,-9.5782,-0.0515,0.0324,0.0039,62
4.055,78,8.3895,0.6568,-14.688,-0.0184,-0.0077,0.0173,91,4.475,86,8.5866,2.5945,-9.546,-0.0625,0.0253,0.0061,62
4.107,79,8.4378,0.6653,-14.7566,-0.0296,-0.0058,0.0236,91,4.526,87,8.5934,2.5968,-9.5135,-0.0696,0.0304,-0.0066,62
4.159,80,8.4383,0.6638,-14.7799,-0.0565,-0.0123,0.0308,91,4.578,88,8.5915,2.5819,-9.4714,-0.0595,0.0469,-0.0343,62
4.21,81,8.3881,0.669,-14.7431,-0.0729,-0.0185,0.0282,91,4.63,89,8.5232,2.7098,-9.5874,-0.0351,0.0694,-0.0638,62
4.262,82,8.3105,0.6499,-14.697,-0.0652,-0.0212,0.0129,91,4.681,90,8.5406,2.755,-9.5189,0.0089,0.048,-0.0577,62
4.314,83,8.3668,0.6766,-14.6435,-0.034,-0.0255,-0.0098,91,4.733,91,8.5582,2.7536,-9.4886,0.0103,0.045,-0.0458,62
4.366,84,8.5041,0.7088,-14.6213,-0.0116,-0.0254,-0.0212,91,4.785,92,8.522,2.7792,-9.4215,0.0142,0.0401,-0.0315,62
4.417,85,8.5728,0.7362,-14.6026,-0.0048,-0.0154,-0.0231,91,4.837,93,8.5207,2.7973,-9.3942,0.018,0.0196,-0.0099,62
4.469,86,8.5352,0.736,-14.5887,0.0066,0.0044,-0.0325,91,4.889,94,8.5441,2.7628,-9.3915,0.0059,0.0126,0.0061,62
4.521,87,8.4244,0.7394,-14.5813,0.019,0.0299,-0.0409,91,4.94,95,8.5484,2.745,-9.382,-0.0108,0.0129,0.0075,62
4.573,88,8.3109,0.7196,-14.6259,0.0164,0.0412,-0.0356,91,4.992,96,8.534,2.7447,-9.3564,-0.0155,0.0046,0.0025,62
4.625,89,8.2962,0.6888,-14.7219,0.0052,0.0301,-0.0198,91,5.044,97,8.5659,2.7405,-9.3748,-0.0174,-0.0103,-0.0003,62
4.676,90,8.3097,0.6571,-14.784,0.013,0.003,-0.0071,91,5.096,98,8.5784,2.7018,-9.3664,-0.0148,-0.0025,-0.0164,62
4.728,91,8.3634,0.6768,-14.7999,0.0129,-0.0293,0.0032,91,5.147,99,8.6031,2.6789,-9.3686,-0.0008,0.0106,-0.0287,62
4.78,92,8.357,0.7204,-14.7615,0.0253,-0.0464,-0.0047,91,5.199,100,8.5666,2.7265,-9.3634,0.0284,0.0347,-0.0367,62
4.832,93,8.3326,0.7031,-14.7413,0.0486,-0.0469,-0.0278,91,5.251,101,8.5532,2.7615,-9.355,0.0479,0.0395,-0.0276,62
4.884,94,8.3559,0.7342,-14.7385,0.0934,-0.0426,-0.053,91,5.303,102,8.5607,2.7994,-9.3528,0.0561,0.0399,-0.0093,62
4.935,95,8.4029,0.805,-14.7356,0.1253,-0.0382,-0.0696,91,5.355,103,8.5329,2.8044,-9.3341,0.0573,0.0417,0.0013,62
4.987,96,8.4208,0.8626,-14.7584,0.1258,-0.0319,-0.0783,91,5.407,104,8.5073,2.8218,-9.3175,0.0457,0.0353,0.0097,62
5.039,97,8.3502,0.8422,-14.767,0.1213,-0.0241,-0.0856,91,5.458,105,8.4928,2.8127,-9.3117,0.0285,0.0153,0.0208,62
5.091,98,8.2462,0.8392,-14.7871,0.1185,-0.0134,-0.0771,91,5.51,106,8.5165,2.7561,-9.3104,-0.0135,-0.0094,0.0376,62
5.142,99,8.1671,0.8619,-14.8466,0.0838,-0.0154,-0.0502,91,5.562,107,8.5483,2.7026,-9.2997,-0.04,-0.0279,0.0285,62
5.194,100,8.2002,0.9067,-14.8889,0.0229,-0.0333,-0.0156,91,5.614,108,8.5599,2.701,-9.306,-0.0482,-0.0448,0.0102,62
5.246,101,8.2822,0.8325,-14.8999,-0.0413,-0.0507,0.0158,91,5.665,109,8.5621,2.6941,-9.3206,-0.0436,-0.0653,0.0179,62
5.298,102,8.4403,0.761,-14.8543,-0.0503,-0.0547,0.0401,91,5.717,110,8.5624,2.6949,-9.3527,-0.0275,-0.0784,0.0292,62
5.35,103,8.5501,0.7926,-14.7675,-0.0301,-0.0339,0.0422,91,5.769,111,8.5708,2.6873,-9.3844,-0.0059,-0.0868,0.0396,62
5.401,104,8.5198,0.7905,-14.7302,0.0099,0.0089,0.007,91,5.821,112,8.6044,2.6579,-9.442,0.0002,-0.0925,0.0557,62
5.453,105,8.4149,0.7626,-14.7368,0.0435,0.0555,-0.0248,91,5.873,113,8.6183,2.6316,-9.5086,-0.0058,-0.076,0.0761,62
5.505,106,8.2618,0.7829,-14.7863,0.0646,0.0887,-0.0444,91,5.924,114,8.626,2.5953,-9.5292,-0.0177,-0.0564,0.0765,62
5.557,107,8.1864,0.8051,-14.9207,0.0691,0.0912,-0.0551,91,5.976,115,8.6357,2.5629,-9.5679,-0.0285,-0.0502,0.0674,62
5.609,108,8.1728,0.7997,-15.0548,0.0656,0.0514,-0.0618,91,6.028,116,8.6571,2.4988,-9.6284,-0.0492,-0.0335,0.0561,62
5.66,109,8.1467,0.8095,-15.087,0.0424,-0.0028,-0.0555,91,6.08,117,8.6859,2.4824,-9.6658,-0.0706,0.0054,0.0386,62
5.712,110,8.0794,0.7861,-15.05,0.0021,-0.0491,-0.0181,91,6.131,118,8.6448,2.4408,-9.6042,-0.0899,0.0395,0.001,62
5.764,111,8.1564,0.7994,-14.9704,-0.0448,-0.0837,0.029,91,6.183,119,8.6268,2.4482,-9.5387,-0.0813,0.0444,-0.0403,62
5.816,112,8.3224,0.8372,-14.9014,-0.0772,-0.0873,0.0194,91,6.235,120,8.6458,2.3843,-9.4974,-0.0481,0.0677,-0.0952,62
5.868,113,8.4556,0.7573,-14.8494,-0.0768,-0.0757,-0.0179,91,6.287,121,8.5817,2.5892,-9.448,0.0424,0.0777,-0.1234,62
5.919,114,8.4522,0.679,-14.7581,-0.0572,-0.0666,-0.0297,91,6.339,122,8.562,2.7612,-9.4257,0.0625,0.0519,-0.0883,62
5.971,115,8.512,0.6692,-14.6768,0.0236,-0.0449,-0.0336,91,6.39,123,8.5358,2.8746,-9.4605,0.0544,0.0136,-0.0204,62
6.023,116,8.5864,0.8117,-14.6231,0.0886,0.0083,-0.031,91,6.442,124,8.5416,2.8162,-9.4345,-0.0119,0.0129,0.0103,62
6.075,117,8.569,0.7859,-14.7352,0.1073,0.0693,-0.0134,91,6.494,125,8.5482,2.7161,-9.3736,-0.0357,-0.0054,0.0208,62
6.126,118,8.6584,0.5299,-14.9233,0.1085,0.1106,0.0313,91,6.546,126,8.5658,2.7068,-9.3735,-0.0217,-0.0205,0.0285,62
6.178,119,8.7583,0.3066,-15.0576,0.1608,0.1013,0.1195,91,6.597,127,8.5727,2.6499,-9.3883,0.0092,-0.0214,0.0113,62
6.23,120,8.7732,0.3661,-14.9973,0.1953,0.0716,0.2104,91,6.649,128,8.6037,2.6177,-9.3816,0.0678,0.0092,-0.039,62
6.282,121,8.6147,0.4786,-14.8475,0.2131,0.0503,0.2294,91,6.701,129,8.5439,2.7636,-9.4306,0.1028,0.0013,-0.0315,62
6.333,122,8.3522,0.506,-14.6911,0.2372,0.0517,0.1813,91,6.753,130,8.5506,2.7356,-9.445,0.1128,0.0321,-0.0238,62
6.385,123,8.0447,0.4951,-14.5991,0.2695,0.0817,0.0879,91,6.805,131,8.5664,2.6856,-9.4269,0.1353,0.0442,-0.0119,62
6.437,124,7.8778,0.5151,-14.6146,0.2741,0.1105,-0.0003,91,6.857,132,8.5157,2.7115,-9.3967,0.1416,0.0364,-0.0001,62
6.489,125,7.9585,0.4985,-14.7556,0.2638,0.104,-0.0877,91,6.908,133,8.5489,2.7273,-9.46,0.1136,0.0058,0.0101,62
6.541,126,8.1045,0.4019,-14.8885,0.2297,0.0557,-0.1425,91,6.96,134,8.5725,2.6894,-9.4831,0.0529,0.0053,0.007,62
6.592,127,8.3085,0.2418,-14.8975,0.1648,-0.0331,-0.1172,91,7.012,135,8.5596,2.6842,-9.4263,0.0156,-0.0015,-0.0006,62
6.644,128,8.3864,0.155,-14.9012,0.1127,-0.1121,-0.0588,91,7.064,136,8.5854,2.6652,-9.4888,-0.0217,-0.0262,-0.0027,62
6.696,129,8.4245,0.1803,-14.7801,0.0699,-0.1552,-0.0175,91,7.115,137,8.5844,2.6622,-9.4912,-0.0428,-0.0143,-0.0153,62
6.748,130,8.3824,0.2024,-14.6705,0.03,-0.1607,0.0009,91,7.167,138,8.5964,2.6752,-9.4765,-0.0505,-0.0131,-0.031,62
6.8,131,8.2539,0.1769,-14.6399,0.0047,-0.127,0.0075,91,7.219,139,8.5824,2.7065,-9.4998,-0.0334,0.0131,-0.0369,62
6.851,132,8.2386,0.1697,-14.6942,0.0059,-0.0824,0.0009,91,7.271,140,8.5589,2.7304,-9.453,-0.0173,0.0229,-0.0287,62
6.903,133,8.241,0.2695,-14.8155,0.0071,-0.0459,-0.0174,91,7.323,141,8.5617,2.7429,-9.4692,-0.0126,0.0129,-0.0137,62
6.955,134,8.2811,0.2874,-14.8866,0.0542,-0.0334,-0.0388,91,7.374,142,8.5134,2.7734,-9.4559,-0.03,0.004,0.0031,62
7.007,135,8.2241,0.0531,-14.9989,0.0954,-0.0578,0.0007,91,7.426,143,8.5416,2.7266,-9.4449,-0.0613,-0.0104,0.0241,62
7.059,136,8.2576,0.2117,-14.9586,0.0269,-0.0599,0.0272,91,7.478,144,8.5298,2.7395,-9.4163,-0.0509,-0.0257,0.0393,62
7.11,137,8.023,-0.1035,-15.113,0.1086,-0.0939,0.0183,91,7.529,145,8.5541,2.7131,-9.4515,-0.0412,-0.0272,0.051,62
7.162,138,8.0911,0.0726,-15.1876,0.0118,-0.1323,0.0057,91,7.581,146,8.5685,2.666,-9.4551,-0.0375,-0.0227,0.0546,62
7.214,139,8.1284,0.0684,-15.3083,0.0228,-0.1645,-0.0614,91,7.633,147,8.5671,2.6395,-9.4648,-0.026,-0.0252,0.0478,62
7.266,140,8.2015,0.082,-15.2745,-0.0322,-0.1899,-0.0832,91,7.685,148,8.5822,2.6062,-9.4536,-0.0073,-0.0229,0.026,62
7.318,141,8.2519,0.1126,-15.1911,-0.0417,-0.1769,-0.1016,91,7.737,149,8.6483,2.4818,-9.4515,0.0266,0.0128,-0.012,62
7.369,142,8.232,0.1039,-15.1555,-0.0899,-0.1262,-0.0933,91,7.788,150,8.5976,2.5622,-9.4694,0.0697,0.0039,-0.0377,62
7.421,143,8.1957,0.1011,-15.171,-0.0989,-0.0634,-0.0716,91,7.84,151,8.6024,2.6211,-9.5233,0.0909,-0.019,-0.0256,62
7.473,144,8.1842,0.1926,-15.228,-0.0753,-0.0025,-0.0672,91,7.892,152,8.626,2.6326,-9.5488,0.0884,-0.0129,-0.0149,62
7.525,145,8.1271,0.3144,-15.2678,-0.0616,0.0403,-0.0668,91,7.944,153,8.6191,2.639,-9.5599,0.0892,0.0059,-0.0094,62
7.576,146,7.9595,0.4761,-15.3006,-0.0626,0.0549,-0.0606,91,7.995,154,8.603,2.6502,-9.5899,0.0962,0.0262,-0.012,62
7.628,147,7.8839,0.6313,-15.3277,-0.0768,0.0497,-0.0517,91,8.047,155,8.6103,2.6755,-9.6052,0.1024,0.0602,-0.0035,62
7.68,148,7.9615,0.6774,-15.3055,-0.0754,0.0526,-0.0869,91,8.099,156,8.642,2.6435,-9.6033,0.1288,0.1078,0.0037,62
7.732,149,7.9918,0.8469,-15.1224,-0.1232,0.0648,-0.1258,91,8.151,157,8.5759,2.7517,-9.4935,0.1411,0.1439,0.034,62
7.784,150,8.0554,0.9576,-15.2015,-0.1185,0.097,-0.1542,91,8.203,158,8.5078,2.7685,-9.418,0.1172,0.1417,0.063,62
7.835,151,7.9986,0.8794,-15.3716,-0.1119,0.102,-0.1855,91,8.255,159,8.471,2.7618,-9.3036,0.0741,0.1138,0.0814,62
7.887,152,7.9416,0.7845,-15.4494,-0.0766,0.0589,-0.1858,91,8.306,160,8.3922,2.819,-9.292,0.0097,0.0245,0.0967,62
7.939,153,7.9115,0.7576,-15.3659,-0.0477,-0.003,-0.1547,91,8.358,161,8.5566,2.5402,-9.3589,-0.0798,-0.0518,0.1001,62
7.991,154,7.9434,0.8121,-15.1895,-0.0525,-0.0478,-0.0819,91,8.41,162,8.5978,2.5218,-9.3737,-0.1243,-0.1066,0.0953,62
8.043,155,7.9624,0.7817,-15.0882,-0.0852,-0.0677,0.0196,91,8.462,163,8.6592,2.4459,-9.3826,-0.1327,-0.1007,0.065,62
8.094,156,8.043,0.7134,-15.1271,-0.1254,-0.0674,0.1328,91,8.513,164,8.6769,2.419,-9.4071,-0.109,-0.0777,0.03,62
8.146,157,8.192,0.7536,-15.1932,-0.1194,-0.0719,0.1969,91,8.565,165,8.651,2.4426,-9.4262,-0.0813,-0.058,0.0095,62
8.198,158,8.2248,0.8773,-15.1936,-0.1008,-0.0739,0.1771,91,8.617,166,8.6471,2.4514,-9.4589,-0.0665,-0.0556,0.007,62
8.25,159,8.0851,0.9198,-15.17,-0.0672,-0.0667,0.112,91,8.669,167,8.6642,2.4345,-9.4579,-0.0604,-0.0512,0.0088,62
8.302,160,7.9617,0.8936,-15.2001,-0.031,-0.059,0.0485,91,8.721,168,8.6637,2.4127,-9.4641,-0.0411,-0.0459,0.0025,62
8.353,161,7.9543,0.9208,-15.2953,-0.0129,-0.0566,0.016,91,8.772,169,8.6737,2.388,-9.4942,-0.0277,-0.0384,-0.0059,62
8.405,162,7.9524,0.925,-15.4187,0.002,-0.0642,-0.0122,91,8.824,170,8.6981,2.3835,-9.5213,-0.0099,-0.0094,-0.0254,62
8.457,163,7.9528,0.9375,-15.4752,0.0029,-0.0796,-0.026,91,8.876,171,8.714,2.3717,-9.5458,0.0193,0.0375,-0.0394,62
8.509,164,7.8956,0.9112,-15.505,0.0131,-0.0914,-0.0362,91,8.928,172,8.6041,2.4562,-9.5153,0.0622,0.0776,-0.0305,62
8.561,165,7.8717,0.9059,-15.5207,0.0325,-0.094,-0.0536,91,8.98,173,8.6134,2.4696,-9.4992,0.0528,0.0615,-0.0105,62
8.612,166,7.8422,0.853,-15.539,0.0748,-0.086,-0.0809,91,9.032,174,8.6463,2.4439,-9.4682,0.0356,0.0476,0.0017,62
8.664,167,7.8258,0.844,-15.5628,0.109,-0.0795,-0.0957,91,9.083,175,8.6433,2.4223,-9.4275,0.0177,0.0403,-0.0024,62
8.716,168,7.8208,0.8884,-15.5795,0.1178,-0.0696,-0.094,91,9.135,176,8.6631,2.4094,-9.4062,0.0153,0.0353,-0.0139,62
8.768,169,7.8044,0.9166,-15.6173,0.1212,-0.0557,-0.084,91,9.187,177,8.6612,2.3826,-9.4034,0.0246,0.0538,-0.0257,62
8.819,170,7.8426,0.9604,-15.6586,0.1128,-0.0448,-0.0739,91,9.239,178,8.6096,2.4409,-9.3686,0.0447,0.0564,-0.0287,62
8.871,171,7.8507,0.9901,-15.6532,0.1128,-0.0342,-0.0732,91,9.29,179,8.5925,2.4881,-9.3538,0.0487,0.0247,-0.0209,62
8.923,172,7.8215,1.0449,-15.6231,0.1261,-0.0128,-0.0902,91,9.342,180,8.565,2.5475,-9.3754,0.0302,-0.0072,-0.0006,62
8.975,173,7.7553,1.0748,-15.6224,0.1431,0.0102,-0.1252,91,9.394,181,8.6232,2.494,-9.4039,-0.0099,-0.0387,0.0183,62
9.027,174,7.6771,1.0603,-15.641,0.146,0.0191,-0.1387,91,9.446,182,8.6336,2.5157,-9.4118,-0.044,-0.0729,0.0422,62
9.078,175,7.6534,1.0445,-15.6859,0.1132,0.0077,-0.1054,91,9.498,183,8.6954,2.4316,-9.4595,-0.0711,-0.0698,0.0544,62
9.13,176,7.7097,1.0649,-15.7573,0.0689,-0.015,-0.0417,91,9.55,184,8.6934,2.3981,-9.4671,-0.0847,-0.0291,0.0426,62
9.182,177,7.7211,1.1291,-15.7965,0.0254,-0.0356,0.0004,91,9.601,185,8.687,2.3745,-9.4449,-0.0872,-0.0091,0.0303,62
9.234,178,7.7077,1.2196,-15.7756,0.0047,-0.0491,-0.0123,91,9.653,186,8.692,2.343,-9.4382,-0.084,0.0025,0.0198,62
9.286,179,7.7265,1.2134,-15.768,-0.0223,-0.0418,-0.0707,91,9.705,187,8.7078,2.3163,-9.3744,-0.0634,0.0286,-0.012,62
9.337,180,7.7859,1.2409,-15.7347,-0.0622,-0.0348,-0.0821,91,9.757,188,8.6666,2.3031,-9.3678,-0.0199,0.07,-0.0526,62
9.389,181,7.8422,1.2546,-15.6956,-0.1242,-0.0218,-0.0593,91,9.809,189,8.6318,2.397,-9.3153,0.0185,0.041,-0.0472,62
9.441,182,7.8128,1.2291,-15.6584,-0.1358,0.0019,-0.0575,91,9.86,190,8.6302,2.4709,-9.3734,0.0172,0.0485,-0.0154,62
9.493,183,7.7859,1.2033,-15.5999,-0.1056,0.0168,-0.0634,91,9.912,191,8.6123,2.4803,-9.3223,0.0063,0.0732,0.0124,62
9.544,184,7.7059,1.1844,-15.5518,-0.0551,0.0319,-0.0622,91,9.964,192,8.5752,2.4597,-9.2484,-0.0024,0.0596,0.0144,62
9.596,185,7.6304,1.1484,-15.5306,-0.0285,0.0429,-0.0451,91,10.016,193,8.604,2.4367,-9.2514,-0.0111,0.0226,0.0235,62
9.648,186,7.6379,1.1193,-15.5469,0.007,0.0473,-0.0376,91,10.068,194,8.6183,2.4211,-9.247,-0.0128,0.0067,0.0232,62
9.7,187,7.7252,1.1575,-15.5817,0.0471,0.0345,-0.0166,91,10.119,195,8.6325,2.393,-9.2349,-0.0146,-0.0019,0.0151,62
9.752,188,7.8066,1.2726,-15.6075,0.0433,0.0122,0.0131,91,10.171,196,8.648,2.3952,-9.2173,-0.0142,-0.0047,0.0036,62
9.804,189,7.7706,1.3715,-15.5926,0.0439,-0.0085,0.0124,91,10.223,197,8.6412,2.4132,-9.1967,-0.0079,-0.0135,-0.0041,62
9.855,190,7.6868,1.3619,-15.5748,0.0485,-0.0209,-0.0204,91,10.275,198,8.6512,2.4233,-9.2441,-0.0126,-0.0212,-0.0147,62
9.907,191,7.7263,1.3858,-15.557,0.0576,-0.0323,-0.0461,91,10.327,199,8.6539,2.4111,-9.2379,-0.0172,-0.0167,-0.0253,62
9.959,192,7.7545,1.372,-15.5965,0.0442,-0.0363,-0.0491,91,10.378,200,8.6499,2.4132,-9.2455,-0.013,-0.032,-0.0333,62
10.011,193,7.7848,1.4281,-15.6235,0.0344,-0.0383,-0.0496,91,10.43,201,8.6426,2.4523,-9.2692,-0.0155,-0.0293,-0.0449,62
10.063,194,7.7311,1.4024,-15.6625,0.024,-0.0357,-0.0572,91,10.482,202,8.6316,2.4363,-9.2398,0.0,-0.0281,-0.057,62
10.114,195,7.6495,1.3184,-15.7176,0.033,-0.0313,-0.065,91,10.534,203,8.621,2.4706,-9.2538,0.0357,-0.0389,-0.054,62
10.166,196,7.6655,1.2982,-15.7877,0.0704,-0.0341,-0.0743,91,10.585,204,8.6285,2.4968,-9.3283,0.0699,-0.0356,-0.057,62
10.218,197,7.687,1.3518,-15.8016,0.0969,-0.0471,-0.087,91,10.637,205,8.664,2.5092,-9.3892,0.0871,-0.021,-0.0624,62
10.27,198,7.6975,1.391,-15.7514,0.1103,-0.0514,-0.0993,91,10.689,206,8.6455,2.5768,-9.4359,0.1087,0.0122,-0.0597,62
10.322,199,7.6618,1.5169,-15.7104,0.1302,-0.0473,-0.1143,91,10.741,207,8.6303,2.6007,-9.4044,0.1361,0.0371,-0.0395,62
10.373,200,7.5584,1.6479,-15.7356,0.16,-0.0213,-0.1652,91,10.793,208,8.587,2.6757,-9.3949,0.1586,0.0421,-0.0187,62
10.425,201,7.4736,1.6624,-15.8353,0.172,0.0022,-0.2232,91,10.844,209,8.5757,2.6915,-9.4103,0.152,0.0439,0.0034,62
10.477,202,7.4362,1.5909,-15.9541,0.1801,0.001,-0.2423,91,10.896,210,8.5324,2.704,-9.3856,0.1112,0.0212,0.0101,62
10.529,203,7.4032,1.5524,-15.9849,0.1668,-0.02,-0.1938,91,10.948,211,8.5795,2.637,-9.4254,0.0678,0.0066,0.0065,62
10.581,204,7.3706,1.5998,-15.9442,0.1188,-0.0452,-0.1186,91,11.0,212,8.5973,2.5858,-9.4131,0.0433,0.0124,-0.0056,62
10.632,205,7.3834,1.6987,-15.9322,0.0502,-0.0559,-0.0527,91,11.052,213,8.6088,2.5697,-9.4081,0.0427,0.0012,-0.014,62
10.684,206,7.4604,1.7468,-15.976,0.0005,-0.0568,-0.0355,91,11.103,214,8.6459,2.5685,-9.4247,0.0638,-0.0013,-0.0267,62
10.736,207,7.5559,1.7039,-16.0226,-0.0332,-0.0535,-0.0494,91,11.155,215,8.6298,2.6652,-9.4499,0.0858,0.0153,-0.022,62
10.788,208,7.4828,1.6278,-16.0252,-0.0379,-0.0345,-0.0561,91,11.207,216,8.5978,2.5964,-9.4899,0.1143,0.0431,0.0094,62
10.839,209,7.2316,1.5939,-16.0056,0.0048,-0.0223,-0.0542,91,11.259,217,8.5475,2.6672,-9.4497,0.1251,0.0524,0.035,62
10.891,210,7.1725,1.6674,-16.0809,0.0711,-0.0289,-0.0742,91,11.311,218,8.5562,2.6148,-9.4342,0.1002,0.0364,0.0544,62
10.943,211,7.2496,1.7867,-16.1138,0.1161,-0.049,-0.117,91,11.362,219,8.5962,2.5277,-9.4337,0.0676,-0.004,0.0612,62
10.995,212,7.2796,1.796,-16.0788,0.1006,-0.0676,-0.1153,91,11.414,220,8.607,2.5324,-9.4534,0.0453,-0.0417,0.0658,62
11.046,213,7.3153,1.8589,-16.043,0.0633,-0.0679,-0.0493,91,11.466,221,8.6199,2.5043,-9.5077,0.025,-0.0618,0.0737,62
11.098,214,7.3683,1.9452,-16.0362,0.0058,-0.0487,0.0237,91,11.518,222,8.6399,2.4762,-9.5383,0.0071,-0.0558,0.0603,62
11.15,215,7.3371,1.9437,-16.0949,-0.0725,-0.0326,0.0716,91,11.569,223,8.6387,2.4898,-9.5585,-0.0009,-0.0538,0.0475,62
11.202,216,7.2842,1.8369,-16.1612,-0.1305,-0.0359,0.0965,91,11.621,224,8.6653,2.4374,-9.5937,-0.0131,-0.0496,0.0403,62
11.254,217,7.2329,1.6962,-16.185,-0.1561,-0.0532,0.1005,91,11.673,225,8.6351,2.4364,-9.6229,-0.0553,-0.0602,0.0379,62
11.306,218,7.2215,1.5973,-16.1604,-0.1563,-0.0712,0.1045,91,11.725,226,8.6606,2.4102,-9.6356,-0.0643,-0.0511,0.0169,62
11.357,219,7.2026,1.5434,-16.0848,-0.1562,-0.0788,0.1188,91,11.777,227,8.684,2.3735,-9.6431,-0.0763,-0.0381,0.0002,62
11.409,220,7.2503,1.5861,-16.0304,-0.1506,-0.0744,0.1381,91,11.828,228,8.6761,2.3991,-9.6279,-0.0665,-0.0256,-0.0095,62
11.461,221,7.3121,1.5709,-16.0957,-0.1334,-0.0522,0.1361,91,11.88,229,8.692,2.3975,-9.5906,-0.0541,-0.028,0.0011,62
11.513,222,7.3504,1.5011,-16.1734,-0.0923,-0.0338,0.1209,91,11.932,230,8.6774,2.4086,-9.5946,-0.0276,-0.0292,0.0095,62
11.565,223,7.384,1.4672,-16.2647,-0.0255,-0.038,0.1155,91,11.984,231,8.6753,2.4092,-9.6089,-0.0011,-0.045,0.0196,62
11.616,224,7.3529,1.4292,-16.219,0.0207,-0.0546,0.1287,91,12.035,232,8.6783,2.4152,-9.6716,0.0097,-0.0589,0.0275,62
11.668,225,7.2384,1.4071,-16.1121,0.0654,-0.0542,0.1475,91,12.087,233,8.6758,2.3913,-9.7356,0.0041,-0.0499,0.0271,62
11.72,226,7.1933,1.4368,-16.0913,0.0853,-0.0286,0.1564,91,12.139,234,8.6284,2.4602,-9.7412,-0.0187,-0.0409,0.0275,62
11.772,227,7.1643,1.4494,-16.1638,0.0821,-0.007,0.1596,91,12.191,235,8.6796,2.3196,-9.7352,-0.059,-0.0663,0.035,62
11.824,228,7.1292,1.4297,-16.3074,0.075,-0.0077,0.14,91,12.243,236,8.7894,2.215,-9.7009,-0.0713,-0.0748,0.036,62
11.875,229,7.133,1.2787,-16.4097,0.0686,-0.0285,0.1205,91,12.294,237,8.7759,2.2121,-9.7426,-0.053,-0.0493,0.0206,62
11.927,230,7.2674,1.1368,-16.4254,0.0459,-0.0566,0.1399,91,12.346,238,8.7461,2.2353,-9.7325,-0.028,-0.0514,0.0061,62
11.979,231,7.3305,1.0172,-16.3445,0.0277,-0.0715,0.1599,91,12.398,239,8.7375,2.2618,-9.7967,-0.0006,-0.0764,-0.0189,62
12.031,232,7.3478,0.9344,-16.2524,0.0214,-0.0554,0.1768,91,12.45,240,8.7156,2.3278,-9.898,0.0205,-0.0804,-0.0261,62
12.082,233,7.3593,0.9277,-16.178,0.039,-0.0232,0.179,91,12.502,241,8.6896,2.3891,-9.9594,0.0294,-0.0469,-0.0248,62
12.134,234,7.3419,0.9929,-16.1945,0.0767,0.0208,0.1399,91,12.554,242,8.6322,2.4754,-9.9061,0.0275,-0.0296,-0.0137,62
12.186,235,7.2354,0.9578,-16.2937,0.0993,0.0504,0.0754,91,12.605,243,8.6206,2.5238,-9.9688,-0.0172,-0.0497,0.0226,62
12.238,236,7.1307,0.9035,-16.4018,0.1311,0.0425,0.0212,91,12.657,244,8.7006,2.452,-9.9711,-0.0904,-0.0512,0.049,62
12.289,237,7.0462,0.9148,-16.4776,0.127,0.0137,0.0031,91,12.709,245,8.6867,2.1762,-9.9129,-0.1215,-0.0418,0.0375,62
