right_leg_timestamp,right_leg_index,right_leg_accel_x,right_leg_accel_y,right_leg_accel_z,right_leg_gyro_x,right_leg_gyro_y,right_leg_gyro_z,right_leg_battery_percentage,left_leg_timestamp,left_leg_index,left_leg_accel_x,left_leg_accel_y,left_leg_accel_z,left_leg_gyro_x,left_leg_gyro_y,left_leg_gyro_z,left_leg_battery_percentage
0.117,2,9.732,-0.4028,-9.4067,0.3405,-0.1042,-0.2555,86,0.057,1,7.6412,4.4795,-15.095,0.004,0.4348,0.4028,51
0.168,3,9.7369,-0.2669,-9.4488,0.2612,-0.0851,-0.1703,86,0.109,2,7.7669,3.6457,-15.201,0.0658,0.1584,0.1981,51
0.22,4,9.7165,0.0858,-9.4505,0.2238,-0.0933,-0.0977,86,0.161,3,7.9439,3.8965,-15.3849,0.063,-0.1887,-0.1061,51
0.272,5,9.8038,0.4816,-9.52,0.2564,0.0454,0.2064,86,0.212,4,7.7149,5.6564,-16.9141,-0.2287,-0.6351,-0.5665,51
0.324,6,9.5121,0.0768,-9.4383,-0.1147,0.1356,0.3105,86,0.264,5,7.356,5.9123,-17.3487,-0.3073,-1.1277,-1.0849,51
0.375,7,9.5519,-0.3996,-9.4778,-0.3645,0.0851,0.2759,86,0.316,6,6.2971,5.1224,-17.1295,-0.124,-1.4898,-1.4632,51
0.427,8,9.5866,-0.7002,-9.583,-0.4025,0.0482,0.1898,86,0.368,7,4.9176,4.9281,-16.5401,0.0883,-1.6776,-1.7393,51
0.479,9,9.5781,-0.8822,-9.5351,-0.3565,0.1043,0.1063,86,0.42,8,3.6729,4.8646,-16.1424,-0.0443,-1.7118,-1.8144,51
0.531,10,9.5904,-0.8054,-9.3695,-0.3727,0.1161,0.044,86,0.471,9,2.6442,4.6277,-15.7785,-0.1114,-1.5754,-1.8053,51
0.582,11,9.6798,-0.6482,-9.3806,-0.2358,0.1058,0.0165,86,0.523,10,1.7351,4.5866,-15.7337,-0.109,-1.2988,-1.7016,51
0.634,12,9.6009,-0.6427,-9.2517,-0.1992,0.0706,0.0378,86,0.575,11,0.8731,4.5378,-15.8191,-0.0946,-1.0323,-1.4545,51
0.686,13,9.6437,-0.8234,-9.3458,-0.151,0.029,0.0348,86,0.627,12,0.152,4.6501,-15.9885,-0.026,-0.7878,-1.2165,51
0.738,14,9.6649,-0.8186,-9.3322,-0.1133,0.0317,0.0077,86,0.678,13,-0.4572,4.8056,-16.054,0.0252,-0.5307,-1.0043,51
0.79,15,9.6582,-0.8605,-9.2566,-0.1344,0.0132,0.0136,86,0.73,14,-1.1419,5.029,-16.1814,0.0674,-0.3075,-0.7817,51
0.841,16,9.6695,-0.8427,-9.3221,-0.0789,0.0074,0.0157,86,0.782,15,-1.5775,5.2575,-16.47,0.0053,-0.137,-0.5683,51
0.893,17,9.66,-0.8287,-9.2874,-0.0311,-0.0031,0.0297,86,0.834,16,-1.9531,5.5337,-16.8327,-0.1196,0.0237,-0.4178,51
0.945,18,9.6341,-0.8362,-9.2392,-0.0309,-0.014,0.0275,86,0.886,17,-2.1733,5.5151,-17.1864,-0.1591,0.1353,-0.3802,51
0.997,19,9.6457,-0.895,-9.3151,-0.0545,-0.0121,0.0321,86,0.937,18,-2.322,5.5665,-17.3685,-0.1229,0.1954,-0.3911,51
1.049,20,9.6536,-0.8291,-9.252,-0.0866,-0.0122,0.0298,86,0.989,19,-2.4781,5.4989,-17.4243,-0.076,0.2023,-0.3819,51
1.101,21,9.6453,-0.9163,-9.3375,-0.0894,-0.036,0.0219,86,1.041,20,-2.6797,5.4719,-17.3684,-0.0291,0.1746,-0.3133,51
1.153,22,9.5938,-1.1946,-9.3788,-0.0747,-0.0229,0.0139,86,1.093,21,-2.7631,5.5172,-17.2433,-0.0233,0.117,-0.2208,51
1.204,23,9.591,-1.093,-9.4016,-0.0323,-0.0242,-0.0258,86,1.145,22,-2.7843,5.6248,-17.2685,-0.032,0.0866,-0.1465,51
1.256,24,9.6467,-0.9498,-9.4464,0.0414,-0.0272,-0.0195,86,1.196,23,-2.7722,5.7154,-17.3956,-0.0441,0.0471,-0.0977,51
1.308,25,9.6322,-0.943,-9.4519,0.0444,-0.0189,-0.0094,86,1.248,24,-2.7089,5.7289,-17.4571,0.031,0.0061,-0.0955,51
1.36,26,9.6544,-0.8785,-9.4335,0.0428,-0.0114,-0.0044,86,1.3,25,-2.6984,5.6736,-17.42,0.1136,-0.0362,-0.079,51
1.412,27,9.6459,-0.8396,-9.4099,0.0308,-0.013,0.0048,86,1.352,26,-2.7568,5.6431,-17.3008,0.0929,-0.0713,0.0175,51
1.463,28,9.6324,-0.9312,-9.4227,0.0267,-0.0117,-0.0056,86,1.404,27,-2.7649,5.7005,-17.2249,0.0906,-0.1063,0.0944,51
1.515,29,9.6279,-0.9726,-9.3829,0.044,0.0043,-0.0386,86,1.455,28,-2.7459,5.8379,-17.1908,0.0864,-0.13,0.137,51
1.567,30,9.6391,-0.8884,-9.3628,0.1137,0.012,-0.0566,86,1.507,29,-2.7423,5.9243,-17.1805,0.0431,-0.1199,0.16,51
1.618,31,9.6239,-0.7959,-9.3421,0.1604,0.0136,-0.0543,86,1.559,30,-2.7036,5.9541,-17.2233,-0.0106,-0.0875,0.1651,51
1.67,32,9.6485,-0.775,-9.3094,0.1818,-0.0102,-0.0513,86,1.611,31,-2.6783,5.9475,-17.2679,-0.0679,-0.0483,0.1349,51
1.722,33,9.6586,-0.6176,-9.3742,0.1992,-0.0246,-0.0442,86,1.663,32,-2.6783,5.9248,-17.3424,-0.0835,0.0056,0.0907,51
1.774,34,9.6388,-0.6503,-9.3408,0.1458,-0.0148,-0.0016,86,1.714,33,-2.6937,5.8566,-17.4016,-0.091,0.0221,0.0654,51
1.826,35,9.6443,-0.7021,-9.3591,0.0981,-0.0118,-0.0141,86,1.766,34,-2.7196,5.8379,-17.3224,-0.0528,0.0212,0.029,51
1.877,36,9.6355,-0.6872,-9.3276,0.0753,-0.0085,-0.0175,86,1.818,35,-2.751,5.8543,-17.2171,-0.0547,-0.0,0.033,51
1.929,37,9.6681,-0.8419,-9.3761,0.0789,-0.0128,-0.0364,86,1.87,36,-2.7233,5.9525,-17.1574,-0.0586,-0.0147,0.0427,51
1.981,38,9.647,-0.8162,-9.3736,0.1085,-0.0168,-0.0303,86,1.921,37,-2.674,6.0714,-17.0831,-0.071,-0.0223,0.0518,51
2.033,39,9.6318,-0.7744,-9.3573,0.1786,-0.029,-0.0315,86,1.973,38,-2.6323,6.0824,-17.1404,-0.1004,-0.0077,0.0492,51
2.085,40,9.6772,-0.6209,-9.3935,0.1572,-0.0333,-0.0098,86,2.025,39,-2.5714,6.0464,-17.2514,-0.0919,-0.0015,0.0332,51
2.136,41,9.6829,-0.6229,-9.4078,0.123,-0.0165,0.03,86,2.077,40,-2.518,6.0152,-17.3051,-0.0308,0.0039,0.0055,51
2.188,42,9.6664,-0.6362,-9.3823,0.0824,-0.0024,0.0513,86,2.129,41,-2.5499,5.9276,-17.2465,-0.0091,-0.0024,0.0279,51
2.24,43,9.6601,-0.7368,-9.4043,0.0432,-0.0005,0.0509,86,2.18,42,-2.5123,5.9318,-17.1879,0.0127,0.0019,0.0426,51
2.292,44,9.6806,-0.7274,-9.3642,0.0263,0.0118,0.0404,86,2.232,43,-2.4746,6.0385,-17.1646,0.0519,0.0067,0.0467,51
2.344,45,9.6426,-0.7837,-9.3135,-0.0063,0.0115,0.0339,86,2.284,44,-2.4983,6.2159,-16.9835,0.0844,0.0299,0.0102,51
2.395,46,9.6657,-0.6783,-9.3533,-0.0002,0.0037,0.0049,86,2.335,45,-2.4657,6.433,-16.8738,0.0828,0.0872,-0.0846,51
2.447,47,9.6672,-0.6585,-9.3323,-0.0152,-0.0218,0.0452,86,2.387,46,-2.4009,6.3157,-17.1436,-0.0506,0.1785,-0.1382,51
2.499,48,9.7372,-0.3692,-9.3575,-0.1237,-0.025,0.1409,86,2.439,47,-2.1717,5.8518,-17.6062,-0.0037,0.2175,-0.1934,51
2.551,49,9.6703,-0.6174,-9.5005,-0.3,-0.0038,0.1247,86,2.491,48,-2.0457,5.8154,-17.6216,0.1536,0.2233,-0.2159,51
2.603,50,9.5726,-0.8644,-9.4111,-0.4463,0.0117,0.0363,86,2.543,49,-1.9975,5.6822,-17.5947,0.2147,0.2851,-0.1753,51
2.654,51,9.6245,-0.8243,-9.4953,-0.5312,0.0027,-0.0141,86,2.594,50,-2.3984,5.5442,-17.4671,0.1522,0.2643,-0.0481,51
2.706,52,9.5423,-1.0322,-9.5211,-0.5512,0.0085,-0.0532,86,2.646,51,-2.6219,5.6734,-17.2458,0.0345,0.1721,0.1903,51
2.758,53,9.491,-1.3781,-9.5414,-0.408,-0.0092,-0.0609,86,2.698,52,-2.6323,6.0263,-17.0006,-0.0816,0.146,0.2699,51
2.81,54,9.6829,-0.8504,-9.5586,-0.248,0.0152,-0.09,86,2.75,53,-2.4581,6.054,-16.936,-0.1012,0.3241,0.0577,51
2.861,55,9.646,-1.017,-9.603,-0.1072,-0.0048,-0.0629,86,2.802,54,-2.3996,6.468,-16.631,-0.4085,0.1498,0.1775,51
2.913,56,9.5472,-0.9762,-9.7908,0.1587,0.0593,-0.1295,86,2.853,55,-1.9741,6.294,-16.9551,-0.5547,0.3792,0.0558,51
2.965,57,9.7005,-0.5322,-9.6474,0.2616,0.0098,-0.0426,86,2.905,56,-2.1086,6.5212,-17.2146,-0.5056,0.1463,0.1449,51
3.017,58,9.6272,-0.817,-9.6712,0.255,0.0005,0.0187,86,2.957,57,-1.8697,6.5492,-17.2244,-0.2588,0.0604,0.0872,51
3.069,59,9.7096,-0.7286,-9.6763,0.2226,-0.0082,0.0451,86,3.009,58,-1.6888,6.5285,-17.0315,-0.1064,-0.0042,0.0515,51
3.12,60,9.6907,-0.7701,-9.6633,0.1876,0.0,0.0749,86,3.061,59,-1.5242,6.5864,-16.8518,-0.0773,-0.0225,0.0772,51
3.172,61,9.6845,-0.8123,-9.6035,0.1364,0.008,0.0836,86,3.112,60,-1.4331,6.717,-16.6786,-0.0902,-0.0002,0.091,51
3.224,62,9.6623,-0.867,-9.5768,0.1007,0.0034,0.0651,86,3.164,61,-1.4338,6.7379,-16.7383,-0.0958,0.0506,0.0559,51
3.276,63,9.6554,-0.8183,-9.5511,0.067,-0.0097,0.0703,86,3.216,62,-1.516,6.6863,-16.8573,-0.0774,0.068,0.0246,51
3.328,64,9.6175,-0.8661,-9.5762,0.0327,-0.0219,0.0797,86,3.268,63,-1.496,6.7408,-16.7527,-0.0426,0.0588,0.0064,51
3.379,65,9.6369,-0.957,-9.5935,0.0135,-0.0277,0.0558,86,3.319,64,-1.5677,6.8414,-16.6297,0.0023,0.0208,-0.0182,51
3.431,66,9.6543,-0.9071,-9.6097,-0.0047,-0.0233,0.012,86,3.371,65,-1.5048,6.8296,-16.5168,-0.0476,0.0328,-0.0249,51
3.483,67,9.6591,-0.8446,-9.6178,-0.0241,-0.0111,0.0101,86,3.423,66,-1.528,6.7843,-16.5421,-0.1232,0.1103,-0.016,51
3.535,68,9.6483,-0.8733,-9.5971,-0.0124,-0.0049,0.0114,86,3.475,67,-1.5159,6.8222,-16.62,-0.1564,0.1278,0.0006,51
3.586,69,9.6259,-0.9673,-9.6266,0.006,-0.0091,0.0051,86,3.527,68,-1.4106,6.911,-16.5768,-0.1106,0.1051,-0.007,51
3.638,70,9.6519,-0.9325,-9.6597,0.0177,-0.0015,0.0038,86,3.578,69,-1.3442,6.8807,-16.5981,-0.0712,0.0845,-0.0225,51
3.69,71,9.6493,-0.9336,-9.6378,0.0214,0.0033,0.0169,86,3.63,70,-1.3303,6.8478,-16.5536,-0.0598,0.0365,0.0022,51
3.742,72,9.6378,-0.9855,-9.6435,0.0164,-0.0037,0.0115,86,3.682,71,-1.3147,6.9445,-16.4732,-0.0852,0.0159,0.0517,51
3.794,73,9.627,-1.0102,-9.6436,0.0125,0.0041,0.0019,86,3.734,72,-1.2941,7.055,-16.3892,-0.109,0.0099,0.0687,51
3.845,74,9.6344,-0.9727,-9.6331,0.0114,0.0103,-0.0126,86,3.785,73,-1.2982,7.1011,-16.3728,-0.0966,0.0211,0.0438,51
3.897,75,9.6409,-0.9284,-9.6122,0.0105,0.0073,-0.0103,86,3.837,74,-1.2921,7.1167,-16.3481,-0.0742,0.0128,0.0262,51
3.949,76,9.6371,-0.9265,-9.6055,0.0147,-0.0002,-0.0087,86,3.889,75,-1.2651,7.1345,-16.315,-0.0563,0.0106,0.0147,51
4.001,77,9.6608,-0.879,-9.631,0.0184,-0.0092,-0.0142,86,3.941,76,-1.2314,7.1528,-16.2823,-0.0522,0.0134,0.002,51
4.053,78,9.6636,-0.8692,-9.6476,0.0227,-0.015,-0.0131,86,3.993,77,-1.2051,7.1503,-16.2856,-0.0595,0.0133,0.0035,51
4.104,79,9.6678,-0.8564,-9.6452,0.0221,-0.0172,-0.0073,86,4.044,78,-1.2089,7.1656,-16.272,-0.0459,0.0032,0.0084,51
4.156,80,9.6617,-0.8741,-9.6385,0.0209,-0.019,-0.0094,86,4.096,79,-1.2305,7.1643,-16.2519,-0.0373,-0.007,0.0059,51
4.208,81,9.6667,-0.8598,-9.6408,0.0163,-0.02,-0.0111,86,4.148,80,-1.2383,7.1636,-16.238,-0.0337,-0.0134,0.0055,51
4.26,82,9.6665,-0.8746,-9.651,0.0106,-0.0193,-0.0091,86,4.2,81,-1.2172,7.189,-16.2167,-0.0309,-0.0225,0.0129,51
4.312,83,9.6594,-0.8718,-9.6519,0.006,-0.0158,-0.0123,86,4.252,82,-1.2008,7.2128,-16.1834,-0.03,-0.0279,0.0145,51
4.363,84,9.6515,-0.8597,-9.6614,0.0032,-0.0167,-0.0149,86,4.303,83,-1.2307,7.212,-16.1745,-0.0326,-0.0249,0.013,51
4.415,85,9.6504,-0.8725,-9.6659,0.0009,-0.0217,-0.0185,86,4.355,84,-1.2601,7.211,-16.1723,-0.0429,-0.0221,0.0189,51
4.467,86,9.6518,-0.868,-9.6881,0.0006,-0.0295,-0.0162,86,4.407,85,-1.268,7.2288,-16.1707,-0.0512,-0.0237,0.027,51
4.519,87,9.6536,-0.8725,-9.7093,0.001,-0.0311,-0.0165,86,4.459,86,-1.2749,7.2484,-16.1371,-0.0428,-0.0381,0.025,51
4.571,88,9.6561,-0.8555,-9.7322,0.0017,-0.0309,-0.0198,86,4.511,87,-1.3042,7.2684,-16.1243,-0.0266,-0.0375,0.0108,51
4.622,89,9.6677,-0.8299,-9.7769,0.0023,-0.0329,-0.0222,86,4.562,88,-1.3124,7.2625,-16.1064,-0.0227,-0.0384,-0.0014,51
4.674,90,9.6674,-0.8183,-9.7881,0.0062,-0.0332,-0.0261,86,4.614,89,-1.3597,7.2653,-16.0908,-0.0346,-0.0284,0.0019,51
4.726,91,9.6709,-0.7774,-9.8108,0.015,-0.0292,-0.0314,86,4.666,90,-1.3328,7.2993,-16.0545,-0.0382,-0.0069,-0.0114,51
4.778,92,9.6757,-0.7456,-9.8145,0.022,-0.0246,-0.0277,86,4.718,91,-1.3131,7.3018,-16.0655,-0.0168,0.0204,-0.0368,51
4.83,93,9.6621,-0.7353,-9.8103,0.0243,-0.0143,-0.0164,86,4.769,92,-1.2921,7.2786,-16.0582,-0.0222,0.0055,-0.0242,51
4.881,94,9.6541,-0.7607,-9.8161,0.0237,-0.0104,-0.0117,86,4.821,93,-1.2818,7.2879,-16.052,-0.0278,0.008,-0.001,51
4.933,95,9.6667,-0.7546,-9.8129,0.0233,-0.0029,-0.0046,86,4.873,94,-1.2835,7.2985,-16.059,-0.0392,-0.0029,0.0219,51
4.985,96,9.6699,-0.7422,-9.8077,0.0183,0.0021,0.0007,86,4.925,95,-1.2971,7.3342,-16.0307,-0.045,0.0006,0.0328,51
5.037,97,9.6636,-0.7746,-9.7949,0.0153,0.0043,0.0042,86,4.977,96,-1.2761,7.3446,-16.0269,-0.0393,0.0046,0.0285,51
5.088,98,9.6662,-0.7701,-9.7743,0.0124,0.005,0.005,86,5.028,97,-1.2622,7.3187,-16.0378,-0.0359,-0.002,0.0317,51
5.14,99,9.6561,-0.7843,-9.7769,0.0098,0.0057,0.0096,86,5.08,98,-1.2589,7.3469,-16.005,-0.0467,-0.0028,0.0464,51
5.192,100,9.6556,-0.7872,-9.7903,0.0088,0.0047,0.0084,86,5.132,99,-1.2335,7.3834,-15.9615,-0.0527,0.0032,0.0461,51
5.244,101,9.6543,-0.7863,-9.775,0.0045,0.0109,0.0067,86,5.183,100,-1.2091,7.4054,-15.932,-0.0425,0.0086,0.029,51
5.296,102,9.6521,-0.7899,-9.7648,0.0021,0.0133,0.0043,86,5.235,101,-1.1985,7.3751,-15.9512,-0.0428,0.0216,0.0193,51
5.347,103,9.6631,-0.7815,-9.7524,0.0041,0.0116,0.0035,86,5.287,102,-1.2111,7.4113,-15.9218,-0.0583,0.015,0.0314,51
5.399,104,9.6487,-0.8449,-9.7389,0.0031,0.0098,-0.0021,86,5.339,103,-1.154,7.4991,-15.8246,-0.0562,0.0328,0.0304,51
5.451,105,9.6734,-0.8005,-9.7262,0.0022,0.0158,-0.0093,86,5.391,104,-1.1686,7.5383,-15.7857,-0.0372,0.0774,-0.0224,51
5.503,106,9.6722,-0.7828,-9.6977,0.0044,0.0112,-0.0062,86,5.442,105,-1.1661,7.5024,-15.8209,-0.012,0.1268,-0.0804,51
5.555,107,9.6612,-0.7857,-9.7019,0.0089,0.0001,0.0028,86,5.494,106,-1.1188,7.4608,-15.8951,0.0228,0.1366,-0.1039,51
5.606,108,9.6628,-0.7887,-9.7079,0.0129,-0.0055,0.0152,86,5.546,107,-1.0847,7.4528,-15.8616,0.038,0.1122,-0.0848,51
5.658,109,9.6703,-0.7982,-9.7134,0.0114,-0.0077,0.0162,86,5.598,108,-1.0929,7.4151,-15.8979,0.0182,0.1034,-0.0558,51
5.71,110,9.6717,-0.7805,-9.7024,0.0059,-0.006,0.0188,86,5.65,109,-1.0801,7.4297,-15.8971,-0.0149,0.0987,-0.0227,51
5.762,111,9.67,-0.8042,-9.723,0.0041,-0.0049,0.022,86,5.701,110,-1.0561,7.486,-15.8953,-0.0082,0.1108,-0.0248,51
5.814,112,9.6687,-0.8094,-9.7076,-0.0031,-0.0087,0.0244,86,5.753,111,-1.0669,7.4787,-15.9149,0.0043,0.1205,-0.0527,51
5.865,113,9.6639,-0.7809,-9.7004,-0.0487,-0.0312,0.0301,86,5.805,112,-1.027,7.4358,-15.9206,0.0145,0.1443,-0.0783,51
5.917,114,9.6771,-0.7732,-9.7073,-0.0727,-0.0361,0.0355,86,5.857,113,-1.0012,7.4642,-15.9171,0.032,0.1847,-0.0965,51
5.969,115,9.6728,-0.7815,-9.7232,-0.1084,-0.0352,0.0311,86,5.908,114,-0.9698,7.4176,-15.9219,-0.0192,0.2202,-0.0975,51
6.02,116,9.6818,-0.7889,-9.7486,-0.1639,-0.017,0.019,86,5.96,115,-0.8788,7.4326,-15.8811,-0.0194,0.2476,-0.1099,51
6.072,117,9.6816,-0.8046,-9.7931,-0.1855,-0.0098,0.0086,86,6.012,116,-0.8698,7.4848,-15.9121,-0.034,0.2773,-0.1079,51
6.124,118,9.6384,-0.8895,-9.7675,-0.1965,-0.0082,0.0004,86,6.064,117,-0.8267,7.4269,-15.8782,-0.0535,0.3126,-0.1109,51
6.176,119,9.6751,-0.787,-9.8272,-0.182,-0.0207,-0.018,86,6.116,118,-0.7928,7.4066,-15.9549,-0.059,0.3133,-0.1032,51
6.228,120,9.6353,-0.9113,-9.8621,-0.1841,-0.0211,-0.0222,86,6.167,119,-0.7036,7.4648,-15.872,-0.0443,0.2646,-0.0795,51
6.279,121,9.6471,-0.8898,-9.9007,-0.1646,-0.0182,-0.0287,86,6.219,120,-0.6872,7.462,-15.9248,-0.0839,0.2515,-0.0448,51
6.331,122,9.6543,-0.8499,-9.8954,-0.1664,-0.0164,-0.0388,86,6.271,121,-0.6189,7.5151,-15.812,-0.0647,0.1559,-0.0135,51
6.383,123,9.6226,-1.0275,-9.931,-0.1432,-0.0332,-0.0447,86,6.323,122,-0.5743,7.5179,-15.8282,-0.0696,0.1338,0.0209,51
6.435,124,9.6291,-0.9609,-9.9682,-0.0398,-0.0803,-0.0283,86,6.374,123,-0.6215,7.5265,-15.8325,-0.0896,0.0774,0.0407,51
6.487,125,9.6573,-0.8469,-10.0571,0.0818,-0.129,-0.0319,86,6.426,124,-0.5598,7.4578,-15.7443,-0.0111,0.0047,0.0338,51
6.538,126,9.629,-0.9605,-10.1638,0.1254,-0.1332,-0.0236,86,6.478,125,-0.5942,7.4752,-15.7331,-0.0904,-0.009,0.0917,51
6.59,127,9.6294,-0.6408,-10.2423,0.1739,-0.102,-0.0356,86,6.53,126,-0.5384,7.5124,-15.8269,-0.1606,-0.0345,0.1301,51
6.642,128,9.6807,-0.52,-10.2701,0.1615,-0.0713,-0.0084,86,6.582,127,-0.4892,7.5185,-15.8538,-0.135,-0.2181,0.2068,51
6.694,129,9.6895,-0.5734,-10.2569,0.1091,-0.0447,0.0102,86,6.633,128,-0.4136,7.1069,-15.9082,-0.0024,-0.4938,0.3193,51
6.745,130,9.6796,-0.5905,-10.2636,0.0599,-0.027,0.0107,86,6.685,129,-0.3,6.406,-16.3131,0.6683,-0.5868,0.036,51
6.797,131,9.6869,-0.5756,-10.2324,-0.028,0.0083,0.0291,86,6.737,130,-0.4159,6.8883,-16.4846,0.9325,-0.5849,0.0657,51
6.849,132,9.6607,-0.6634,-10.2171,-0.0305,0.0272,0.0326,86,6.789,131,-0.5198,6.9356,-16.7207,0.7222,-0.5239,0.1701,51
6.901,133,9.655,-0.708,-10.1474,-0.0419,0.0282,0.0174,86,6.84,132,-0.5742,6.9242,-16.787,0.5319,-0.478,0.2107,51
6.953,134,9.6854,-0.6758,-10.1711,-0.0478,0.0375,-0.0055,86,6.892,133,-0.6486,6.7569,-16.7984,0.3745,-0.401,0.1892,51
7.005,135,9.67,-0.7306,-10.1549,-0.0433,0.0454,-0.0121,86,6.944,134,-0.7583,6.6247,-16.8224,0.2587,-0.2962,0.1378,51
7.056,136,9.6592,-0.7368,-10.0935,-0.0314,0.0367,-0.0059,86,6.996,135,-0.8316,6.5543,-16.8635,0.1358,-0.1923,0.1024,51
7.108,137,9.6441,-0.8325,-10.0868,-0.0034,0.0203,-0.0017,86,7.048,136,-0.8814,6.517,-16.9771,0.0166,-0.0946,0.0645,51
7.16,138,9.6516,-0.7988,-10.0626,0.0354,0.0165,-0.0024,86,7.099,137,-0.9832,6.2477,-17.2287,-0.0815,0.0205,-0.004,51
7.212,139,9.6374,-0.8575,-10.0681,0.0597,0.0034,-0.0076,86,7.151,138,-1.0431,6.2031,-17.2476,-0.1132,0.0248,-0.0289,51
7.264,140,9.664,-0.7907,-10.1297,0.0826,-0.0019,-0.0231,86,7.203,139,-1.1237,6.2305,-17.2007,-0.0774,0.0545,-0.0543,51
7.315,141,9.6671,-0.7885,-10.1402,0.1025,0.0017,-0.0266,86,7.255,140,-1.1111,6.3629,-17.1031,-0.0888,0.1086,-0.0795,51
7.367,142,9.6757,-0.7059,-10.1046,0.1112,0.0288,-0.0416,86,7.307,141,-1.0839,6.4117,-17.1136,-0.0697,0.1796,-0.1548,51
7.419,143,9.7317,-0.5869,-10.0578,0.0934,0.0475,-0.0215,86,7.358,142,-1.1517,6.3566,-17.1585,-0.1325,0.2056,-0.1155,51
7.471,144,9.7006,-0.696,-10.0444,0.0741,0.062,-0.0044,86,7.41,143,-0.9285,6.21,-17.065,-0.2292,0.0635,0.0142,51
7.522,145,9.7274,-0.5834,-9.9527,0.0763,0.0778,-0.0477,86,7.462,144,-0.8305,6.4249,-16.9609,-0.1745,0.011,0.0425,51
7.574,146,9.6811,-0.6706,-9.8995,0.0925,0.0948,-0.0594,86,7.514,145,-0.7637,6.7061,-16.8465,-0.2038,0.0115,0.0278,51
7.626,147,9.725,-0.5134,-9.7216,0.0971,0.1435,-0.0512,86,7.565,146,-0.6202,6.6414,-16.782,-0.198,-0.078,0.0122,51
7.678,148,9.7611,-0.498,-9.651,0.0943,0.1335,-0.0135,86,7.617,147,-0.8093,6.5588,-16.7793,-0.2446,-0.0456,0.0086,51
7.73,149,9.6989,-0.5329,-9.5098,0.0574,0.1304,-0.0285,86,7.669,148,-0.79,6.5625,-16.7793,-0.2697,-0.065,0.0649,51
7.782,150,9.6934,-0.5562,-9.6294,0.0746,0.1024,-0.0353,86,7.721,149,-0.6667,6.8633,-16.5262,-0.197,-0.0679,0.0778,51
7.833,151,9.6987,-0.5511,-9.539,0.1638,0.0965,-0.0811,86,7.772,150,-0.7411,6.9471,-16.5043,-0.1721,-0.0455,0.0716,51
7.885,152,9.691,-0.5402,-9.4886,0.1818,0.0324,-0.0813,86,7.824,151,-0.7646,7.0,-16.3925,-0.1766,-0.0335,0.0635,51
7.937,153,9.7119,-0.4786,-9.5005,0.1651,0.0072,-0.0504,86,7.876,152,-0.7596,7.0123,-16.4198,-0.1383,0.0014,0.048,51
7.989,154,9.708,-0.4261,-9.477,0.1222,0.004,-0.0217,86,7.928,153,-0.7259,7.0374,-16.3947,-0.0856,0.0111,0.0359,51
8.04,155,9.7046,-0.4352,-9.4903,0.0834,-0.0204,-0.0124,86,7.98,154,-0.6918,7.1309,-16.3031,-0.0184,0.0339,0.0061,51
8.092,156,9.7087,-0.4021,-9.4964,0.0484,-0.0219,0.0004,86,8.031,155,-0.6837,7.1697,-16.2924,0.0166,0.0709,-0.0424,51
8.144,157,9.7002,-0.3813,-9.491,0.0209,-0.0344,0.0168,86,8.083,156,-0.6957,7.1159,-16.3026,0.0276,0.0752,-0.0896,51
8.196,158,9.6945,-0.3675,-9.5063,-0.0039,-0.051,0.0334,86,8.135,157,-0.769,7.003,-16.3584,0.0016,0.0438,-0.0778,51
8.247,159,9.6973,-0.4469,-9.5705,-0.0248,-0.0746,0.0562,86,8.187,158,-0.8551,7.0746,-16.281,-0.0403,-0.0028,0.0096,51
8.299,160,9.6588,-0.6327,-9.6585,-0.0357,-0.0787,0.0326,86,8.238,159,-0.9115,7.1721,-16.2916,-0.0408,0.0159,0.0252,51
8.351,161,9.6762,-0.5561,-9.6593,-0.0368,-0.0669,0.0283,86,8.29,160,-0.9038,7.1621,-16.33,-0.0098,-0.0101,-0.0108,51
8.403,162,9.672,-0.6212,-9.7107,-0.0603,-0.0664,0.0419,86,8.342,161,-0.9546,7.1041,-16.2616,-0.0221,-0.0264,0.0106,51
8.455,163,9.6686,-0.6826,-9.7504,-0.0551,-0.0561,0.023,86,8.394,162,-0.9508,7.107,-16.2084,-0.0775,-0.0793,0.093,51
8.507,164,9.669,-0.7348,-9.8047,-0.0423,-0.0334,-0.0027,86,8.446,163,-0.9334,7.3654,-16.0374,-0.0968,-0.0741,0.1284,51
8.558,165,9.6587,-0.7334,-9.8256,-0.0163,-0.0093,-0.0441,86,8.497,164,-0.8025,7.4196,-16.0166,-0.0931,0.0709,0.0527,51
8.61,166,9.6921,-0.5799,-9.7744,0.0067,0.0161,-0.0168,86,8.549,165,-0.7404,7.3747,-16.1098,-0.1027,0.1557,-0.0072,51
8.662,167,9.6788,-0.5856,-9.7228,0.0281,0.0067,0.0023,86,8.601,166,-0.6238,7.3326,-16.1316,-0.0775,0.1695,-0.0293,51
8.714,168,9.6991,-0.5641,-9.7487,0.035,-0.0072,0.0208,86,8.653,167,-0.5416,7.3439,-16.1364,-0.0233,0.1472,-0.0205,51
8.766,169,9.7076,-0.5559,-9.7577,0.0289,-0.0012,0.0386,86,8.705,168,-0.4912,7.3302,-16.1155,0.003,0.093,-0.007,51
8.817,170,9.707,-0.5469,-9.7478,0.0068,-0.0026,0.0495,86,8.757,169,-0.4597,7.3223,-16.0641,-0.0013,0.0662,-0.0042,51
8.869,171,9.6935,-0.5814,-9.7545,-0.0259,-0.008,0.0569,86,8.808,170,-0.454,7.299,-16.0707,-0.0467,0.0725,0.0172,51
8.921,172,9.6612,-0.7053,-9.7337,-0.0717,-0.0135,0.0511,86,8.86,171,-0.4748,7.302,-16.0471,-0.079,0.0734,0.0343,51
8.973,173,9.6725,-0.7245,-9.7429,-0.0708,-0.0156,0.0297,86,8.912,172,-0.4919,7.3346,-16.0305,-0.0778,0.0501,0.0423,51
9.024,174,9.6534,-0.7394,-9.7666,-0.0665,-0.0158,0.0182,86,8.964,173,-0.4915,7.3881,-15.9312,-0.0866,0.029,0.0584,51
9.076,175,9.6584,-0.7211,-9.7592,-0.0461,-0.0103,-0.0024,86,9.015,174,-0.4522,7.4017,-15.9003,-0.1086,0.0434,0.0687,51
9.128,176,9.6548,-0.7497,-9.7636,-0.0252,-0.0104,-0.0089,86,9.067,175,-0.3564,7.5223,-15.7878,-0.1213,0.0453,0.0776,51
9.18,177,9.6708,-0.6434,-9.7657,-0.0026,0.0007,-0.0409,86,9.119,176,-0.2933,7.5734,-15.767,-0.0892,0.0798,0.035,51
9.232,178,9.6793,-0.6362,-9.7671,0.0128,-0.0033,-0.0293,86,9.171,177,-0.2764,7.5397,-15.7427,-0.0766,0.1083,0.0029,51
9.283,179,9.671,-0.6537,-9.7687,0.017,-0.0132,-0.0175,86,9.223,178,-0.2417,7.5207,-15.76,-0.0862,0.1355,0.0087,51
9.335,180,9.6682,-0.6724,-9.7851,0.0201,-0.0234,-0.0122,86,9.274,179,-0.1459,7.5829,-15.7394,-0.0738,0.1171,0.0157,51
9.387,181,9.68,-0.6554,-9.8135,0.0171,-0.0184,-0.0054,86,9.326,180,-0.0896,7.5873,-15.7292,-0.049,0.0783,0.0112,51
9.439,182,9.6809,-0.6429,-9.8101,0.0121,-0.0186,0.0017,86,9.378,181,-0.0808,7.5562,-15.6765,-0.0451,0.0352,0.0263,51
9.491,183,9.6827,-0.645,-9.8415,0.0084,-0.0235,-0.0018,86,9.43,182,-0.0711,7.599,-15.6392,-0.0722,0.0173,0.0638,51
9.542,184,9.6769,-0.6819,-9.8599,0.0059,-0.0223,-0.0015,86,9.482,183,-0.0702,7.6457,-15.614,-0.0886,0.0056,0.0793,51
9.594,185,9.6811,-0.6906,-9.8741,0.0032,-0.017,-0.0044,86,9.533,184,-0.0461,7.671,-15.5774,-0.1001,-0.0069,0.0857,51
9.646,186,9.6598,-0.7291,-9.8758,0.002,-0.0125,-0.002,86,9.585,185,-0.0382,7.71,-15.5329,-0.0917,-0.0019,0.0791,51
9.698,187,9.6757,-0.6782,-9.8808,0.0015,-0.0075,-0.0074,86,9.637,186,-0.0516,7.7171,-15.5148,-0.0933,0.0011,0.0656,51
9.749,188,9.6763,-0.6798,-9.871,0.0028,-0.004,-0.0056,86,9.689,187,-0.0029,7.7558,-15.468,-0.0795,-0.0111,0.0591,51
9.801,189,9.6711,-0.7037,-9.8825,0.0075,-0.0013,-0.0053,86,9.741,188,0.0941,7.8009,-15.3566,-0.0588,-0.0046,0.0445,51
9.853,190,9.6662,-0.6727,-9.8451,0.01,0.0149,-0.0037,86,9.792,189,0.1469,7.8018,-15.3249,-0.0658,0.0522,0.0244,51
9.905,191,9.6939,-0.6527,-9.8866,-0.0419,-0.0012,-0.0005,86,9.844,190,0.2065,7.8051,-15.3605,-0.052,0.1018,0.0048,51
9.957,192,9.7064,-0.6273,-9.9031,-0.0295,-0.0023,0.0062,86,9.896,191,0.1967,7.7949,-15.3829,-0.019,0.0914,-0.0062,51
10.008,193,9.7005,-0.6302,-9.8748,-0.0268,-0.0035,0.0136,86,9.948,192,0.2335,7.7998,-15.3465,-0.0014,0.0891,-0.0182,51
10.06,194,9.7018,-0.6168,-9.8701,-0.0412,-0.0079,0.0193,86,10.0,193,0.2465,7.7728,-15.3762,-0.0108,0.1001,-0.0191,51
10.112,195,9.6828,-0.6618,-9.8649,-0.0583,-0.0013,0.02,86,10.052,194,0.3051,7.7951,-15.3377,-0.0203,0.0772,-0.0007,51
10.164,196,9.6716,-0.7086,-9.8652,-0.0461,0.0004,0.0097,86,10.103,195,0.2861,7.8245,-15.2755,-0.0139,0.0643,-0.0036,51
10.216,197,9.6484,-0.7487,-9.8513,-0.0337,-0.0038,0.0036,86,10.155,196,0.2809,7.813,-15.2476,-0.063,0.1116,-0.0006,51
10.267,198,9.6464,-0.7359,-9.8675,-0.0127,-0.0115,-0.0042,86,10.207,197,0.3229,7.8442,-15.2625,-0.0852,0.1392,0.0171,51
10.319,199,9.6665,-0.7256,-9.8912,0.0079,-0.0135,-0.0114,86,10.259,198,0.3625,7.8559,-15.2914,-0.0534,0.0853,0.0131,51
10.371,200,9.6656,-0.6979,-9.8685,0.037,-0.006,-0.0114,86,10.31,199,0.3802,7.8791,-15.1925,-0.034,0.0422,0.0113,51
10.423,201,9.6624,-0.7021,-9.8768,0.0524,-0.0025,-0.0153,86,10.362,200,0.4143,7.8916,-15.1682,-0.0519,0.0562,0.0181,51
10.475,202,9.6846,-0.6443,-9.8627,0.0568,0.0001,-0.0183,86,10.414,201,0.4315,7.8879,-15.1473,-0.0758,0.0676,0.0245,51
10.526,203,9.6797,-0.6476,-9.8641,0.051,0.0023,-0.0107,86,10.466,202,0.4498,7.9021,-15.1759,-0.0774,0.0578,0.0314,51
10.578,204,9.6732,-0.6489,-9.8749,0.0437,0.0057,-0.0041,86,10.518,203,0.4843,7.9322,-15.1322,-0.0665,0.0137,0.0377,51
10.63,205,9.675,-0.6616,-9.8687,0.0354,0.0128,-0.002,86,10.569,204,0.5105,7.9518,-15.0661,-0.0545,-0.0162,0.0388,51
10.681,206,9.685,-0.6965,-9.8542,0.0281,0.0208,0.0036,86,10.621,205,0.5204,7.9547,-15.0141,-0.0555,-0.0042,0.0354,51
10.733,207,9.6826,-0.6909,-9.8362,0.0231,0.0238,0.0071,86,10.673,206,0.5158,7.9743,-15.0087,-0.0675,0.0142,0.0348,51
10.785,208,9.6762,-0.6983,-9.8235,0.0196,0.0262,0.0075,86,10.725,207,0.4795,7.9719,-15.0149,-0.0542,0.0071,0.0275,51
10.837,209,9.6778,-0.6839,-9.8217,0.0186,0.0271,0.0017,86,10.776,208,0.5311,8.0148,-14.9221,-0.0232,0.0249,0.0113,51
10.889,210,9.6555,-0.7522,-9.8075,0.0286,0.0262,-0.0147,86,10.828,209,0.5825,8.0777,-14.841,0.017,0.1228,-0.0297,51
10.94,211,9.6729,-0.6848,-9.767,0.0346,0.0508,-0.0297,86,10.88,210,0.6213,8.0152,-14.9171,0.0237,0.2002,-0.075,51
10.992,212,9.6641,-0.6767,-9.7097,0.0351,0.068,-0.0371,86,10.932,211,0.5886,7.9999,-14.9672,0.0128,0.2195,-0.0824,51
11.044,213,9.6502,-0.6655,-9.7015,0.04,0.0607,-0.0411,86,10.984,212,0.596,8.0014,-15.0491,0.0175,0.1941,-0.0805,51
11.096,214,9.6753,-0.6165,-9.6854,0.0381,0.0606,-0.021,86,11.035,213,0.7136,7.9922,-14.9854,0.0477,0.1588,-0.0902,51
11.148,215,9.6763,-0.601,-9.6658,0.0323,0.0623,0.0017,86,11.087,214,0.7717,7.9518,-14.961,0.0519,0.138,-0.0754,51
11.199,216,9.6682,-0.6041,-9.5949,0.0179,0.0577,0.0172,86,11.139,215,0.8245,7.9365,-14.9126,0.0037,0.1074,-0.0282,51
11.251,217,9.6493,-0.6409,-9.5437,-0.0044,0.0425,0.0235,86,11.191,216,0.8137,7.9905,-14.8584,-0.0546,0.0986,0.0185,51
11.303,218,9.6645,-0.6476,-9.5373,-0.015,0.031,0.0114,86,11.242,217,0.829,8.0461,-14.8685,-0.0763,0.107,0.0306,51
11.355,219,9.661,-0.6667,-9.5235,-0.0138,0.0139,0.0033,86,11.294,218,0.8466,8.0402,-14.8732,-0.0597,0.0869,0.0203,51
11.407,220,9.6578,-0.6604,-9.5158,-0.0136,0.0019,-0.0017,86,11.346,219,0.8471,8.032,-14.855,-0.0376,0.047,0.013,51
11.458,221,9.6848,-0.6508,-9.5338,-0.0123,-0.0127,-0.0121,86,11.398,220,0.8346,8.0413,-14.8122,-0.0434,0.0279,0.0202,51
11.51,222,9.6886,-0.6317,-9.5482,-0.0113,-0.0175,-0.0212,86,11.45,221,0.8211,8.0554,-14.7928,-0.0646,0.0305,0.0286,51
11.562,223,9.6996,-0.593,-9.5613,-0.0099,-0.0198,-0.0234,86,11.502,222,0.8353,8.0668,-14.7629,-0.0709,0.036,0.0297,51
11.614,224,9.706,-0.5855,-9.5843,-0.0071,-0.0186,-0.0222,86,11.553,223,0.895,8.0844,-14.7095,-0.0535,0.0267,0.0205,51
11.666,225,9.6963,-0.5707,-9.5873,-0.002,-0.0096,-0.014,86,11.605,224,0.9231,8.0721,-14.6683,-0.0563,0.0212,0.0189,51
11.717,226,9.6836,-0.567,-9.5942,0.0007,-0.0056,-0.0118,86,11.657,225,0.9345,8.074,-14.681,-0.0708,0.0137,0.0291,51
11.769,227,9.6667,-0.5894,-9.5645,0.0034,-0.0045,-0.0113,86,11.709,226,0.8912,8.045,-14.7069,-0.0529,-0.0278,0.0278,51
11.821,228,9.679,-0.5453,-9.5719,0.0072,-0.01,-0.0178,86,11.761,227,1.0255,8.082,-14.5207,0.0083,-0.1182,0.0306,51
11.873,229,9.6195,-0.7259,-9.6088,0.0208,-0.0165,-0.0326,86,11.812,228,1.0521,7.9945,-14.341,0.0796,-0.1022,0.029,51
11.924,230,9.7268,-0.8911,-9.7093,0.2931,-0.0302,-0.1107,86,11.864,229,1.0626,8.0524,-14.6522,0.0067,0.1519,-0.0324,51
11.976,231,9.7747,-0.5422,-9.7088,0.3045,-0.0793,-0.0867,86,11.916,230,1.1055,8.0894,-14.6887,0.0654,0.1868,-0.0895,51
12.028,232,9.7518,-0.5375,-9.709,0.2413,-0.0718,-0.0674,86,11.968,231,1.0745,7.9643,-14.8512,0.1409,0.1196,-0.1025,51
12.08,233,9.7515,-0.4462,-9.7126,0.1821,-0.0668,-0.05,86,12.019,232,1.0717,7.9699,-14.7194,0.0999,0.0453,-0.0422,51
12.132,234,9.7283,-0.4694,-9.7466,0.1401,-0.051,-0.0288,86,12.071,233,1.0977,8.0158,-14.7173,0.0343,0.0524,0.0033,51
12.183,235,9.7263,-0.4059,-9.7381,0.0989,-0.0244,-0.0169,86,12.123,234,1.1168,8.0175,-14.7621,0.0137,0.0466,0.0055,51
12.235,236,9.7313,-0.3544,-9.7341,0.0705,-0.0037,0.014,86,12.175,235,1.0548,7.9611,-14.8618,0.0244,-0.0046,-0.0004,51
12.287,237,9.7214,-0.3966,-9.7394,0.036,0.0028,0.033,86,12.227,236,0.9578,7.9403,-14.8576,-0.002,-0.1274,0.0364,51
12.339,238,9.6929,-0.5069,-9.722,-0.0084,0.008,0.0538,86,12.278,237,0.9485,7.9098,-14.733,-0.0162,-0.2671,0.0768,51
12.391,239,9.6694,-0.5685,-9.7327,-0.0216,0.0357,0.0136,86,12.33,238,0.6615,7.3214,-14.6435,0.0765,-0.2584,0.0108,51
12.442,240,9.6737,-1.3629,-9.7723,0.0615,0.0667,-0.0469,86,12.382,239,0.9326,7.956,-14.5103,0.1612,0.0058,-0.0876,51
12.494,241,9.5324,-1.3544,-9.6993,0.1662,0.0105,-0.0458,86,12.433,240,0.9466,7.9993,-14.7654,0.1106,0.272,-0.1889,51
12.546,242,9.5936,-1.2451,-9.7296,0.1766,-0.0806,-0.0739,86,12.485,241,0.9636,7.9242,-14.9388,0.126,0.3828,-0.2347,51
12.598,243,9.6582,-0.929,-9.7629,0.1629,-0.1275,-0.0516,86,12.537,242,0.8668,7.8584,-15.2119,0.1866,0.3146,-0.2047,51
12.65,244,9.7039,-0.7261,-9.8313,0.1187,-0.1296,-0.0144,86,12.589,243,0.9173,7.4719,-15.3909,0.2078,0.0899,-0.0478,51
12.701,245,9.7216,-0.5876,-9.8842,0.0841,-0.1202,0.0394,86,12.641,244,0.72,6.7107,-15.7553,0.8263,-0.3798,-0.0977,51
12.753,246,9.7439,-0.4715,-9.9038,0.0657,-0.0703,0.1152,86,12.692,245,0.9844,6.2458,-15.2214,1.0547,-0.222,0.0451,51
