right_leg_timestamp,right_leg_index,right_leg_accel_x,right_leg_accel_y,right_leg_accel_z,right_leg_gyro_x,right_leg_gyro_y,right_leg_gyro_z,right_leg_battery_percentage
0.155,2,9.4666,0.5251,-11.6605,0.1437,0.4795,-0.2346,75
0.206,3,9.4285,0.6614,-11.7452,-0.05,0.509,-0.2312,75
0.258,4,9.3288,0.5725,-12.0579,-0.1008,0.4571,-0.2004,75
0.31,5,9.278,0.4116,-12.1075,-0.0998,0.3409,-0.1432,75
0.361,6,9.2941,-0.1026,-11.7726,0.0861,0.2547,-0.0854,75
0.413,7,9.3853,0.2671,-11.0492,-0.0015,0.2582,-0.0251,75
0.465,8,9.4841,0.573,-11.0021,0.0535,0.2593,0.0072,75
0.517,9,9.5074,0.5708,-10.7315,0.0858,0.2509,0.0561,75
0.569,10,9.6635,0.5848,-10.5919,0.1003,0.2495,0.1004,75
0.62,11,9.6482,0.5497,-10.5097,0.0817,0.2521,0.1358,75
0.672,12,9.6719,0.4788,-10.4124,0.0659,0.2566,0.163,75
0.724,13,9.6769,0.3274,-10.2269,0.0339,0.2378,0.1827,75
0.776,14,9.6441,0.2219,-10.0925,0.0284,0.1881,0.1991,75
0.828,15,9.6188,0.1214,-9.9985,0.0173,0.1286,0.2162,75
0.879,16,9.6181,-0.0586,-9.913,0.0057,0.0705,0.2305,75
0.931,17,9.5957,-0.2285,-9.9157,0.0108,0.0174,0.2353,75
0.983,18,9.6256,-0.3269,-9.9229,0.027,-0.0232,0.2309,75
1.035,19,9.6291,-0.426,-9.9759,0.0211,-0.0339,0.2236,75
1.086,20,9.6601,-0.5408,-9.9434,0.0257,-0.0416,0.2083,75
1.138,21,9.6268,-0.648,-9.8688,0.0327,-0.0913,0.1875,75
1.19,22,9.6115,-0.6504,-9.8981,0.0722,-0.1969,0.181,75
1.242,23,9.6493,-0.69,-10.2344,0.05,-0.2214,0.1874,75
1.294,24,9.5439,-0.8841,-10.1179,0.0134,-0.2691,0.2072,75
1.345,25,9.4793,-1.0206,-10.2513,0.0072,-0.3387,0.1979,75
1.397,26,9.5013,-1.2213,-10.4875,0.0533,-0.4012,0.1738,75
1.449,27,9.5188,-1.1723,-10.9733,0.0855,-0.392,0.1408,75
1.501,28,9.5325,-1.2975,-11.1659,0.0564,-0.3302,0.1254,75
1.553,29,9.4698,-1.4193,-11.3068,0.0572,-0.2305,0.0744,75
1.604,30,9.4726,-1.306,-11.3036,0.0826,-0.1476,0.0511,75
1.656,31,9.7823,-1.1055,-11.2442,0.1241,-0.107,0.0599,75
1.708,32,9.7373,-1.0586,-11.4128,0.1342,-0.0306,0.0856,75
1.76,33,9.5863,-1.2933,-11.3978,0.0676,0.0004,0.0849,75
1.812,34,9.5283,-1.3726,-11.3364,0.0429,0.0054,0.0587,75
1.863,35,9.4819,-1.4251,-11.283,-0.0011,-0.0018,0.0463,75
1.915,36,9.2786,-1.7561,-11.1956,-0.0323,-0.0021,0.031,75
1.967,37,9.4631,-1.3435,-11.3592,-0.0298,0.0209,0.0109,75
2.019,38,9.3967,-1.5161,-11.2777,-0.0243,-0.0003,0.0097,75
2.07,39,9.5113,-1.334,-11.4105,-0.0061,-0.0158,-0.0002,75
2.122,40,9.4883,-1.4689,-11.4607,0.0043,0.0163,-0.0152,75
2.174,41,9.5547,-1.5117,-11.2852,0.0683,0.1179,-0.0397,75
2.226,42,9.5429,-1.4721,-11.1799,0.0618,0.1353,-0.04,75
2.278,43,9.4868,-1.462,-11.103,0.0571,0.1078,-0.0469,75
2.329,44,9.5846,-1.3768,-11.2212,0.0739,0.0623,-0.042,75
2.381,45,9.5791,-1.3989,-11.1892,0.0669,0.1235,-0.0163,75
2.433,46,9.5144,-1.4342,-10.9652,0.0436,0.0964,-0.0009,75
2.485,47,9.5042,-1.4265,-10.9974,0.039,0.0444,0.0038,75
2.536,48,9.5263,-1.4717,-11.0369,0.0678,0.0609,-0.0042,75
2.588,49,9.575,-1.3801,-10.9468,0.0585,0.0476,-0.0052,75
2.64,50,9.5427,-1.3773,-10.9247,-0.0015,0.0244,-0.0144,75
2.692,51,9.5126,-1.4397,-10.8856,-0.0403,0.0223,-0.0344,75
2.744,52,9.3908,-1.5216,-10.6701,-0.0297,0.0175,-0.0404,75
2.795,53,9.4618,-1.3347,-10.81,-0.0522,-0.0337,-0.0224,75
2.847,54,9.4751,-1.3892,-10.9544,-0.0543,-0.0548,-0.0149,75
2.899,55,9.4935,-1.3608,-10.9934,-0.0331,-0.0401,-0.0229,75
2.951,56,9.491,-1.3845,-10.9676,-0.0395,-0.0397,-0.011,75
3.003,57,9.5061,-1.3408,-11.0302,-0.0251,-0.0174,-0.0205,75
3.055,58,9.5136,-1.3494,-11.0689,-0.0114,0.0243,-0.0321,75
3.106,59,9.5328,-1.2661,-10.9624,0.0182,0.068,-0.0437,75
3.158,60,9.5004,-1.3077,-10.8924,0.0577,0.0841,-0.0515,75
3.21,61,9.5626,-1.1198,-10.8407,0.0823,0.0622,-0.0467,75
3.262,62,9.5803,-1.0983,-10.8584,0.0594,0.0276,-0.0314,75
3.314,63,9.5574,-1.2419,-10.8498,0.0484,0.0139,-0.0287,75
3.365,64,9.5214,-1.3142,-10.7529,0.0633,0.0113,-0.0296,75
3.417,65,9.5198,-1.2914,-10.7485,0.09,-0.0261,-0.0287,75
3.469,66,9.537,-1.2645,-10.8453,0.097,-0.0537,-0.0298,75
3.521,67,9.5477,-1.234,-10.8811,0.0849,-0.0493,-0.033,75
3.572,68,9.5561,-1.2079,-10.927,0.0693,-0.04,-0.0323,75
3.624,69,9.5439,-1.1685,-10.9157,0.0543,-0.039,-0.0255,75
3.676,70,9.5331,-1.1458,-10.9026,0.0459,-0.0537,-0.0133,75
3.728,71,9.5735,-1.1129,-10.9807,0.016,-0.0828,0.0007,75
3.78,72,9.525,-1.0638,-10.8514,0.0018,-0.0867,0.0134,75
3.831,73,9.592,-1.0338,-11.1964,-0.0013,-0.0898,0.0165,75
3.883,74,9.5691,-1.0345,-11.1726,-0.0085,-0.0406,0.0108,75
3.935,75,9.5184,-1.1735,-11.1179,-0.065,-0.0333,0.0303,75
3.987,76,9.4941,-1.1583,-11.1229,-0.0613,-0.0256,0.0433,75
4.039,77,9.4966,-1.2503,-11.134,-0.0644,-0.052,0.0467,75
4.09,78,9.5268,-1.2297,-11.2811,-0.0453,-0.0508,0.0327,75
4.142,79,9.5238,-1.2365,-11.2819,-0.0349,-0.0315,0.0221,75
4.194,80,9.4856,-1.225,-11.2271,-0.0134,-0.0198,0.0123,75
4.245,81,9.466,-1.1643,-11.149,-0.008,-0.026,0.0153,75
4.297,82,9.4856,-1.1487,-11.2906,-0.0182,-0.0542,0.0251,75
4.349,83,9.5049,-1.2145,-11.3168,-0.0207,-0.0526,0.0217,75
4.401,84,9.4573,-1.2249,-11.2884,-0.0176,-0.0571,0.0216,75
4.453,85,9.4356,-1.1635,-11.3358,-0.0138,-0.0948,0.0291,75
4.504,86,9.43,-1.1303,-11.4049,0.0073,-0.0541,0.0274,75
4.556,87,9.4346,-1.1897,-11.4352,-0.0001,-0.0485,0.0327,75
4.608,88,9.4725,-1.153,-11.541,0.006,-0.0312,0.0237,75
4.66,89,9.4362,-1.243,-11.5346,0.0056,-0.0081,0.0121,75
4.712,90,9.4459,-1.2414,-11.5164,0.0189,0.0084,0.0115,75
4.763,91,9.423,-1.2741,-11.5093,0.0289,0.0302,0.0126,75
4.815,92,9.44,-1.276,-11.5173,0.0392,0.0625,0.006,75
4.867,93,9.4339,-1.3124,-11.4366,0.0372,0.0801,-0.0025,75
4.919,94,9.4431,-1.3074,-11.3836,0.0363,0.0891,-0.0059,75
4.97,95,9.4671,-1.3313,-11.366,0.0324,0.079,-0.0054,75
5.022,96,9.4843,-1.2914,-11.2663,0.006,0.0686,-0.0035,75
5.074,97,9.4629,-1.3308,-11.2658,-0.0124,0.0453,-0.0099,75
5.126,98,9.4871,-1.287,-11.2997,-0.0279,0.051,-0.0212,75
5.178,99,9.4465,-1.321,-11.206,-0.0541,0.0479,-0.0235,75
5.229,100,9.4111,-1.3792,-11.1273,-0.0809,0.0298,-0.0275,75
5.281,101,9.3832,-1.3285,-11.1112,-0.0481,0.0158,-0.0298,75
5.333,102,9.4056,-1.3139,-11.1162,-0.0526,-0.0339,-0.0048,75
5.385,103,9.4851,-1.1418,-11.2497,-0.0396,-0.0385,0.0019,75
5.436,104,9.4863,-1.2546,-11.312,-0.0563,-0.0543,0.0147,75
5.488,105,9.4689,-1.2668,-11.2699,-0.0555,-0.0559,0.0077,75
5.54,106,9.4449,-1.2471,-11.2914,-0.0479,-0.0673,0.0184,75
5.592,107,9.4456,-1.2345,-11.3834,-0.0246,-0.0546,0.0147,75
5.644,108,9.5027,-1.2513,-11.4117,-0.0244,-0.0377,0.0201,75
5.695,109,9.4293,-1.2366,-11.4652,0.0974,0.0524,0.0141,75
5.747,110,9.4199,-1.41,-11.4604,0.0537,-0.0232,0.0413,75
5.799,111,9.4072,-1.4635,-11.3638,0.038,-0.0591,0.0415,75
5.851,112,9.4257,-1.4606,-11.4233,0.0246,-0.0697,0.0264,75
5.903,113,9.4268,-1.4056,-11.3613,0.0269,-0.0527,0.0212,75
5.954,114,9.4285,-1.4118,-11.4738,0.0337,-0.0566,0.0177,75
6.006,115,9.4372,-1.3687,-11.4598,0.0596,-0.0664,0.0186,75
6.058,116,9.4879,-1.3796,-11.6142,0.0372,-0.0658,0.0184,75
6.11,117,9.4743,-1.3579,-11.5815,0.0261,-0.0433,0.017,75
6.161,118,9.4766,-1.3441,-11.6243,0.0224,-0.0257,0.0179,75
6.213,119,9.4436,-1.3861,-11.603,0.0216,-0.0104,0.0153,75
6.265,120,9.4309,-1.3959,-11.5715,0.0155,-0.003,0.0119,75
6.317,121,9.4288,-1.4245,-11.5629,0.0007,-0.0109,0.0137,75
6.369,122,9.43,-1.4024,-11.6103,-0.0033,-0.0014,0.0119,75
6.42,123,9.4209,-1.4101,-11.5847,-0.0101,-0.0035,0.0125,75
6.472,124,9.4026,-1.4397,-11.6071,-0.0087,-0.0036,0.0097,75
6.524,125,9.406,-1.4526,-11.6497,-0.0111,-0.0075,0.0075,75
6.576,126,9.4103,-1.4459,-11.6568,-0.0118,-0.0037,0.0014,75
6.628,127,9.3758,-1.4268,-11.5725,-0.023,-0.0148,0.0016,75
6.679,128,9.3871,-1.4567,-11.5922,-0.0176,-0.0026,-0.0037,75
6.731,129,9.3926,-1.4125,-11.569,-0.0026,0.0069,-0.0118,75
6.783,130,9.3692,-1.4465,-11.5258,-0.0029,0.0098,-0.0109,75
6.835,131,9.3955,-1.3905,-11.5582,-0.0048,-0.0012,-0.0025,75
6.886,132,9.4536,-1.397,-11.6262,-0.0232,-0.0002,-0.0032,75
6.938,133,9.428,-1.3966,-11.5878,-0.0133,0.0143,-0.0038,75
6.99,134,9.4122,-1.3819,-11.6145,-0.0143,0.0206,-0.0071,75
7.042,135,9.402,-1.3658,-11.5956,-0.0128,0.0323,-0.0055,75
7.093,136,9.4072,-1.3239,-11.667,-0.0074,0.0326,-0.0075,75
7.145,137,9.4131,-1.3314,-11.618,0.0111,0.0613,-0.0063,75
7.197,138,9.4069,-1.3204,-11.5571,0.0269,0.084,-0.0094,75
7.249,139,9.4032,-1.3171,-11.4939,0.029,0.0834,-0.0046,75
7.301,140,9.3987,-1.3673,-11.4287,0.0223,0.0461,0.0083,75
7.352,141,9.4299,-1.3912,-11.4955,0.0115,0.0345,0.0023,75
7.404,142,9.4463,-1.3198,-11.4517,-0.0027,0.0241,-0.0075,75
7.456,143,9.4489,-1.3575,-11.4533,-0.0278,0.0169,-0.0107,75
7.508,144,9.4558,-1.3272,-11.4346,-0.0255,0.0194,-0.0188,75
7.56,145,9.3985,-1.4582,-11.3007,-0.0257,0.0172,-0.0218,75
7.612,146,9.41,-1.3372,-11.2612,-0.0172,-0.01,-0.0216,75
7.664,147,9.4323,-1.3983,-11.2892,-0.0266,-0.0355,-0.0058,75
7.715,148,9.513,-1.2151,-11.4007,-0.021,-0.0411,-0.005,75
7.767,149,9.47,-1.2791,-11.4033,-0.0267,-0.0371,-0.0032,75
7.819,150,9.4551,-1.316,-11.408,-0.0322,-0.0343,-0.0042,75
7.87,151,9.5421,-1.2352,-11.4735,-0.0118,-0.0164,-0.011,75
7.922,152,9.5012,-1.2833,-11.4765,-0.0112,-0.0037,-0.0053,75
7.974,153,9.5037,-1.2877,-11.5008,-0.0224,0.0019,-0.014,75
8.026,154,9.4716,-1.2911,-11.4428,-0.0196,0.0181,-0.0147,75
8.078,155,9.4312,-1.2826,-11.4305,-0.022,-0.0014,-0.0001,75
8.129,156,9.4193,-1.3194,-11.4668,-0.0341,-0.0254,0.0236,75
8.181,157,9.4551,-1.2848,-11.5123,-0.0201,-0.0192,0.0181,75
8.233,158,9.4472,-1.2856,-11.5263,-0.0099,-0.0109,0.0096,75
8.285,159,9.4296,-1.2891,-11.5083,0.004,0.0114,0.0054,75
8.336,160,9.4571,-1.2459,-11.4553,0.0147,0.0182,0.0066,75
8.388,161,9.4489,-1.2801,-11.4818,0.0132,0.0175,0.0135,75
8.44,162,9.475,-1.3208,-11.46,0.0306,0.037,0.011,75
8.492,163,9.461,-1.3791,-11.4812,0.0293,0.016,0.0214,75
8.544,164,9.4554,-1.3463,-11.4559,0.0288,0.0183,0.0175,75
8.595,165,9.4541,-1.3741,-11.436,0.0011,0.0055,0.017,75
8.647,166,9.4231,-1.417,-11.3519,-0.032,-0.005,0.0057,75
8.699,167,9.3775,-1.4627,-11.2159,-0.0213,-0.0167,-0.0044,75
8.751,168,9.3845,-1.381,-11.2927,-0.0248,-0.0557,-0.0007,75
8.803,169,9.3988,-1.4434,-11.4037,-0.0416,-0.075,0.0023,75
8.854,170,9.3913,-1.3866,-11.5293,-0.0027,-0.0828,-0.0146,75
8.906,171,9.3501,-1.538,-11.4146,0.0178,-0.0858,-0.0043,75
8.958,172,9.4526,-1.2057,-11.5843,0.0233,-0.0893,0.0101,75
9.01,173,9.4779,-1.1947,-11.7208,0.0149,-0.0607,0.0141,75
9.062,174,9.4271,-1.2441,-11.6668,-0.0262,-0.0283,0.0223,75
9.113,175,9.4022,-1.3375,-11.7054,-0.0342,-0.0146,0.0244,75
9.165,176,9.4006,-1.3484,-11.6454,-0.0311,-0.0073,0.0187,75
9.217,177,9.3739,-1.4225,-11.6391,-0.0282,-0.0065,0.0182,75
9.269,178,9.3705,-1.3926,-11.6362,-0.0179,-0.0038,0.0146,75
9.32,179,9.3602,-1.3806,-11.6432,-0.0132,-0.0038,0.0156,75
9.372,180,9.3634,-1.3736,-11.6548,-0.0087,0.0006,0.0128,75
9.424,181,9.3518,-1.4074,-11.6276,-0.0053,-0.0009,0.0118,75
9.476,182,9.3749,-1.3247,-11.6724,0.0021,-0.0019,0.0143,75
9.528,183,9.4055,-1.3409,-11.6866,0.006,0.0078,0.0123,75
9.579,184,9.4295,-1.3294,-11.6624,0.0049,0.0138,0.0133,75
9.631,185,9.4236,-1.3986,-11.7136,0.004,0.0179,0.0126,75
9.683,186,9.4352,-1.3544,-11.688,-0.0135,0.0104,0.0112,75
9.735,187,9.4244,-1.362,-11.7062,-0.0141,0.0033,0.0182,75
9.787,188,9.4179,-1.3718,-11.6737,-0.0434,0.022,0.0158,75
9.838,189,9.3968,-1.4069,-11.6368,-0.0686,0.0366,0.0096,75
9.89,190,9.3571,-1.4689,-11.5256,-0.0602,0.049,-0.0038,75
9.942,191,9.3691,-1.4387,-11.5202,-0.0458,0.036,-0.0082,75
9.994,192,9.3989,-1.4118,-11.5531,-0.0311,0.023,-0.0082,75
10.046,193,9.3889,-1.4108,-11.5502,-0.0181,0.0193,-0.0095,75
10.097,194,9.4082,-1.3863,-11.5387,-0.0098,0.0158,-0.0053,75
10.149,195,9.4116,-1.402,-11.5296,-0.0032,0.0106,-0.0005,75
10.201,196,9.4211,-1.379,-11.5499,0.0041,0.0084,0.0004,75
10.253,197,9.4386,-1.3691,-11.5593,0.0011,0.0095,0.0022,75
10.305,198,9.4453,-1.3623,-11.5481,0.0001,0.0125,0.0007,75
10.356,199,9.3614,-1.363,-11.4882,0.0134,0.0144,-0.0023,75
10.408,200,9.3831,-1.3553,-11.4878,0.0116,-0.0131,0.0088,75
10.46,201,9.4057,-1.3942,-11.5812,0.0079,-0.0313,0.0165,75
10.512,202,9.4046,-1.4063,-11.6202,0.0042,-0.0218,0.0146,75
10.564,203,9.3915,-1.4207,-11.5936,0.0016,-0.0197,0.0118,75
10.615,204,9.3942,-1.409,-11.5882,-0.0033,-0.0252,0.0112,75
10.667,205,9.3857,-1.4354,-11.6556,-0.0058,-0.0285,0.0093,75
10.719,206,9.4014,-1.3944,-11.6115,-0.0184,-0.0171,0.0082,75
10.771,207,9.397,-1.4176,-11.6058,-0.0146,-0.0297,0.0051,75
10.822,208,9.4147,-1.3958,-11.645,-0.0024,-0.0167,0.0003,75
10.874,209,9.5748,-1.4537,-11.4032,-0.0272,0.0027,0.0026,75
10.926,210,9.5274,-1.4921,-11.5891,-0.0218,-0.0044,0.0032,75
10.978,211,9.4923,-1.4318,-11.6171,-0.0127,0.0008,-0.0022,75
11.03,212,9.471,-1.4152,-11.6085,-0.009,0.0039,-0.0039,75
11.081,213,9.454,-1.4187,-11.6128,-0.0008,0.0059,-0.0084,75
11.133,214,9.4395,-1.4178,-11.6158,0.0128,0.0022,-0.0113,75
11.185,215,9.4197,-1.3959,-11.608,0.0379,0.011,-0.0211,75
11.237,216,9.4174,-1.3639,-11.5459,0.05,0.0059,-0.0206,75
11.289,217,9.4267,-1.3055,-11.6921,0.0667,0.001,-0.0109,75
11.34,218,9.4765,-1.296,-11.7009,0.0601,0.0356,-0.0084,75
11.392,219,9.4262,-1.3541,-11.587,0.0348,0.0323,-0.0104,75
11.444,220,9.442,-1.3319,-11.6128,0.0054,0.0202,-0.0031,75
11.496,221,9.4367,-1.4081,-11.6002,-0.011,0.0106,0.0021,75
11.547,222,9.44,-1.4113,-11.6174,-0.0226,0.0065,-0.0028,75
11.599,223,9.4443,-1.3519,-11.5736,-0.0158,-0.0034,-0.0013,75
11.651,224,9.4134,-1.3682,-11.5877,-0.008,-0.0187,-0.0006,75
11.703,225,9.4385,-1.3631,-11.6565,-0.0064,-0.0234,-0.0006,75
11.754,226,9.4319,-1.3476,-11.6243,-0.0077,-0.0222,-0.0004,75
11.806,227,9.4208,-1.3438,-11.6113,-0.0033,-0.0324,-0.0026,75
11.858,228,9.4101,-1.3368,-11.6913,0.0263,-0.0296,-0.0144,75
11.91,229,9.4375,-1.2695,-11.7038,0.0263,-0.0198,-0.0073,75
11.962,230,9.4317,-1.3,-11.7539,0.0205,-0.0024,-0.0028,75
12.013,231,9.41,-1.2934,-11.6766,0.0152,0.0161,0.0014,75
12.065,232,9.3922,-1.3336,-11.6238,0.0063,0.0066,0.011,75
12.117,233,9.3823,-1.3862,-11.6235,0.0204,0.0046,0.0035,75
12.169,234,9.3964,-1.3757,-11.6579,0.0161,-0.0034,-0.0017,75
12.221,235,9.3955,-1.3751,-11.6728,0.0101,0.0005,-0.0045,75
12.272,236,9.3894,-1.3797,-11.6519,0.0161,-0.0067,-0.0121,75
12.324,237,9.3723,-1.3601,-11.5925,0.0143,-0.0252,-0.0127,75
12.376,238,9.4154,-1.3767,-11.6769,0.0176,-0.0248,-0.0138,75
12.428,239,9.3962,-1.3709,-11.6733,0.0334,-0.0099,-0.0257,75
12.479,240,9.3892,-1.3835,-11.7233,0.0439,-0.0035,-0.0277,75
12.531,241,9.3995,-1.362,-11.7104,0.0691,0.0145,-0.0318,75
12.583,242,9.4214,-1.3413,-11.6795,0.0848,0.057,-0.0276,75
12.635,243,9.4164,-1.2383,-11.679,0.0679,0.0777,-0.0143,75
12.687,244,9.4342,-1.2434,-11.5861,0.0543,0.1047,-0.0035,75
12.738,245,9.4415,-1.2869,-11.448,0.0551,0.0825,-0.0036,75
12.79,246,9.4459,-1.2902,-11.5046,0.093,0.0697,-0.0151,75
12.842,247,9.479,-1.1996,-11.4656,0.1025,0.0838,-0.0216,75
12.894,248,9.4612,-1.2265,-11.3886,0.1024,0.097,-0.0243,75
12.945,249,9.4509,-1.1782,-11.2883,0.071,0.0693,-0.0172,75
12.997,250,9.5035,-1.0218,-11.3044,0.0048,0.0455,0.0011,75
13.049,251,9.4944,-1.1247,-11.2289,-0.0116,0.0325,0.0083,75
13.101,252,9.4788,-1.1973,-11.2098,-0.0161,0.0128,0.0031,75
13.153,253,9.4757,-1.2232,-11.2389,-0.0325,-0.0054,0.004,75
13.205,254,9.479,-1.2558,-11.2182,-0.0386,-0.0046,0.0015,75
13.256,255,9.4812,-1.2683,-11.226,-0.0393,0.0004,-0.0007,75
13.308,256,9.5195,-1.1771,-11.2582,-0.0442,-0.0103,0.0,75
13.36,257,9.5214,-1.1811,-11.2625,-0.0493,-0.0172,0.0015,75
13.412,258,9.5381,-1.1419,-11.2501,-0.0387,-0.012,0.001,75
13.464,259,9.5261,-1.1378,-11.2669,-0.0271,-0.011,0.0084,75
13.515,260,9.4983,-1.15,-11.2899,-0.0099,0.0037,0.012,75
13.567,261,9.4869,-1.2365,-11.3147,-0.0001,-0.0048,0.0162,75
13.619,262,9.4813,-1.2251,-11.2979,0.0064,-0.0154,0.0187,75
13.671,263,9.4932,-1.2167,-11.3404,0.0067,-0.0236,0.0242,75
13.722,264,9.4861,-1.2144,-11.3832,0.0069,-0.0168,0.0227,75
13.774,265,9.4808,-1.2476,-11.3967,0.0036,-0.0084,0.0159,75
13.826,266,9.4652,-1.252,-11.373,0.0064,-0.0047,0.0039,75
13.878,267,9.4647,-1.259,-11.3799,-0.0018,-0.011,-0.001,75
13.93,268,9.4619,-1.2655,-11.3631,-0.0054,-0.008,-0.0085,75
13.981,269,9.4444,-1.283,-11.3523,-0.0113,-0.0184,-0.0101,75
14.033,270,9.461,-1.2817,-11.3526,-0.0154,-0.0243,-0.0137,75
14.085,271,9.4596,-1.2912,-11.3563,-0.0132,-0.0259,-0.0169,75
14.137,272,9.4593,-1.2992,-11.3658,-0.0112,-0.0281,-0.0184,75
14.188,273,9.4392,-1.2789,-11.3436,0.022,-0.0199,-0.0192,75
14.24,274,9.4625,-1.2451,-11.3919,0.0329,-0.0331,-0.007,75
14.292,275,9.4749,-1.206,-11.4424,0.053,-0.0252,-0.0072,75
14.344,276,9.4798,-1.1551,-11.4673,0.0461,-0.0205,0.0024,75
14.396,277,9.4881,-1.1282,-11.5052,0.0231,-0.0125,0.015,75
14.447,278,9.4331,-1.3132,-11.4119,-0.0059,-0.0023,0.0274,75
14.499,279,9.4556,-1.3032,-11.4131,-0.0199,-0.0115,0.0281,75
14.551,280,9.4541,-1.3348,-11.4245,-0.0299,-0.0166,0.0294,75
14.603,281,9.4544,-1.36,-11.421,-0.0301,-0.0159,0.0196,75
14.655,282,9.4432,-1.3775,-11.4032,-0.0261,-0.0122,0.0095,75
14.706,283,9.4363,-1.3124,-11.4523,-0.0211,-0.0173,0.0071,75
14.758,284,9.4591,-1.3117,-11.5048,-0.0256,-0.0249,0.0099,75
14.81,285,9.4541,-1.3063,-11.5244,-0.0224,-0.0127,0.0072,75
14.862,286,9.4441,-1.2981,-11.5087,-0.0187,-0.0095,0.003,75
14.914,287,9.4413,-1.2853,-11.5208,-0.0069,-0.0114,0.0038,75
14.965,288,9.4217,-1.2677,-11.5367,0.0164,-0.0061,0.0049,75
15.017,289,9.3885,-1.3295,-11.5703,0.0009,-0.0147,0.0066,75
15.069,290,9.3539,-1.3803,-11.5362,-0.0064,-0.0088,0.0006,75
15.121,291,9.3577,-1.3772,-11.5101,0.0011,-0.0018,-0.0034,75
15.172,292,9.3503,-1.4242,-11.5192,0.0037,-0.003,-0.0105,75
15.224,293,9.3832,-1.3233,-11.5524,-0.0205,-0.0281,-0.0042,75
15.276,294,9.4239,-1.3061,-11.6184,-0.0344,-0.0516,0.0006,75
15.328,295,9.4348,-1.2872,-11.6518,-0.0279,-0.0407,-0.002,75
15.379,296,9.4231,-1.2992,-11.6464,-0.0161,-0.0234,-0.0025,75
15.431,297,9.4378,-1.2704,-11.6563,-0.003,-0.0108,-0.0048,75
15.483,298,9.4316,-1.2489,-11.6581,0.0075,0.0086,-0.0016,75
15.535,299,9.4063,-1.2605,-11.6394,0.0257,-0.0046,-0.0008,75
15.587,300,9.4186,-1.3207,-11.6759,0.028,-0.0123,0.0092,75
15.638,301,9.4113,-1.3454,-11.6897,0.0595,0.0093,-0.0002,75
15.69,302,9.403,-1.3103,-11.687,0.0776,0.0291,0.0035,75
15.742,303,9.4163,-1.2935,-11.6086,0.0984,0.0518,0.0119,75
15.794,304,9.4292,-1.3033,-11.5615,0.0992,0.0611,0.0233,75
15.846,305,9.4398,-1.2213,-11.59,0.0951,0.0684,0.0454,75
15.897,306,9.4317,-1.3159,-11.5323,0.0826,0.0924,0.0671,75
15.949,307,9.4179,-1.3406,-11.4501,0.0416,0.1,0.0837,75
16.001,308,9.4032,-1.4894,-11.3389,0.0177,0.0684,0.0794,75
16.053,309,9.4321,-1.4976,-11.3697,-0.0009,0.041,0.0609,75
16.104,310,9.4333,-1.5349,-11.2955,-0.0424,-0.0011,0.036,75
16.156,311,9.4027,-1.4715,-11.3065,-0.0569,-0.0355,0.0164,75
16.208,312,9.4003,-1.5032,-11.2876,-0.0883,-0.077,0.0117,75
16.26,313,9.3969,-1.5599,-11.3969,-0.1088,-0.0938,0.0075,75
16.312,314,9.3875,-1.5812,-11.4201,-0.1183,-0.0895,-0.0041,75
16.363,315,9.3793,-1.6123,-11.3966,-0.0949,-0.0644,-0.0245,75
16.415,316,9.3766,-1.5223,-11.4167,-0.0837,-0.0734,-0.0166,75
16.467,317,9.4711,-1.318,-11.5209,-0.0553,-0.0543,-0.0165,75
16.519,318,9.4501,-1.3296,-11.6682,-0.0149,-0.0267,-0.023,75
16.57,319,9.4568,-1.3142,-11.6911,-0.0009,-0.0194,-0.0074,75
16.622,320,9.4235,-1.4245,-11.6543,-0.0021,-0.024,-0.0073,75
16.674,321,9.415,-1.4205,-11.6042,0.0276,-0.0269,-0.0248,75
16.726,322,9.4083,-1.4913,-11.7004,0.0127,-0.0632,-0.0244,75
16.778,323,9.3769,-1.3877,-11.7581,0.1052,-0.0372,-0.0306,75
16.829,324,9.3921,-1.4111,-11.7335,0.1177,-0.0313,-0.0086,75
16.881,325,9.4163,-1.3034,-11.809,0.1264,-0.002,0.0102,75
16.933,326,9.4165,-1.4265,-11.7207,0.1073,0.0149,0.0105,75
16.985,327,9.4078,-1.4309,-11.7065,0.0939,0.0186,0.0026,75
17.037,328,9.4401,-1.399,-11.7145,0.0766,0.0159,-0.0054,75
17.088,329,9.4256,-1.4001,-11.6638,0.0544,0.0484,0.0149,75
17.14,330,9.3847,-1.5252,-11.561,0.0361,0.057,0.014,75
17.192,331,9.3645,-1.5086,-11.4862,0.0184,0.0329,0.0104,75
17.244,332,9.3749,-1.4649,-11.5099,-0.0014,-0.0057,0.0106,75
17.295,333,9.3942,-1.467,-11.5106,-0.0112,-0.0198,0.0117,75
17.347,334,9.3676,-1.5559,-11.4435,0.006,-0.0419,0.0057,75
17.399,335,9.4254,-1.4749,-11.5887,0.0125,-0.0655,0.0002,75
17.451,336,9.433,-1.4631,-11.6913,0.0221,-0.0538,-0.0043,75
17.503,337,9.4058,-1.4474,-11.6669,0.0282,-0.0296,-0.0035,75
17.555,338,9.4151,-1.4351,-11.6755,0.0336,-0.0134,0.0011,75
17.606,339,9.4131,-1.3911,-11.7291,0.0359,0.0071,0.0066,75
17.658,340,9.3898,-1.4398,-11.6918,0.0336,0.0374,0.0145,75
17.71,341,9.3778,-1.4743,-11.6281,0.0281,0.056,0.015,75
17.762,342,9.4404,-1.1679,-11.7933,-0.0069,0.0599,0.0272,75
17.813,343,9.4288,-1.2276,-11.6853,-0.0086,0.0479,0.0078,75
17.865,344,9.4048,-1.3612,-11.6329,-0.0114,0.0538,-0.0034,75
17.917,345,9.3669,-1.4944,-11.5306,-0.0138,0.0454,-0.0028,75
17.969,346,9.3569,-1.4846,-11.5461,-0.008,0.0329,-0.0042,75
18.021,347,9.4145,-1.4595,-11.5567,-0.0179,0.0238,0.0005,75
18.072,348,9.4711,-1.317,-11.5737,-0.0839,0.0202,0.0167,75
18.124,349,9.4829,-1.4007,-11.5374,-0.1315,0.0153,0.0208,75
18.176,350,9.4855,-1.4741,-11.5546,-0.1762,0.0339,-0.0016,75
18.228,351,9.4234,-1.564,-11.4696,-0.1797,0.0819,-0.0453,75
18.28,352,9.2017,-1.8431,-11.1606,-0.0556,0.1379,-0.1157,75
18.331,353,9.3664,-1.3631,-11.2326,0.0379,0.0912,-0.1344,75
18.383,354,9.4603,-1.2309,-11.3141,0.0316,0.0236,-0.1158,75
18.435,355,9.5188,-1.1805,-11.4492,0.0221,0.0053,-0.1136,75
18.487,356,9.5036,-1.1391,-11.3334,0.0206,0.0248,-0.1256,75
18.538,357,9.493,-1.0881,-11.282,0.0075,0.0371,-0.1344,75
18.59,358,9.4667,-1.033,-11.231,0.0045,0.0373,-0.1318,75
18.642,359,9.4661,-0.9773,-11.2562,-0.0032,0.0092,-0.1236,75
18.694,360,9.4745,-0.939,-11.2101,-0.0162,-0.019,-0.1148,75
18.745,361,9.4504,-0.8066,-11.1222,-0.0127,-0.0557,-0.1009,75
