right_leg_timestamp,right_leg_index,right_leg_accel_x,right_leg_accel_y,right_leg_accel_z,right_leg_gyro_x,right_leg_gyro_y,right_leg_gyro_z,right_leg_battery_percentage,left_leg_timestamp,left_leg_index,left_leg_accel_x,left_leg_accel_y,left_leg_accel_z,left_leg_gyro_x,left_leg_gyro_y,left_leg_gyro_z,left_leg_battery_percentage
0.196,3,9.6976,-0.7379,-10.9456,-0.095,-0.0574,0.0337,87,0.011,0,2.987,0.9454,-18.8983,0.1959,-0.0385,-0.1247,51
0.247,4,9.6425,-0.8517,-11.0214,-0.1549,-0.0538,0.0559,87,0.063,1,2.9798,0.8174,-18.7897,0.1336,-0.0293,-0.0879,51
0.299,5,9.5605,-1.0203,-11.1438,-0.1278,-0.0474,0.0221,87,0.114,2,2.9719,0.7929,-18.7627,0.1214,-0.0065,-0.0683,51
0.351,6,9.5856,-0.8787,-11.1856,0.0182,-0.0269,-0.0266,87,0.166,3,2.9037,0.7336,-18.7674,0.0898,0.0085,-0.0427,51
0.403,7,9.7238,-0.5887,-11.0841,0.058,-0.05,-0.0283,87,0.218,4,2.8337,0.7063,-18.876,0.0359,-0.0,-0.0041,51
0.455,8,9.7153,-0.5739,-11.1551,0.0352,-0.0656,-0.0003,87,0.27,5,2.7619,0.6226,-18.9317,0.032,-0.0178,0.0134,51
0.506,9,9.6999,-0.6111,-11.186,0.0365,-0.0369,0.0166,87,0.321,6,2.702,0.6187,-18.9876,0.091,-0.0307,0.0156,51
0.558,10,9.6907,-0.6528,-11.1711,0.0016,-0.0162,0.0514,87,0.373,7,2.7632,0.6016,-19.0246,0.1553,-0.0228,0.0041,51
0.61,11,9.6228,-0.778,-11.2022,-0.0227,-0.0075,0.0267,87,0.425,8,2.9168,0.6141,-19.0851,0.1305,-0.0321,0.0172,51
0.662,12,9.4778,-1.0312,-11.1954,0.001,-0.0007,-0.0256,87,0.477,9,3.0049,0.5982,-19.0668,0.1131,-0.0667,0.034,51
0.714,13,9.613,-0.7191,-11.1478,0.0031,-0.0313,-0.0198,87,0.529,10,2.9734,0.6458,-19.0108,0.0734,-0.0937,0.045,51
0.765,14,9.5856,-0.7931,-11.2063,-0.0084,-0.0229,0.0108,87,0.58,11,2.9227,0.6885,-19.0284,0.0389,-0.1057,0.0671,51
0.817,15,9.5097,-0.926,-11.2204,0.0051,-0.0291,-0.0251,87,0.632,12,2.8294,0.7048,-19.1202,-0.0312,-0.1262,0.0881,51
0.869,16,9.683,-0.6382,-11.0993,0.1125,-0.0771,-0.0487,87,0.684,13,2.6675,0.8319,-19.4173,-0.1325,-0.1948,0.0854,51
0.921,17,9.696,-0.5895,-11.1226,0.0943,-0.0554,-0.0334,87,0.736,14,2.4336,0.8495,-19.4132,-0.1653,-0.2736,0.0508,51
0.973,18,9.6373,-0.6786,-11.1708,0.099,-0.0623,-0.022,87,0.787,15,2.2299,0.9154,-19.2715,-0.114,-0.3216,0.0101,51
1.024,19,9.637,-0.5917,-11.1664,0.0907,-0.0637,-0.0097,87,0.839,16,2.0403,0.8838,-19.1408,-0.0781,-0.3318,-0.04,51
1.076,20,9.5819,-0.4484,-11.2176,0.0019,0.0077,0.0117,87,0.891,17,1.9576,0.7687,-18.8413,-0.0328,-0.3012,-0.0747,51
1.128,21,9.5581,-0.6133,-11.2775,-0.1437,0.0128,0.0387,87,0.943,18,1.8808,0.5513,-18.52,-0.0274,-0.2076,-0.0748,51
1.18,22,9.4559,-0.88,-11.2835,-0.165,0.0301,0.0232,87,0.995,19,1.9737,0.5671,-18.6311,-0.0561,-0.053,-0.0489,51
1.231,23,9.4674,-0.9145,-11.2704,-0.1022,0.0354,-0.0021,87,1.046,20,2.0154,0.52,-18.9192,-0.029,0.0502,-0.0248,51
1.283,24,9.4743,-0.9155,-11.2221,-0.0588,0.0325,-0.0096,87,1.098,21,2.0819,0.6702,-19.0974,-0.0086,0.0927,0.0265,51
1.335,25,9.631,-0.6687,-11.1749,-0.0204,0.0425,-0.0193,87,1.15,22,2.0843,0.821,-19.1666,-0.0447,0.1086,0.0869,51
1.387,26,9.5955,-0.6876,-11.1647,-0.0334,0.0513,-0.0,87,1.202,23,2.095,0.9106,-19.1507,-0.0438,0.1203,0.1145,51
1.439,27,9.6153,-0.7476,-11.1508,-0.007,0.0558,0.0049,87,1.254,24,2.1444,0.9578,-19.1558,-0.0429,0.1292,0.1072,51
1.49,28,9.6421,-0.7523,-11.0932,-0.0436,0.0488,0.0226,87,1.305,25,2.2615,0.9799,-19.1268,-0.0185,0.1418,0.0561,51
1.542,29,9.6243,-0.8454,-11.1338,-0.0498,0.0471,0.019,87,1.357,26,2.3395,0.9795,-19.1543,0.0036,0.1558,-0.0054,51
1.594,30,9.6399,-0.7304,-11.0638,-0.0176,0.056,0.012,87,1.409,27,2.3348,0.9054,-19.1686,-0.0074,0.156,-0.0599,51
1.646,31,9.6323,-0.7455,-11.0084,-0.0682,0.0401,0.021,87,1.46,28,2.3722,0.79,-19.1174,0.0083,0.1549,-0.0944,51
1.698,32,9.6355,-0.7129,-11.0721,-0.1178,0.0327,0.0195,87,1.512,29,2.3994,0.7305,-19.0597,0.0222,0.1638,-0.1113,51
1.75,33,9.6627,-0.7182,-11.1016,-0.1398,0.0536,0.0116,87,1.564,30,2.4481,0.7379,-19.0093,0.0481,0.1879,-0.1335,51
1.801,34,9.5933,-0.8942,-11.0743,-0.0992,0.0581,-0.009,87,1.616,31,2.5532,0.7966,-19.0222,0.078,0.1819,-0.1592,51
1.853,35,9.5542,-0.8512,-11.0787,0.0765,0.0652,-0.0357,87,1.668,32,2.6477,0.9296,-19.0124,0.093,0.1594,-0.163,51
1.905,36,9.5377,-0.8221,-10.9157,0.0722,0.0615,-0.0174,87,1.719,33,2.6476,0.9911,-18.8579,0.0683,0.1428,-0.1369,51
1.957,37,9.5921,-0.7484,-10.9167,0.0428,0.0286,-0.0133,87,1.771,34,2.7224,1.0331,-18.8235,0.0278,0.1457,-0.1068,51
2.008,38,9.6276,-0.7379,-10.9161,0.0416,0.0149,-0.0184,87,1.823,35,2.7978,1.011,-18.8781,-0.0301,0.1426,-0.0916,51
2.06,39,9.5093,-1.0658,-10.9262,0.106,0.0243,-0.0272,87,1.875,36,2.8821,0.947,-18.935,-0.0593,0.1159,-0.0916,51
2.112,40,9.687,-0.4174,-10.7264,0.2786,-0.025,-0.0664,87,1.926,37,2.8966,0.8983,-18.8645,-0.0331,0.0946,-0.1116,51
2.164,41,9.7413,-0.3983,-10.8092,0.2304,-0.0507,-0.0535,87,1.978,38,3.0203,0.8745,-18.8818,-0.0111,0.0939,-0.138,51
2.216,42,9.758,-0.2991,-10.8092,0.1177,-0.029,-0.021,87,2.03,39,3.1053,0.8253,-18.9343,0.0015,0.0936,-0.1503,51
2.267,43,9.7056,-0.6158,-10.8937,0.0168,-0.0397,-0.0143,87,2.082,40,3.2003,0.7793,-18.9955,0.0048,0.0651,-0.1278,51
2.319,44,9.6122,-0.7729,-10.8998,0.0153,-0.0292,-0.0147,87,2.134,41,3.1243,0.7474,-18.9269,0.0046,0.0227,-0.0892,51
2.371,45,9.6692,-0.5572,-10.8775,0.0747,-0.0552,-0.0212,87,2.185,42,3.0018,0.7864,-18.846,0.0107,-0.0053,-0.0434,51
2.423,46,9.7173,-0.4575,-10.9172,0.0426,-0.0661,-0.0076,87,2.237,43,2.9211,0.8687,-18.8332,-0.0018,-0.0132,0.0087,51
2.475,47,9.6629,-0.6367,-11.0267,0.0006,-0.0541,-0.0016,87,2.289,44,2.9344,0.9066,-18.9313,-0.0169,-0.0225,0.0565,51
2.526,48,9.6382,-0.6587,-11.0324,-0.0049,-0.044,-0.0007,87,2.341,45,2.9453,0.941,-19.0627,-0.0283,-0.0556,0.087,51
2.578,49,9.6176,-0.6646,-11.0639,0.0002,-0.0358,0.0005,87,2.392,46,2.9001,0.959,-19.0592,-0.0157,-0.1054,0.1023,51
2.63,50,9.6016,-0.6733,-11.0987,0.0309,-0.029,-0.0008,87,2.444,47,2.8262,1.0031,-18.975,-0.0107,-0.141,0.1142,51
2.682,51,9.639,-0.6155,-11.0782,0.0109,-0.0195,0.0111,87,2.496,48,2.7575,1.0153,-18.8561,-0.0212,-0.1418,0.1185,51
2.734,52,9.6081,-0.7604,-11.14,-0.0222,-0.0097,0.0191,87,2.548,49,2.7674,1.0204,-18.8161,-0.0123,-0.1159,0.1023,51
2.785,53,9.6758,-0.5972,-11.0742,-0.0422,0.0128,0.0231,87,2.6,50,2.7914,1.0082,-18.846,-0.0131,-0.0849,0.0728,51
2.837,54,9.645,-0.6718,-11.0983,-0.109,0.0346,0.0308,87,2.652,51,2.8162,0.9601,-18.7855,-0.0141,-0.0631,0.0478,51
2.889,55,9.6407,-0.7228,-11.0878,-0.1273,0.0455,0.0157,87,2.703,52,2.7871,0.9929,-18.6675,0.0063,-0.0737,0.0439,51
2.94,56,9.626,-0.6944,-11.0676,-0.114,0.0335,0.0115,87,2.755,53,2.7793,1.1208,-18.6686,-0.0157,-0.0358,0.0435,51
2.992,57,9.5738,-0.8078,-11.0415,-0.0717,0.0156,0.0061,87,2.807,54,2.8455,1.1308,-18.6937,-0.0368,0.0153,0.0472,51
3.044,58,9.5904,-0.644,-11.0476,-0.0232,-0.0135,-0.0023,87,2.859,55,2.8377,1.1815,-18.8455,-0.0705,0.0505,0.0414,51
3.096,59,9.5593,-0.7439,-11.0739,-0.0251,-0.0398,0.0031,87,2.91,56,2.8527,1.1609,-18.9335,-0.1003,0.069,0.0286,51
3.148,60,9.5705,-0.7722,-11.1396,0.0199,-0.0436,-0.0024,87,2.962,57,2.8225,1.1326,-19.0294,-0.0971,0.0751,0.0038,51
3.2,61,9.5627,-0.7699,-11.1289,0.0158,-0.0308,0.0097,87,3.014,58,2.7671,1.0045,-19.0152,-0.092,0.0745,-0.0234,51
3.252,62,9.5374,-0.8902,-11.1873,-0.0007,-0.0143,0.0147,87,3.066,59,2.7411,0.9304,-18.9873,-0.0699,0.0683,-0.0334,51
3.303,63,9.5409,-0.8097,-11.1705,0.0208,0.0021,0.008,87,3.118,60,2.7465,0.9159,-18.9827,-0.043,0.0589,-0.0281,51
3.355,64,9.5582,-0.7623,-11.1327,0.0157,0.0085,0.0027,87,3.169,61,2.8507,0.9929,-18.9772,-0.0146,0.0436,-0.0103,51
3.407,65,9.5673,-0.7493,-11.0922,0.0242,0.0143,-0.0019,87,3.221,62,2.9113,1.0669,-18.9217,0.0005,0.0253,0.003,51
3.459,66,9.556,-0.7779,-11.089,0.0587,0.0088,-0.0095,87,3.273,63,2.9575,1.1293,-18.8432,0.0101,0.0168,-0.0024,51
3.511,67,9.5931,-0.6968,-11.0847,0.0475,0.012,-0.0064,87,3.325,64,2.9549,1.1732,-18.7508,0.0183,0.0272,-0.0069,51
3.562,68,9.5779,-0.6819,-11.097,0.0295,0.0342,0.0012,87,3.376,65,2.9287,1.1625,-18.6213,-0.0001,0.0444,-0.0058,51
3.614,69,9.5637,-0.6793,-11.0201,-0.0026,0.046,0.0111,87,3.428,66,2.939,1.1727,-18.6118,-0.0107,0.0775,-0.0089,51
3.666,70,9.5395,-0.7399,-11.0042,-0.0038,0.0222,-0.0013,87,3.48,67,3.0044,1.2282,-18.7342,0.0098,0.0941,-0.0252,51
3.718,71,9.6465,-0.5941,-10.9906,0.0526,-0.0103,-0.0128,87,3.532,68,3.0633,1.2622,-18.8173,0.0254,0.0877,-0.0585,51
3.769,72,9.6314,-0.6081,-10.9849,0.0439,-0.0298,-0.0069,87,3.584,69,3.1617,1.2836,-18.8716,0.0397,0.0717,-0.0903,51
3.821,73,9.6364,-0.5624,-10.9853,0.0145,-0.0322,-0.001,87,3.635,70,3.2117,1.2324,-18.8502,0.0452,0.0455,-0.1098,51
3.873,74,9.6272,-0.6138,-11.0452,-0.0117,-0.0283,-0.0009,87,3.687,71,3.2361,1.166,-18.8333,0.0396,0.0247,-0.1088,51
3.925,75,9.6161,-0.6857,-11.0191,-0.0146,-0.0134,-0.0063,87,3.739,72,3.1692,1.0783,-18.7955,0.025,0.002,-0.091,51
3.976,76,9.6418,-0.6162,-10.9299,0.0133,-0.0204,-0.0123,87,3.79,73,3.1363,1.0536,-18.7656,0.0198,-0.0106,-0.0617,51
4.028,77,9.6222,-0.5885,-10.9977,0.0512,-0.0343,-0.0136,87,3.842,74,3.1536,1.0761,-18.8007,0.023,-0.0225,-0.0314,51
4.08,78,9.6308,-0.5495,-11.0617,0.0417,-0.0354,-0.0118,87,3.894,75,3.1098,1.1899,-19.2755,-0.0198,-0.0805,0.003,51
4.132,79,9.6201,-0.5303,-11.0636,0.0185,-0.0155,-0.0027,87,3.946,76,2.9955,1.3095,-19.8967,-0.1656,-0.2782,0.0324,51
4.184,80,9.6189,-0.5408,-11.1038,-0.0242,0.0015,0.0073,87,3.998,77,2.7026,1.2755,-19.842,-0.1306,-0.5121,0.027,51
4.235,81,9.6014,-0.5687,-11.14,-0.0649,0.0348,0.021,87,4.049,78,2.2841,1.2919,-19.4366,-0.0552,-0.6575,0.0186,51
4.287,82,9.5822,-0.6461,-11.0844,-0.0724,0.0698,0.0224,87,4.101,79,1.9935,1.1953,-18.9723,0.0053,-0.672,0.025,51
4.339,83,9.5589,-0.6439,-11.0324,-0.051,0.0723,0.0184,87,4.153,80,1.8623,1.1886,-18.6432,0.0302,-0.5994,0.038,51
4.391,84,9.5377,-0.6962,-11.0282,-0.0113,0.0619,0.0156,87,4.205,81,1.7408,1.1955,-18.5006,0.022,-0.4728,0.0471,51
4.442,85,9.605,-0.5344,-10.9577,0.0277,0.0529,0.0058,87,4.257,82,1.6344,1.1583,-18.4264,0.0147,-0.3069,0.0331,51
4.494,86,9.6611,-0.5593,-10.9591,0.0426,0.0756,0.0069,87,4.309,83,1.5576,1.3187,-18.8154,0.0234,-0.1791,0.0222,51
4.546,87,9.7072,-0.5011,-10.8876,0.0219,0.1208,0.0117,87,4.36,84,1.4315,1.4204,-19.0481,-0.0013,-0.1168,0.0511,51
4.598,88,9.5693,-0.6128,-10.7669,-0.0494,0.1426,0.0397,87,4.412,85,1.3613,1.4891,-19.1374,-0.0302,-0.0881,0.0944,51
4.65,89,9.528,-0.7322,-10.7187,-0.051,0.0896,0.0319,87,4.464,86,1.4024,1.42,-19.1509,-0.0732,-0.0624,0.114,51
4.702,90,9.4451,-0.9699,-10.8086,0.0762,0.0374,0.0204,87,4.516,87,1.404,1.3287,-19.2393,-0.0792,-0.0231,0.0935,51
4.753,91,9.6686,-0.3188,-10.6066,0.0538,0.0305,0.0177,87,4.567,88,1.3852,1.2799,-19.2739,-0.0652,0.0091,0.0842,51
4.805,92,9.6399,-0.5146,-10.6166,-0.0098,0.0202,0.0231,87,4.619,89,1.3673,1.3011,-19.3572,-0.0125,0.0249,0.0841,51
4.857,93,9.6827,-0.5394,-10.6271,-0.0171,0.0144,0.0159,87,4.671,90,1.344,1.2943,-19.2614,-0.0092,0.0322,0.078,51
4.909,94,9.6536,-0.6435,-10.6521,-0.0382,0.0116,0.0137,87,4.723,91,1.3364,1.3395,-19.2585,-0.0154,0.0501,0.0812,51
4.96,95,9.6439,-0.686,-10.6309,-0.041,0.0112,0.0107,87,4.775,92,1.3642,1.3984,-19.301,-0.0407,0.0494,0.0955,51
5.012,96,9.6154,-0.7567,-10.6419,-0.0474,0.0001,0.007,87,4.826,93,1.4064,1.4829,-19.3529,-0.0951,0.0393,0.1057,51
5.064,97,9.5848,-0.8816,-10.6599,-0.0135,-0.0091,-0.0028,87,4.878,94,1.4201,1.4813,-19.3672,-0.1533,0.0151,0.1056,51
5.116,98,9.7716,-0.4157,-10.538,0.0484,-0.0171,-0.0189,87,4.93,95,1.3604,1.5036,-19.2861,-0.1847,-0.001,0.1085,51
5.168,99,9.7186,-0.532,-10.6001,-0.0135,-0.0075,-0.0012,87,4.982,96,1.3198,1.5594,-19.2286,-0.1372,0.0113,0.1047,51
5.219,100,9.6996,-0.5,-10.6335,-0.0664,0.0219,0.0064,87,5.033,97,1.3439,1.6069,-19.2139,-0.0981,0.0319,0.0885,51
5.271,101,9.6221,-0.6498,-10.6303,-0.0823,0.0235,0.0054,87,5.085,98,1.3961,1.6,-19.2022,-0.0374,0.0496,0.0577,51
5.323,102,9.6204,-0.7859,-10.6188,-0.0426,0.0282,-0.0071,87,5.137,99,1.4266,1.6719,-19.245,-0.0229,0.0498,0.0325,51
5.375,103,9.4937,-0.9443,-10.5684,0.0613,0.013,-0.0346,87,5.189,100,1.4129,1.6859,-19.3203,-0.0511,0.0131,0.0186,51
5.426,104,9.5902,-0.6862,-10.4997,0.1643,-0.0477,-0.0633,87,5.24,101,1.3925,1.7606,-19.4306,-0.0446,-0.0234,0.0003,51
5.478,105,9.6894,-0.5816,-10.6035,0.1549,-0.0703,-0.0584,87,5.292,102,1.4056,1.8701,-19.4944,-0.0358,-0.0485,-0.0179,51
5.53,106,9.7126,-0.513,-10.6434,0.0881,-0.0425,-0.0367,87,5.344,103,1.371,1.8222,-19.2587,0.0197,-0.0661,-0.0355,51
5.582,107,9.6585,-0.5951,-10.6856,0.0307,-0.0094,-0.0149,87,5.396,104,1.3761,1.7652,-19.0106,0.0535,-0.0505,-0.0454,51
5.634,108,9.5946,-0.7188,-10.7173,0.0272,0.0021,-0.0224,87,5.448,105,1.3484,1.756,-18.9922,0.0662,-0.0215,-0.0457,51
5.685,109,9.6164,-0.6581,-10.6429,0.0943,-0.0023,-0.0223,87,5.499,106,1.3811,1.8014,-19.2235,0.0851,0.0107,-0.0516,51
5.737,110,9.6099,-0.6667,-10.6083,0.1589,-0.0317,-0.0273,87,5.551,107,1.3735,1.8058,-19.455,0.091,-0.0093,-0.0665,51
5.789,111,9.6574,-0.504,-10.5832,0.1893,-0.0506,-0.0328,87,5.603,108,1.3565,1.6692,-19.378,0.1169,-0.0348,-0.0966,51
5.841,112,9.6741,-0.3519,-10.6512,0.1523,-0.0523,-0.0201,87,5.655,109,1.3806,1.5999,-19.2213,0.1696,-0.0314,-0.1212,51
5.893,113,9.6808,-0.4023,-10.6537,-0.0053,-0.0344,0.0151,87,5.707,110,1.4216,1.498,-19.0778,0.1203,-0.0078,-0.1127,51
5.944,114,9.6538,-0.5618,-10.749,-0.0698,-0.0168,0.0315,87,5.759,111,1.4522,1.4699,-19.1147,0.0161,0.0274,-0.0913,51
5.996,115,9.6712,-0.5436,-10.7511,-0.1114,0.0114,0.0429,87,5.81,112,1.4937,1.4395,-19.1464,-0.0683,0.0705,-0.0578,51
6.048,116,9.6308,-0.6213,-10.7519,-0.1067,0.0089,0.0386,87,5.862,113,1.4883,1.4675,-19.2613,-0.0387,0.0913,-0.0322,51
6.1,117,9.6261,-0.6504,-10.7559,-0.0787,0.0016,0.0256,87,5.914,114,1.4694,1.4587,-19.2497,-0.0366,0.0884,-0.0075,51
6.152,118,9.5354,-0.8832,-10.7981,-0.0121,-0.0127,0.0115,87,5.966,115,1.4027,1.4931,-19.2846,-0.0306,0.0796,0.015,51
6.204,119,9.6833,-0.4529,-10.6909,0.0093,-0.0109,0.0019,87,6.017,116,1.3752,1.5456,-19.2817,-0.0223,0.0669,0.0363,51
6.255,120,9.6639,-0.5383,-10.7411,-0.0054,-0.0143,0.0094,87,6.069,117,1.4039,1.5932,-19.2448,-0.0399,0.0536,0.0522,51
6.307,121,9.6493,-0.5546,-10.7437,-0.0239,0.0028,0.0147,87,6.121,118,1.4343,1.5511,-19.2493,-0.0332,0.0542,0.0567,51
6.359,122,9.6066,-0.6751,-10.7553,-0.0211,-0.0008,0.0097,87,6.173,119,1.4865,1.4657,-19.1341,0.0339,0.0645,0.0563,51
6.411,123,9.6007,-0.6828,-10.7823,0.0124,-0.0101,-0.001,87,6.225,120,1.5512,1.4849,-19.1589,0.0798,0.0824,0.0661,51
6.462,124,9.5934,-0.7118,-10.7883,0.0202,-0.0161,0.001,87,6.276,121,1.6333,1.5227,-19.1926,0.0601,0.0672,0.0954,51
6.514,125,9.6335,-0.6568,-10.7712,0.0026,-0.0181,0.0023,87,6.328,122,1.7015,1.5405,-19.1215,0.0414,0.0577,0.1108,51
6.566,126,9.6258,-0.6702,-10.8109,-0.0198,-0.0007,0.0093,87,6.38,123,1.7313,1.518,-19.0664,0.0058,0.0689,0.1057,51
6.618,127,9.6742,-0.6502,-10.8214,-0.0404,0.0326,0.0159,87,6.432,124,1.7847,1.4638,-19.1059,-0.0251,0.0917,0.0862,51
6.67,128,9.6281,-0.7334,-10.7709,-0.0316,0.038,0.0083,87,6.483,125,1.857,1.4445,-19.2375,-0.0471,0.0763,0.074,51
6.721,129,9.526,-0.8894,-10.775,0.0093,0.0018,-0.0043,87,6.535,126,1.9202,1.4442,-19.239,-0.0472,0.0423,0.0626,51
6.773,130,9.7217,-0.5998,-10.6642,0.0084,-0.0193,-0.0084,87,6.587,127,1.9599,1.5225,-19.1589,-0.0232,0.0273,0.0631,51
6.825,131,9.6756,-0.637,-10.7746,-0.0204,-0.0092,0.006,87,6.639,128,1.9637,1.5507,-19.1129,-0.04,0.0294,0.0698,51
6.877,132,9.6338,-0.6862,-10.7756,-0.019,0.0121,0.0088,87,6.691,129,1.9572,1.4729,-19.219,-0.0564,0.0316,0.0649,51
6.929,133,9.5846,-0.7531,-10.7394,-0.0129,-0.005,0.0006,87,6.742,130,1.9522,1.3651,-19.2903,0.0504,0.0045,0.0291,51
6.98,134,9.5819,-0.7973,-10.7917,0.0286,-0.0532,-0.0139,87,6.794,131,1.9372,1.3583,-19.3006,0.1359,-0.0431,-0.0072,51
7.032,135,9.6738,-0.6306,-10.8214,0.067,-0.0688,-0.0262,87,6.846,132,1.9137,1.4134,-19.3428,0.1547,-0.0874,-0.025,51
7.084,136,9.6616,-0.7217,-10.8585,0.0956,-0.0882,-0.0363,87,6.897,133,1.8415,1.3576,-19.2503,0.1335,-0.1141,-0.0352,51
7.136,137,9.6504,-0.67,-10.9559,0.1604,-0.0777,-0.0515,87,6.95,134,1.7278,1.1846,-19.1882,0.1155,-0.1245,-0.0393,51
7.187,138,9.6585,-0.6195,-11.0189,0.1769,-0.0677,-0.0468,87,7.001,135,1.6747,1.1189,-19.1537,0.0946,-0.1223,-0.0062,51
7.239,139,9.661,-0.6051,-10.8984,0.2139,-0.0456,-0.0467,87,7.053,136,1.6324,1.1137,-19.2084,0.0947,-0.1203,0.0533,51
7.291,140,9.6623,-0.5924,-10.9726,0.2359,-0.0354,-0.0484,87,7.105,137,1.5818,1.1606,-19.2308,0.0927,-0.1184,0.0806,51
7.343,141,9.6488,-0.4659,-10.9921,0.1896,-0.0177,-0.02,87,7.157,138,1.523,1.2537,-19.1895,0.0961,-0.1063,0.0788,51
7.395,142,9.6528,-0.2576,-10.9366,0.0796,-0.0006,0.0219,87,7.209,139,1.5172,1.3319,-19.1353,0.0515,-0.0785,0.0549,51
7.446,143,9.6736,-0.1275,-10.8917,-0.0509,0.0116,0.0501,87,7.26,140,1.5678,1.3025,-19.1172,0.0056,-0.0435,0.0184,51
7.498,144,9.5943,-0.4399,-10.9882,-0.195,0.0584,0.089,87,7.312,141,1.6528,1.2407,-19.1449,-0.01,0.003,-0.0388,51
7.55,145,9.6171,-0.6034,-11.0402,-0.2227,0.0218,0.0814,87,7.364,142,1.6995,1.1478,-19.1969,-0.0332,0.0585,-0.102,51
7.602,146,9.5837,-0.6599,-11.0297,-0.24,0.0273,0.0597,87,7.416,143,1.6887,1.0885,-19.2732,-0.0368,0.0905,-0.1521,51
7.654,147,9.5544,-0.7096,-10.9813,-0.2049,-0.0025,0.0338,87,7.468,144,1.6307,0.9875,-19.2555,-0.051,0.0852,-0.1618,51
7.705,148,9.6086,-0.6075,-11.0058,-0.1804,-0.0189,0.027,87,7.52,145,1.624,0.919,-19.2419,-0.0693,0.0879,-0.1253,51
7.757,149,9.5692,-0.6895,-11.0401,-0.1549,-0.018,0.0125,87,7.571,146,1.5925,0.8423,-19.2413,-0.0843,0.0879,-0.0607,51
7.809,150,9.4773,-0.9267,-11.0597,-0.077,-0.0059,-0.0121,87,7.623,147,1.697,0.805,-19.2409,-0.0821,0.0728,-0.0061,51
7.861,151,9.5889,-0.5577,-10.8965,0.0817,-0.007,-0.0463,87,7.675,148,1.8765,0.9959,-19.1835,-0.0518,0.0516,0.068,51
7.913,152,9.5459,-0.6859,-10.9085,0.1166,-0.0844,-0.0544,87,7.727,149,2.1601,1.2913,-19.056,-0.0504,0.0546,0.135,51
7.965,153,9.5609,-0.5067,-11.0457,0.1559,-0.1096,-0.0745,87,7.779,150,2.2688,1.3478,-19.0387,-0.1048,0.1067,0.1566,51
8.016,154,9.5463,-0.5705,-11.0756,0.1777,-0.0969,-0.0857,87,7.83,151,2.1206,1.3421,-19.1095,-0.1,0.1606,0.1459,51
8.068,155,9.6158,-0.6713,-11.0306,0.2388,-0.062,-0.0988,87,7.882,152,1.9386,1.3615,-19.2674,-0.1054,0.1715,0.1444,51
8.12,156,9.6103,-0.593,-11.1133,0.2453,-0.0448,-0.0964,87,7.934,153,1.7918,1.4136,-19.4029,-0.083,0.1353,0.1494,51
8.172,157,9.6017,-0.5465,-11.0995,0.2444,-0.0482,-0.0815,87,7.986,154,1.7222,1.4339,-19.4767,-0.0607,0.06,0.1648,51
8.223,158,9.6236,-0.4736,-11.1252,0.2149,-0.0325,-0.061,87,8.038,155,1.7167,1.4896,-19.4299,-0.0155,-0.0279,0.1679,51
8.275,159,9.6273,-0.4361,-11.1253,0.1507,-0.0307,-0.0241,87,8.089,156,1.7495,1.593,-19.2805,0.0221,-0.1145,0.1674,51
8.327,160,9.6185,-0.4352,-11.1906,0.1152,-0.026,0.0282,87,8.141,157,1.7261,1.5439,-19.2961,-0.0946,-0.1104,0.1919,51
8.379,161,9.6224,-0.4648,-11.2682,0.0616,0.0539,0.0683,87,8.193,158,1.75,1.8319,-19.0878,-0.382,-0.1304,0.2126,51
8.431,162,9.5957,-0.5246,-11.237,0.0463,0.0881,0.0776,87,8.245,159,1.791,1.8478,-19.1058,-0.3126,-0.1129,0.1593,51
8.482,163,9.5968,-0.5774,-11.1298,0.0493,0.1052,0.0757,87,8.297,160,1.8384,1.8684,-19.1004,-0.1995,-0.0734,0.013,51
8.534,164,9.5831,-0.5781,-11.0633,0.0349,0.1085,0.0685,87,8.348,161,1.9856,1.7771,-19.0348,-0.0434,-0.0301,-0.1582,51
8.586,165,9.5368,-0.6085,-10.7172,-0.1781,0.1114,0.0939,87,8.4,162,2.1183,1.9048,-18.8898,0.1169,0.0151,-0.2822,51
8.637,166,9.5457,-0.6331,-10.7771,-0.159,0.078,0.0548,87,8.452,163,2.0743,1.5186,-18.9668,0.1131,0.0915,-0.3082,51
8.689,167,9.564,-0.6702,-10.8281,-0.1119,0.0445,0.0356,87,8.504,164,1.9799,1.4604,-19.0633,0.1216,0.1295,-0.2819,51
8.741,168,9.4962,-0.7792,-10.8778,-0.2072,0.0528,0.0354,87,8.556,165,1.8994,1.4752,-19.2049,0.1226,0.1206,-0.1979,51
8.793,169,9.5117,-0.8021,-10.8824,-0.1913,0.045,0.019,87,8.607,166,1.8459,1.389,-19.2299,0.0888,0.0709,-0.1066,51
8.845,170,9.6106,-0.5178,-10.8528,-0.2765,0.0556,0.0242,87,8.659,167,1.9186,1.3033,-19.1344,0.1144,0.0433,-0.0333,51
8.896,171,9.5227,-0.9731,-10.7177,-0.3761,0.0553,0.0622,87,8.711,168,2.0484,1.1782,-18.9106,0.1395,0.0719,-0.0166,51
8.948,172,9.4236,-1.3234,-10.9281,-0.2937,0.0136,0.0064,87,8.763,169,2.2351,1.1076,-18.9623,0.1715,0.1227,-0.0538,51
9.0,173,9.2103,-0.9801,-11.031,0.047,-0.021,-0.0854,87,8.815,170,2.1083,1.266,-19.0215,0.1653,0.1422,-0.0437,51
9.052,174,9.3499,-0.8604,-11.1312,0.1792,-0.149,-0.1068,87,8.866,171,1.9938,1.5117,-19.0849,0.149,0.1046,0.0358,51
9.104,175,9.3381,-0.8111,-11.17,0.2733,-0.1811,-0.14,87,8.918,172,2.0217,1.5771,-19.1505,0.0308,0.032,0.1373,51
9.155,176,9.4228,-0.6702,-11.292,0.2999,-0.1708,-0.107,87,8.97,173,2.1688,1.4582,-19.2599,-0.0966,-0.0234,0.1981,51
9.207,177,9.5103,-0.5642,-11.2918,0.27,-0.1105,-0.0781,87,9.022,174,2.1219,1.3116,-19.2671,-0.1827,-0.0617,0.234,51
9.259,178,9.5136,-0.5869,-11.3475,0.2357,-0.0461,-0.0513,87,9.073,175,1.5902,1.2534,-19.3757,-0.2533,-0.1146,0.3114,51
9.311,179,9.664,-0.3512,-11.2284,0.2009,0.0407,-0.0123,87,9.125,176,1.6313,1.3854,-19.5701,-0.334,-0.2352,0.4419,51
9.363,180,9.606,-0.3248,-11.0816,0.1095,0.0994,0.0447,87,9.177,177,2.0002,1.5455,-19.6293,-0.2895,-0.3559,0.42,51
9.414,181,9.5878,-0.4324,-10.9878,0.048,0.1202,0.0716,87,9.229,178,2.2218,1.6263,-19.3463,-0.1931,-0.3703,0.3001,51
9.466,182,9.6133,-0.5364,-10.8864,0.0244,0.1019,0.0674,87,9.281,179,1.9308,1.523,-19.0986,-0.0999,-0.2998,0.1705,51
9.518,183,9.5727,-0.6671,-10.8264,0.0206,0.0776,0.0472,87,9.332,180,1.6115,1.3664,-18.9072,-0.0228,-0.2233,0.0805,51
9.57,184,9.5861,-0.7445,-10.9152,0.0423,0.0437,0.0311,87,9.384,181,1.4634,1.6376,-19.1173,-0.0675,-0.1469,0.0157,51
9.621,185,9.6045,-0.7681,-10.8147,0.0465,0.042,0.0326,87,9.436,182,1.5042,1.5517,-19.2479,0.0151,-0.0885,-0.0602,51
9.673,186,9.6953,-0.5922,-10.8274,-0.0061,0.0688,0.0559,87,9.487,183,1.2781,1.125,-19.7747,0.2716,-0.0581,-0.1695,51
9.725,187,9.7896,-0.7463,-10.9562,-0.0271,0.1431,0.0698,87,9.539,184,0.8138,1.5917,-20.4988,0.1697,-0.2035,-0.109,51
9.777,188,9.5091,-0.862,-10.8164,0.1449,0.1661,0.0843,87,9.591,185,1.3381,1.7677,-20.3041,0.2219,-0.4382,-0.1732,51
9.829,189,9.6414,-1.8014,-10.9342,0.5697,0.0986,0.1452,87,9.643,186,2.188,1.804,-19.7041,0.1444,-0.6202,-0.1745,51
9.88,190,9.1931,-1.2513,-9.6674,0.8313,-0.2078,0.0727,87,9.695,187,3.3535,-0.2779,-19.451,0.1648,-0.5818,-0.4839,51
9.932,191,8.5079,-1.372,-10.3437,0.5739,-0.3273,-0.0724,87,9.746,188,1.9373,-0.5818,-19.2623,-0.2617,-0.4383,-0.1182,51
9.984,192,9.2843,-0.5081,-10.0163,0.1691,-0.5684,-0.0399,87,9.798,189,0.0945,0.1398,-19.4484,-0.3555,-0.3306,0.3234,51
10.036,193,9.2516,-1.0985,-11.2374,-0.1344,-0.3565,-0.0111,87,9.85,190,-0.8988,0.709,-20.0074,-0.0576,-0.1496,0.5218,51
10.088,194,10.5994,-1.9901,-10.9441,-0.5243,-0.3473,-0.2339,87,9.902,191,-1.0049,0.8566,-20.2159,0.2833,0.0498,0.4056,51
10.139,195,11.0743,-2.552,-10.0432,-1.0575,-0.2789,-0.2228,87,9.954,192,-0.4961,1.7011,-19.3905,0.1082,-0.0206,0.0055,51
10.191,196,8.0098,-3.9642,-11.5949,-1.4471,-0.4826,0.0721,87,10.005,193,-0.5803,1.3708,-18.2536,0.1362,-0.2633,-0.4102,51
10.243,197,6.4397,-5.4505,-12.2395,-0.3796,0.3261,0.3716,87,10.057,194,-0.534,3.0958,-16.4664,0.5468,-0.6498,-0.5675,51
10.295,198,3.086,0.289,-12.421,-0.7032,-0.216,0.6645,87,10.109,195,1.0797,1.7293,-17.1958,0.5226,-0.3054,-0.2823,51
10.347,199,5.0298,-0.6399,-13.0711,-0.5304,-0.4314,0.6513,87,10.161,196,0.2114,3.0889,-19.5264,1.0201,0.4591,-0.1587,51
10.398,200,6.6912,-0.6265,-13.4898,-0.6217,-0.0287,0.182,87,10.213,197,-0.7206,2.5962,-20.3927,0.3761,0.7507,-0.1628,51
10.45,201,8.3842,-0.5562,-12.7661,-0.8733,0.4654,0.0119,87,10.264,198,-0.8461,2.8899,-20.6658,0.3679,0.6466,-0.5088,51
10.502,202,6.7006,-1.1861,-13.2921,-0.9755,0.5765,-0.0057,87,10.316,199,-0.7525,2.2138,-19.5139,0.2166,0.2397,-0.8826,51
10.554,203,5.5503,1.1782,-12.5057,-0.7283,0.433,0.0368,87,10.368,200,-0.5795,1.7999,-18.0554,0.2926,-0.2394,-0.973,51
10.606,204,8.9979,-3.5295,-8.4255,0.0026,0.4012,0.2133,87,10.42,201,1.8014,1.4164,-17.9378,-0.4105,-0.262,-0.47,51
10.657,205,9.1063,-3.2133,-11.5085,-0.0721,-0.1486,0.4017,87,10.471,202,2.2236,2.2936,-18.4651,0.1009,0.3656,-0.3669,51
10.709,206,9.4739,-2.1829,-11.1898,-0.2414,0.0615,0.2314,87,10.523,203,2.3517,-0.545,-17.6311,0.3245,0.9518,-0.0644,51
10.761,207,9.4569,-1.4483,-11.0898,-0.2007,0.2797,0.1829,87,10.575,204,2.4204,-0.1147,-18.7891,0.5485,1.3796,0.1299,51
10.813,208,9.0026,-2.1281,-10.8924,-0.0453,0.4256,0.0823,87,10.627,205,2.3421,0.727,-19.0822,0.5143,1.3901,0.3266,51
10.865,209,9.1399,-2.1543,-11.1434,0.4339,0.4303,-0.0473,87,10.679,206,3.0895,2.0607,-19.4843,0.2229,1.236,0.5297,51
10.916,210,9.4052,-1.9305,-11.224,0.9306,0.4088,0.0918,87,10.73,207,4.2177,2.4968,-19.4425,-0.5132,0.6854,0.9002,51
10.968,211,9.0858,-1.6158,-9.7395,1.3558,0.1612,0.0869,87,10.782,208,5.4338,1.4934,-19.4392,-0.4085,0.3154,0.6152,51
11.02,212,8.7986,-3.7601,-9.8551,0.4222,-0.0758,0.131,87,10.834,209,6.6598,-1.5996,-19.6124,-0.1417,0.0534,0.4621,51
11.072,213,9.2052,-3.6976,-10.0266,0.042,-0.542,0.2185,87,10.886,210,5.676,-1.8371,-19.7306,-0.295,-0.1721,1.0176,51
11.123,214,9.4525,-2.3461,-10.2781,-0.1001,-0.7228,0.1627,87,10.938,211,4.2085,0.6358,-19.9367,-0.4359,-0.238,1.4231,51
11.175,215,9.9102,-1.1788,-11.728,-0.2995,-0.3819,0.2223,87,10.989,212,3.0831,2.7136,-19.3713,-0.3807,0.024,1.6695,51
11.227,216,10.292,-3.3098,-12.2405,-0.8938,0.3274,-0.042,87,11.041,213,2.9955,3.282,-19.5141,-0.4351,0.0802,1.3036,51
11.279,217,8.6241,-3.1006,-12.4581,-1.3276,0.8069,0.2488,87,11.093,214,3.1219,1.4525,-17.7717,-0.5968,-0.2314,0.7414,51
11.331,218,6.8562,-1.6687,-12.2913,-0.8048,0.2773,0.205,87,11.145,215,3.4401,0.6833,-16.2554,-0.5029,-0.4992,0.3704,51
11.382,219,8.8073,-3.54,-14.326,-1.2576,-0.035,0.4574,87,11.196,216,3.3208,0.5195,-16.1498,-0.5783,-0.1525,0.7569,51
11.434,220,8.1713,-3.3263,-15.5093,-0.7569,-0.6401,0.4865,87,11.248,217,3.9295,1.4638,-17.5113,-0.1679,0.3814,0.8718,51
11.486,221,9.0216,-2.5034,-14.9274,-0.7007,-0.197,0.2376,87,11.3,218,4.822,2.1008,-19.3935,-0.2287,0.5953,0.6175,51
