right_leg_timestamp,right_leg_index,right_leg_accel_x,right_leg_accel_y,right_leg_accel_z,right_leg_gyro_x,right_leg_gyro_y,right_leg_gyro_z,right_leg_battery_percentage,left_leg_timestamp,left_leg_index,left_leg_accel_x,left_leg_accel_y,left_leg_accel_z,left_leg_gyro_x,left_leg_gyro_y,left_leg_gyro_z,left_leg_battery_percentage
0.094,1,9.7401,-0.2686,-9.4686,0.1513,-0.0151,0.0588,90,0.102,1,8.8776,0.9822,-9.1313,0.031,-0.0525,0.0976,51
0.146,2,9.7224,-0.2699,-9.5772,0.1294,-0.0485,0.0708,90,0.153,2,8.8786,0.9631,-9.1397,0.058,-0.0871,0.1168,51
0.198,3,9.7196,-0.2913,-9.6355,0.1008,-0.0357,0.0716,90,0.205,3,8.8931,0.9611,-9.1304,0.0825,-0.1422,0.1447,51
0.249,4,9.7083,-0.2935,-9.6556,0.0945,-0.0046,0.0795,90,0.257,4,8.8867,0.8307,-9.0861,0.1164,-0.2985,0.1993,51
0.301,5,9.7127,-0.2969,-9.6426,0.0855,0.0152,0.0865,90,0.308,5,8.9457,0.7125,-9.2181,0.1977,-0.562,0.2302,51
0.353,6,9.707,-0.3445,-9.661,0.073,0.0048,0.0907,90,0.36,6,8.7505,1.0127,-9.8497,0.212,-0.6386,0.2623,51
0.405,7,9.6998,-0.348,-9.649,0.0644,0.0119,0.0948,90,0.412,7,8.6975,0.827,-10.4536,0.014,-0.3891,0.2721,51
0.457,8,9.7131,-0.2825,-9.6719,0.0473,0.043,0.1016,90,0.464,8,9.0857,-0.1018,-10.5408,-0.0803,-0.1327,0.2047,51
0.509,9,9.7613,-0.0799,-9.7324,-0.0636,0.1267,0.1208,90,0.516,9,9.0247,0.038,-10.4688,-0.0701,-0.0534,0.1194,51
0.56,10,9.7409,-0.307,-9.6031,-0.1699,0.161,0.1271,90,0.567,10,8.9545,0.1204,-10.4706,-0.0551,-0.0449,0.0955,51
0.612,11,9.6234,-0.6065,-9.3687,-0.1696,0.1709,0.1181,90,0.619,11,8.9699,0.1459,-10.4379,-0.029,-0.0489,0.0762,51
0.664,12,9.5739,-0.6288,-9.2501,-0.164,0.0968,0.1029,90,0.671,12,8.9916,0.1424,-10.5027,-0.0168,-0.0654,0.0625,51
0.716,13,9.6738,-0.6043,-9.2653,-0.1577,0.0739,0.1111,90,0.723,13,8.9835,0.1491,-10.5408,-0.0204,-0.0291,0.0444,51
0.767,14,9.6452,-0.7802,-9.2223,-0.1318,0.0651,0.1012,90,0.774,14,8.9766,0.1927,-10.5132,-0.0354,0.0123,0.0237,51
0.819,15,9.6097,-0.8632,-9.2026,-0.1202,0.0441,0.0777,90,0.826,15,8.973,0.2501,-10.4657,-0.0445,0.0296,0.0162,51
0.871,16,9.5997,-0.9171,-9.2444,-0.077,0.0418,0.0541,90,0.878,16,8.9828,0.1904,-10.4539,-0.0524,0.0354,0.0104,51
0.923,17,9.6024,-0.9248,-9.1936,-0.0584,0.0602,0.0361,90,0.93,17,8.995,0.2186,-10.4034,-0.0485,0.0343,-0.0019,51
0.975,18,9.5934,-0.9464,-9.1524,-0.0475,0.0609,0.0203,90,0.982,18,9.0278,0.1249,-10.447,-0.0532,0.0438,-0.0181,51
1.026,19,9.618,-0.961,-9.1045,-0.0304,0.0482,0.0059,90,1.033,19,9.0364,0.2244,-10.3846,-0.0479,0.0701,-0.0268,51
1.078,20,9.6082,-0.931,-9.0465,-0.0134,0.0294,-0.0019,90,1.085,20,9.0776,0.1702,-10.3203,-0.0123,0.05,-0.0196,51
1.13,21,9.5897,-0.9207,-9.0779,-0.0107,-0.0044,-0.008,90,1.137,21,9.1076,0.1456,-10.1637,0.0906,-0.0494,-0.0409,51
1.182,22,9.6132,-0.9009,-9.1208,-0.0023,-0.013,-0.0111,90,1.189,22,10.0217,0.2438,-12.3038,0.2167,-0.3785,0.16,51
1.233,23,9.6494,-0.844,-9.1425,0.0078,-0.0119,-0.0133,90,1.24,23,11.6077,-0.0613,-15.6856,0.6071,-0.943,0.4845,51
1.285,24,9.699,-0.7612,-9.214,0.0305,-0.0241,-0.017,90,1.292,24,12.0666,-0.2554,-16.2987,0.7189,-1.3551,0.9137,51
1.337,25,9.6309,-0.8339,-9.1561,0.0316,0.0046,-0.0075,90,1.344,25,10.8419,-0.8526,-15.521,0.2532,-1.6558,1.1394,51
1.389,26,9.3332,-1.2573,-8.9391,0.0545,-0.0142,0.0019,90,1.396,26,9.5922,-1.0097,-14.9324,0.2844,-1.8752,1.1194,51
1.441,27,9.4829,-1.0197,-9.1325,0.0592,0.0155,0.0398,90,1.448,27,8.5126,-1.2124,-14.5041,0.4208,-2.0354,0.952,51
1.492,28,9.5239,-1.0257,-9.1914,0.11,0.024,0.0474,90,1.499,28,6.9176,-1.223,-14.433,0.5076,-1.8776,0.6382,51
1.544,29,9.5676,-0.9195,-9.1015,0.1179,0.02,0.0572,90,1.551,29,5.4122,-1.4469,-14.8951,0.5716,-1.5161,0.2625,51
1.596,30,9.521,-0.9904,-9.0338,0.1312,-0.0117,0.0646,90,1.603,30,4.2509,-1.9035,-15.6806,0.4791,-1.1725,-0.0495,51
1.648,31,9.5952,-0.8637,-9.074,0.0798,-0.043,0.0813,90,1.655,31,3.3418,-2.2791,-16.2193,0.3269,-0.8651,-0.2405,51
1.7,32,9.5903,-0.9879,-9.1247,0.0494,-0.0594,0.0868,90,1.707,32,2.6579,-2.6879,-16.6714,0.1897,-0.6312,-0.3173,51
1.751,33,9.6907,-0.9589,-9.0502,0.0164,0.0049,0.08,90,1.758,33,2.1706,-2.8382,-17.3104,0.0679,-0.4137,-0.2983,51
1.803,34,9.7812,-0.7457,-9.1655,-0.0917,0.0845,0.0753,90,1.81,34,1.5668,-2.8691,-17.772,0.0303,-0.249,-0.2376,51
1.855,35,9.7221,-0.8861,-9.1075,-0.2354,0.0625,0.0554,90,1.862,35,1.3007,-2.7957,-18.3377,-0.0262,-0.1428,-0.1654,51
1.907,36,9.5351,-1.1973,-8.9715,-0.2651,0.0475,0.0243,90,1.914,36,1.1988,-2.8342,-18.5793,-0.1271,-0.0827,-0.073,51
1.959,37,9.553,-1.3762,-9.0415,-0.2443,0.0458,0.0177,90,1.966,37,1.1942,-2.8031,-18.7431,-0.1641,-0.0805,-0.0339,51
2.01,38,8.8424,-2.4692,-9.4303,-0.2429,-0.0566,-0.1099,90,2.017,38,1.2019,-2.7443,-18.9714,-0.1802,-0.0579,-0.0265,51
2.062,39,9.0681,-1.8318,-9.4704,-0.1952,0.0473,-0.087,90,2.069,39,1.2742,-2.723,-19.1199,-0.1553,-0.0619,-0.0471,51
2.114,40,9.1359,-1.7389,-9.2583,-0.1646,0.046,-0.0764,90,2.121,40,1.5007,-2.6618,-19.1929,-0.0779,-0.0881,-0.0893,51
2.166,41,9.0134,-1.8124,-9.1207,-0.0195,0.0036,-0.0349,90,2.173,41,1.673,-2.6955,-19.1363,-0.0306,-0.1109,-0.1322,51
2.218,42,9.0262,-1.8442,-9.0713,0.0335,0.0218,-0.0109,90,2.225,42,1.8137,-2.7231,-19.0733,0.0098,-0.1066,-0.1683,51
2.269,43,9.2397,-1.5014,-9.0345,0.19,-0.0184,0.0038,90,2.276,43,1.7735,-2.683,-19.0133,-0.0086,-0.0704,-0.1721,51
2.321,44,9.3887,-1.1895,-9.0587,0.201,-0.019,0.0139,90,2.328,44,1.6371,-2.7246,-18.8622,0.0021,-0.0456,-0.1631,51
2.373,45,9.4214,-1.1399,-9.0819,0.1298,0.0052,0.034,90,2.38,45,1.4078,-2.6252,-18.8553,0.0326,-0.0107,-0.1458,51
2.425,46,9.5062,-1.0459,-9.0574,0.0776,0.0202,0.0264,90,2.432,46,1.3365,-2.4741,-19.0989,0.0093,0.0335,-0.1014,51
2.476,47,9.5385,-1.1025,-9.0685,0.0073,-0.0042,0.0219,90,2.484,47,1.3883,-2.4787,-19.2374,-0.0329,0.0317,-0.0785,51
2.528,48,9.5179,-1.1758,-9.1087,-0.0394,-0.0046,-0.0085,90,2.535,48,1.4935,-2.48,-19.3039,-0.0478,0.0093,-0.0812,51
2.58,49,9.1752,-1.0906,-9.1214,0.0998,-0.0375,-0.0123,90,2.587,49,1.4908,-2.5643,-19.2003,-0.0741,-0.0034,-0.0913,51
2.632,50,9.291,-1.1697,-9.0233,0.0911,-0.0453,0.0037,90,2.639,50,1.4044,-2.6137,-19.1265,-0.0406,-0.0033,-0.106,51
2.684,51,9.4244,-1.0415,-9.0615,0.0745,-0.0598,0.0069,90,2.691,51,1.3433,-2.5379,-19.1224,-0.0035,0.001,-0.1044,51
2.735,52,9.4527,-0.9695,-9.167,0.014,-0.0424,0.0138,90,2.743,52,1.3679,-2.4143,-19.1943,-0.0128,0.0117,-0.0707,51
2.787,53,9.4785,-1.0613,-9.227,-0.0228,-0.0444,0.0195,90,2.794,53,1.4154,-2.3912,-19.2231,-0.0449,0.019,-0.0373,51
2.839,54,9.4926,-1.1018,-9.2842,0.0035,-0.0544,0.0039,90,2.846,54,1.4955,-2.4048,-19.2083,-0.0285,0.0045,-0.0394,51
2.891,55,9.5768,-1.0376,-9.2555,0.094,-0.0585,-0.0156,90,2.898,55,1.5218,-2.343,-19.1226,-0.0196,-0.007,-0.0544,51
2.943,56,9.6183,-0.9484,-9.3347,0.1683,-0.0475,-0.0173,90,2.95,56,1.6253,-2.4051,-19.1128,-0.0365,0.0012,-0.0631,51
2.994,57,9.676,-0.9286,-9.3186,0.1891,-0.0372,-0.0079,90,3.002,57,1.7935,-2.506,-19.1352,-0.0294,0.0123,-0.0893,51
3.046,58,9.6928,-0.8228,-9.3783,0.1485,-0.0192,0.0044,90,3.054,58,1.807,-2.547,-19.0628,-0.0004,0.0149,-0.0994,51
3.098,59,9.5639,-0.8836,-9.1933,0.0091,0.0593,0.05,90,3.105,59,1.6168,-2.4641,-19.0155,0.0374,0.0273,-0.097,51
3.15,60,9.5326,-0.9305,-9.2074,-0.008,0.0535,0.0428,90,3.157,60,1.4804,-2.3027,-19.0818,0.0468,0.0552,-0.0772,51
3.202,61,9.5591,-1.0167,-9.2256,-0.0463,0.0245,0.0314,90,3.209,61,1.4944,-2.2301,-19.1918,0.0202,0.0598,-0.053,51
3.253,62,9.5476,-1.0881,-9.2346,-0.0573,0.0171,0.0081,90,3.261,62,1.6149,-2.181,-19.2395,-0.026,0.0296,-0.0342,51
3.305,63,9.3273,-1.3837,-9.1457,-0.0095,0.0082,-0.006,90,3.312,63,1.6713,-2.2737,-19.2041,-0.0741,0.0011,-0.0393,51
3.357,64,9.5618,-1.0334,-9.2196,0.0585,0.0043,-0.0197,90,3.364,64,1.7224,-2.4752,-19.1747,-0.0594,-0.0177,-0.0638,51
3.409,65,9.6392,-0.9453,-9.1253,0.0557,-0.0216,-0.0129,90,3.416,65,1.688,-2.5255,-19.1435,0.0008,-0.0276,-0.0692,51
3.461,66,9.6684,-0.9519,-9.1068,0.0014,-0.0016,0.0078,90,3.468,66,1.6684,-2.3852,-19.1631,0.0398,-0.0211,-0.0464,51
3.512,67,9.5947,-1.0479,-9.1799,-0.0204,-0.0028,0.0115,90,3.52,67,1.6134,-2.2685,-19.2159,0.0174,-0.0187,0.0049,51
3.564,68,9.6251,-1.0473,-9.2569,-0.0122,0.0168,-0.005,90,3.571,68,1.5597,-2.2165,-19.2252,-0.0138,-0.0242,0.051,51
3.616,69,9.5515,-1.0637,-9.1588,0.0258,0.0186,-0.0271,90,3.623,69,1.4982,-2.2122,-19.2393,-0.0338,-0.0421,0.0712,51
3.667,70,9.5881,-0.9874,-9.1161,0.0739,-0.0112,-0.0379,90,3.675,70,1.5205,-2.2584,-19.2282,-0.0289,-0.0605,0.0658,51
3.719,71,9.6392,-0.9898,-9.1437,0.1055,-0.031,-0.0295,90,3.727,71,1.5876,-2.2908,-19.1797,0.0102,-0.0728,0.0309,51
3.771,72,9.6789,-0.9261,-9.1613,0.1337,-0.0422,-0.0255,90,3.778,72,1.7498,-2.2546,-19.0906,0.0614,-0.0752,-0.0182,51
3.823,73,9.6825,-0.8746,-9.2371,0.1388,-0.0253,-0.0139,90,3.83,73,1.9002,-2.2275,-19.0059,0.0306,-0.048,-0.034,51
3.875,74,9.6475,-0.8437,-9.2504,0.1211,0.0066,0.0021,90,3.882,74,1.9236,-2.3736,-18.9429,-0.0148,0.008,-0.0353,51
3.927,75,9.6087,-0.8302,-9.1922,0.0929,0.0157,0.0108,90,3.934,75,1.8501,-2.5753,-18.9501,-0.0134,0.0675,-0.019,51
3.978,76,9.5741,-0.489,-9.3774,-0.0578,0.0102,0.0317,90,3.986,76,1.5767,-2.6594,-18.9843,0.0331,0.1152,0.023,51
4.03,77,9.6285,-0.9931,-9.2211,-0.1751,0.031,0.0672,90,4.037,77,1.4361,-2.5652,-19.0961,0.0704,0.1419,0.0788,51
4.082,78,9.6719,-1.116,-9.1659,-0.1672,0.0057,0.0577,90,4.089,78,1.4236,-2.5238,-19.2169,0.0288,0.1282,0.1524,51
4.134,79,9.6827,-1.1331,-9.2251,-0.1318,-0.0027,0.0335,90,4.141,79,1.4981,-2.5093,-19.2554,0.011,0.1013,0.2059,51
4.185,80,9.6325,-1.0398,-9.1278,-0.0851,-0.0163,0.0187,90,4.193,80,1.5857,-2.4862,-19.2251,0.0033,0.0702,0.2187,51
4.237,81,9.6058,-0.9983,-9.1309,-0.0664,-0.0348,0.0245,90,4.244,81,1.6554,-2.4074,-19.1425,0.017,0.0416,0.1951,51
4.289,82,9.5829,-1.0739,-9.172,-0.0516,-0.0387,0.0306,90,4.296,82,1.7207,-2.3773,-19.0795,0.0011,0.0299,0.1611,51
4.341,83,9.5805,-1.0942,-9.1693,-0.0179,-0.0435,0.0246,90,4.348,83,1.784,-2.4158,-19.0588,-0.0022,0.032,0.1135,51
4.393,84,9.5876,-1.0586,-9.2566,-0.0004,-0.0525,0.0232,90,4.4,84,1.7685,-2.4733,-19.0412,0.0401,0.0238,0.0366,51
4.444,85,9.6159,-1.0369,-9.3373,-0.0023,-0.0449,0.0273,90,4.452,85,1.7012,-2.4719,-19.0737,0.0881,-0.0023,-0.0499,51
4.496,86,9.6107,-1.0943,-9.2857,-0.0221,-0.0042,0.0259,90,4.504,86,1.7377,-2.4939,-19.1652,0.1239,-0.0346,-0.1248,51
4.548,87,9.634,-1.0934,-9.254,-0.002,0.0034,0.0109,90,4.555,87,1.8134,-2.646,-19.1317,0.0991,-0.0536,-0.1566,51
4.6,88,9.6388,-1.0463,-9.2545,0.02,0.0087,0.0044,90,4.607,88,1.8566,-2.7984,-19.0338,0.1037,-0.0589,-0.1728,51
4.652,89,9.6398,-1.0212,-9.2503,0.009,0.0132,0.0202,90,4.659,89,1.829,-2.8808,-18.9258,0.1061,-0.0488,-0.1679,51
4.703,90,9.5982,-0.968,-9.2004,-0.0354,0.0248,0.0568,90,4.711,90,1.7637,-2.8885,-18.9005,0.0951,-0.0301,-0.1286,51
4.755,91,9.571,-1.0878,-9.2092,-0.0523,-0.0118,0.0632,90,4.763,91,1.689,-2.8535,-18.907,0.0693,-0.0141,-0.068,51
4.807,92,9.6079,-1.1269,-9.2718,-0.0599,-0.049,0.0377,90,4.814,92,1.6229,-2.8317,-18.9307,0.0284,-0.0114,0.0049,51
4.859,93,9.6117,-1.1237,-9.3266,-0.0559,-0.0511,0.0225,90,4.866,93,1.577,-2.758,-18.997,-0.0037,-0.0059,0.06,51
4.911,94,9.6008,-1.2191,-9.3922,-0.0563,-0.0407,0.0214,90,4.918,94,1.6461,-2.7274,-19.0746,-0.0245,-0.0077,0.0908,51
4.962,95,9.5748,-1.3068,-9.3837,-0.039,-0.0009,0.0191,90,4.969,95,1.7367,-2.7506,-19.079,-0.0332,-0.0224,0.0953,51
5.014,96,9.5335,-1.3559,-9.286,-0.0339,0.0102,-0.0029,90,5.021,96,1.7854,-2.7968,-19.0189,-0.032,-0.0276,0.0825,51
5.066,97,9.5909,-1.11,-9.2993,0.0358,0.011,-0.0357,90,5.073,97,1.8123,-2.8888,-18.9789,-0.037,-0.0184,0.0645,51
5.118,98,9.5915,-1.1318,-9.2288,0.0399,-0.004,-0.0084,90,5.125,98,1.791,-2.9928,-18.9754,-0.0142,-0.008,0.0402,51
5.17,99,9.6371,-1.1654,-9.1949,0.0215,0.0023,0.0113,90,5.177,99,1.7218,-3.005,-18.965,0.0171,0.0002,0.0348,51
5.221,100,9.6165,-1.1234,-9.2209,0.0097,0.0027,0.0204,90,5.228,100,1.6367,-2.9841,-18.9098,0.0232,0.0077,0.0524,51
5.273,101,9.6617,-1.155,-9.1629,-0.0035,-0.0476,0.0269,90,5.28,101,1.571,-2.9222,-18.8696,0.024,0.0132,0.0816,51
5.325,102,9.6443,-1.1741,-9.3072,-0.0132,-0.0505,0.0185,90,5.332,102,1.5342,-2.845,-18.853,0.0135,0.0214,0.1029,51
5.377,103,9.6359,-1.1597,-9.3164,-0.0331,-0.0218,0.0121,90,5.384,103,1.5628,-2.7708,-18.9271,0.0063,0.0366,0.1089,51
5.428,104,9.6059,-1.2313,-9.3217,-0.0618,-0.0159,0.015,90,5.435,104,1.6464,-2.7282,-19.0362,-0.0099,0.045,0.099,51
5.48,105,9.6354,-1.3249,-9.4199,-0.0807,0.0124,0.0025,90,5.487,105,1.7342,-2.7041,-19.0918,-0.033,0.0309,0.0713,51
5.532,106,9.531,-1.4107,-9.2582,-0.0651,0.0385,-0.0112,90,5.539,106,1.7258,-2.652,-19.0453,-0.0568,0.0054,0.0255,51
5.584,107,9.6179,-1.2706,-9.3149,-0.0377,0.0263,-0.0118,90,5.591,107,1.665,-2.5236,-19.0199,-0.0726,-0.0104,-0.0453,51
5.636,108,9.6005,-1.1657,-9.3219,0.0032,-0.0015,0.0051,90,5.643,108,1.6099,-2.3892,-19.1029,-0.1042,-0.0161,-0.1315,51
5.687,109,9.5876,-1.2357,-9.3403,-0.0085,-0.0192,0.0205,90,5.694,109,1.6349,-2.3523,-19.2086,-0.1436,-0.0341,-0.2048,51
5.739,110,9.5721,-1.3061,-9.3589,-0.021,-0.0273,0.0142,90,5.746,110,1.6258,-2.4216,-19.2191,-0.1667,-0.0701,-0.2787,51
5.791,111,9.5445,-1.3464,-9.3539,-0.0155,-0.0367,0.007,90,5.798,111,1.5598,-2.4938,-19.1471,-0.1237,-0.0981,-0.3682,51
5.843,112,9.6311,-1.1586,-9.3804,0.0049,-0.045,0.0016,90,5.85,112,1.5582,-2.5608,-19.1131,-0.0641,-0.1146,-0.4402,51
5.894,113,9.6208,-1.2054,-9.3826,-0.0012,-0.0704,0.0165,90,5.902,113,1.5863,-2.603,-19.1375,-0.0081,-0.1219,-0.4744,51
5.946,114,9.6017,-1.2997,-9.5091,-0.0021,-0.0742,0.0152,90,5.953,114,1.6314,-2.6093,-19.1214,0.0215,-0.1184,-0.4529,51
5.998,115,9.6329,-1.249,-9.5373,-0.0021,-0.0313,0.0061,90,6.005,115,1.6215,-2.6404,-19.0453,0.0453,-0.1116,-0.3983,51
6.05,116,9.642,-1.2186,-9.5152,-0.0123,-0.013,0.0057,90,6.057,116,1.5667,-2.604,-19.0192,0.0771,-0.0953,-0.3186,51
6.102,117,9.6344,-1.2463,-9.5356,-0.0225,-0.0139,0.0039,90,6.109,117,1.5505,-2.3605,-19.0997,0.0763,-0.0619,-0.2216,51
6.154,118,9.6242,-1.2707,-9.5481,-0.0324,-0.0053,-0.0128,90,6.16,118,1.614,-2.236,-19.2153,0.016,-0.0431,-0.122,51
6.205,119,9.5725,-1.3994,-9.5161,-0.0309,0.0084,-0.0289,90,6.212,119,1.6771,-2.2837,-19.2409,-0.0374,-0.0551,-0.0449,51
6.257,120,9.5507,-1.3652,-9.5068,0.0298,0.0263,-0.0502,90,6.264,120,1.6708,-2.2717,-19.2074,-0.054,-0.0653,0.0021,51
6.309,121,9.7674,-0.9399,-9.5125,0.0693,0.0219,-0.056,90,6.316,121,1.6089,-2.2808,-19.1242,-0.0534,-0.062,0.0259,51
6.361,122,9.7201,-1.0436,-9.508,0.0573,0.0197,-0.0333,90,6.368,122,1.5368,-2.277,-19.0487,-0.0356,-0.0446,0.0386,51
6.412,123,9.6725,-1.1255,-9.4636,0.0477,0.03,-0.0273,90,6.419,123,1.4558,-2.2474,-19.0983,-0.0079,-0.0273,0.045,51
6.464,124,9.6258,-1.1459,-9.4325,0.0122,0.0364,-0.0239,90,6.471,124,1.4039,-2.0364,-19.2271,0.0271,-0.0035,0.0377,51
6.516,125,9.6166,-1.1787,-9.4216,-0.0034,0.0325,-0.0125,90,6.523,125,1.4398,-1.8567,-19.3078,0.0158,0.0026,0.0139,51
6.568,126,9.5997,-1.1964,-9.4057,-0.0001,0.0324,-0.0144,90,6.575,126,1.457,-1.8261,-19.3304,-0.0178,-0.0188,-0.0242,51
6.62,127,9.5071,-1.3427,-9.2999,0.0226,0.0211,-0.0096,90,6.626,127,1.4478,-1.9022,-19.2433,-0.0718,-0.0383,-0.0671,51
6.671,128,9.6804,-1.099,-9.3652,0.1109,-0.018,-0.0345,90,6.678,128,1.502,-2.1929,-19.1751,-0.1145,-0.0362,-0.1275,51
6.723,129,9.6987,-1.027,-9.2984,0.117,-0.0918,-0.0118,90,6.73,129,1.5196,-2.5727,-19.0361,-0.072,-0.034,-0.1446,51
6.775,130,9.6515,-0.91,-9.5717,0.0749,-0.0736,0.0148,90,6.782,130,1.3615,-2.5677,-19.0107,0.0368,-0.018,-0.0881,51
6.827,131,9.6564,-0.9382,-9.6022,-0.0021,-0.059,0.0522,90,6.834,131,1.2307,-2.1294,-19.0894,0.1339,0.0405,-0.0302,51
6.878,132,9.6228,-1.109,-9.6571,-0.0727,-0.086,0.0638,90,6.885,132,1.3272,-1.9233,-19.351,0.0325,0.0732,0.0366,51
6.93,133,9.5795,-1.3029,-9.7198,-0.0931,-0.0483,0.0459,90,6.937,133,1.4358,-1.9135,-19.4767,-0.0446,0.0371,0.0748,51
6.982,134,9.1504,-1.9653,-9.4356,-0.022,-0.0355,0.027,90,6.989,134,1.4697,-2.044,-19.3827,-0.0907,-0.0134,0.072,51
7.034,135,9.6327,-0.9883,-9.6339,0.0563,-0.0512,-0.0229,90,7.04,135,1.4549,-2.2311,-19.2283,-0.0741,-0.0267,0.0441,51
7.086,136,9.692,-1.0961,-9.7632,0.0572,-0.0896,-0.0069,90,7.092,136,1.452,-2.3779,-19.0352,-0.0361,-0.0266,0.0327,51
7.137,137,9.6874,-1.1169,-9.771,0.0336,-0.056,0.0033,90,7.144,137,1.3311,-2.3227,-19.0057,0.0255,0.007,0.0486,51
7.189,138,9.658,-1.1029,-9.7836,-0.0195,-0.0485,0.0207,90,7.196,138,1.268,-2.0355,-19.212,0.0298,0.0539,0.0702,51
7.241,139,9.65,-1.2244,-9.8616,-0.0468,-0.0231,0.0205,90,7.248,139,1.3052,-2.0086,-19.4502,-0.0124,0.0774,0.086,51
7.293,140,9.6006,-1.3495,-9.811,-0.0608,0.0051,0.0144,90,7.3,140,1.3139,-2.1039,-19.5282,-0.0052,0.0308,0.0741,51
7.345,141,9.3128,-1.7413,-9.6906,-0.0014,-0.0375,-0.0439,90,7.352,141,1.3156,-2.0416,-19.3088,0.035,-0.0386,0.0617,51
7.396,142,9.4892,-1.4173,-9.6416,0.0441,-0.0759,-0.0443,90,7.403,142,1.4247,-2.0994,-19.1063,0.0165,-0.051,0.0557,51
7.448,143,9.5953,-1.3028,-9.7963,0.0768,-0.0966,-0.0504,90,7.455,143,1.5912,-2.1774,-19.08,-0.0011,-0.0124,0.0486,51
7.5,144,9.6504,-1.1857,-9.8836,0.0777,-0.0586,-0.041,90,7.507,144,1.6661,-2.2901,-19.1291,-0.0101,0.0202,0.05,51
7.552,145,9.6785,-1.0628,-9.9428,0.0387,0.0524,0.013,90,7.558,145,1.5342,-2.2594,-19.1642,0.0121,0.0305,0.0585,51
7.604,146,9.6102,-1.1591,-9.8209,0.0175,0.0788,0.0348,90,7.61,146,1.374,-2.1266,-19.2026,0.0135,0.0403,0.0716,51
7.655,147,9.6314,-1.1814,-9.7895,-0.0088,0.0683,0.0372,90,7.662,147,1.295,-2.1118,-19.1983,-0.0005,0.0349,0.0663,51
7.707,148,9.5847,-1.3092,-9.7664,-0.0283,0.0623,0.0211,90,7.714,148,1.2188,-2.1749,-19.1105,0.037,0.0371,0.0352,51
7.759,149,9.4513,-1.5191,-9.6163,-0.0125,0.0815,-0.0101,90,7.766,149,1.2391,-2.2736,-19.1972,0.0728,0.0568,0.017,51
7.811,150,9.5809,-1.3123,-9.5785,-0.0043,0.0851,-0.0115,90,7.817,150,1.3316,-2.3598,-19.3188,0.0939,0.0401,0.0457,51
7.863,151,9.5294,-1.359,-9.5196,0.0271,0.0373,-0.0391,90,7.869,151,1.4973,-2.2694,-19.2833,0.1,0.007,0.0858,51
7.914,152,9.5918,-1.1815,-9.5157,0.0486,-0.0111,-0.0477,90,7.921,152,1.6691,-2.2477,-19.2066,0.0745,-0.0173,0.1115,51
7.966,153,9.6196,-1.1751,-9.5676,0.0583,-0.0639,-0.0478,90,7.973,153,1.7542,-2.195,-19.099,0.0307,0.0028,0.1128,51
8.018,154,9.6506,-1.1241,-9.6981,0.0915,-0.0458,-0.0494,90,8.024,154,1.7975,-2.2335,-19.1135,0.0034,0.0342,0.0927,51
8.07,155,9.6604,-0.948,-9.6786,0.0789,-0.0235,-0.0195,90,8.076,155,1.7404,-2.2837,-19.1619,-0.0034,0.046,0.0638,51
8.121,156,9.6661,-0.9886,-9.6966,0.0355,0.0067,0.0235,90,8.128,156,1.6269,-2.2465,-19.1731,-0.0112,0.0434,0.0407,51
8.173,157,9.6497,-1.0998,-9.6937,0.0082,0.0307,0.0474,90,8.18,157,1.5312,-2.2803,-19.1834,-0.0467,0.0351,0.0349,51
8.225,158,9.6472,-1.184,-9.687,-0.0032,0.0411,0.0307,90,8.232,158,1.5391,-2.4504,-19.078,-0.0538,0.0429,0.0303,51
8.277,159,9.6036,-1.2152,-9.6875,-0.0097,0.0412,0.0062,90,8.283,159,1.5884,-2.6225,-18.9826,-0.0015,0.0834,0.0201,51
8.329,160,9.6174,-1.1253,-9.6911,-0.0178,0.0524,0.0111,90,8.335,160,1.6544,-2.6588,-19.0355,0.0478,0.0992,0.0415,51
8.381,161,9.594,-1.1544,-9.6523,-0.0369,0.0525,0.0348,90,8.387,161,1.6353,-2.5868,-19.0587,0.041,0.0845,0.1019,51
8.432,162,9.6026,-1.1547,-9.6284,-0.0507,0.0423,0.0379,90,8.439,162,1.5653,-2.4818,-19.1198,0.028,0.0929,0.1471,51
8.484,163,9.6254,-1.2109,-9.6287,-0.0938,0.0351,0.0222,90,8.49,163,1.6206,-2.4043,-19.222,0.0025,0.0959,0.1655,51
8.536,164,9.6019,-1.2297,-9.6359,-0.1211,0.0174,0.0094,90,8.542,164,1.7054,-2.4544,-19.2289,-0.0168,0.0691,0.1533,51
8.588,165,9.5641,-1.698,-9.3945,-0.1057,0.0031,0.0076,90,8.594,165,1.7555,-2.557,-19.1516,-0.0043,0.0368,0.1081,51
8.64,166,9.7999,-1.1715,-9.4824,-0.0284,-0.0017,-0.0179,90,8.646,166,1.7754,-2.6363,-19.1089,0.0051,0.0179,0.066,51
8.691,167,9.7827,-1.1462,-9.4721,-0.0101,-0.0239,0.0141,90,8.698,167,1.7724,-2.6659,-19.0241,0.0063,0.0178,0.0425,51
8.743,168,9.7468,-1.2043,-9.5523,-0.0206,-0.0153,0.0192,90,8.749,168,1.7189,-2.6766,-18.9349,0.0031,0.0236,0.0376,51
8.795,169,9.6768,-1.2147,-9.5237,-0.047,0.0091,0.0199,90,8.801,169,1.6362,-2.6334,-18.916,0.0061,0.0349,0.04,51
8.846,170,9.6491,-1.2175,-9.5449,-0.0501,-0.0015,0.0255,90,8.853,170,1.5661,-2.5541,-19.0035,0.0041,0.0544,0.0406,51
8.898,171,9.6558,-1.2523,-9.5759,-0.0662,-0.0071,0.0263,90,8.905,171,1.61,-2.5022,-19.1299,-0.0125,0.0496,0.0421,51
8.95,172,9.6102,-1.3564,-9.5406,-0.0683,0.0008,0.0102,90,8.957,172,1.6645,-2.4654,-19.1682,-0.0448,0.0139,0.0466,51
9.002,173,9.5547,-1.3684,-9.5393,-0.0361,0.004,-0.0111,90,9.008,173,1.656,-2.4564,-19.0887,-0.0518,-0.0251,0.0304,51
9.054,174,9.5716,-1.29,-9.5574,0.0046,0.011,-0.0205,90,9.06,174,1.6733,-2.3913,-18.9838,-0.0299,-0.0429,-0.0191,51
9.106,175,9.6311,-1.1443,-9.621,0.0096,0.0265,-0.0159,90,9.112,175,1.6938,-2.3004,-18.9797,-0.0005,-0.037,-0.0879,51
9.158,176,9.5941,-1.2234,-9.5566,-0.0048,0.0229,-0.018,90,9.164,176,1.7783,-2.2248,-19.0991,0.0139,-0.0235,-0.1582,51
9.209,177,9.5508,-1.2966,-9.4876,-0.0054,0.0072,-0.023,90,9.216,177,1.8494,-2.2754,-19.2199,-0.0011,-0.0344,-0.2158,51
9.261,178,9.5223,-1.3806,-9.4786,0.0151,0.0209,-0.0281,90,9.267,178,1.9087,-2.3486,-19.1932,-0.0069,-0.0722,-0.2486,51
9.313,179,9.542,-1.1863,-9.4481,0.076,0.0111,-0.0403,90,9.319,179,2.0071,-2.4769,-19.0546,-0.0196,-0.0919,-0.2452,51
9.365,180,9.581,-1.1853,-9.4734,0.1335,-0.0154,-0.0239,90,9.371,180,2.0161,-2.6346,-18.945,-0.0323,-0.0579,-0.189,51
9.417,181,9.6395,-1.1641,-9.5261,0.118,-0.0178,-0.0115,90,9.423,181,1.9523,-2.7153,-18.9158,-0.0348,-0.0063,-0.0989,51
9.468,182,9.6404,-1.152,-9.4816,0.0739,0.0137,0.0053,90,9.474,182,1.8778,-2.6913,-18.9596,-0.031,0.0336,0.0104,51
9.52,183,9.635,-1.1254,-9.3975,0.0652,0.0068,0.0098,90,9.526,183,1.8259,-2.478,-19.0277,-0.0337,0.0588,0.1117,51
9.572,184,9.6492,-1.1502,-9.497,0.044,-0.0154,0.0175,90,9.578,184,1.84,-2.3313,-19.1007,-0.0718,0.0695,0.1801,51
9.624,185,9.6529,-1.176,-9.5206,0.0349,0.0192,0.018,90,9.63,185,1.8647,-2.294,-19.1319,-0.0974,0.0637,0.2006,51
9.676,186,9.5671,-1.3033,-9.3731,0.0249,0.0237,0.0124,90,9.681,186,1.8216,-2.3026,-19.0953,-0.0813,0.0513,0.1772,51
9.727,187,9.6135,-1.186,-9.3759,0.0064,0.0054,0.0204,90,9.733,187,1.7652,-2.2967,-19.0669,-0.052,0.043,0.1432,51
9.779,188,9.6194,-1.1884,-9.4516,-0.012,-0.0223,0.0314,90,9.785,188,1.7252,-2.2422,-19.0592,-0.0356,0.0339,0.1152,51
9.831,189,9.6234,-1.207,-9.4724,-0.034,-0.0306,0.0263,90,9.837,189,1.729,-2.2041,-19.0486,-0.0405,0.0313,0.0873,51
9.882,190,9.622,-1.2497,-9.5386,-0.0503,-0.0242,0.0215,90,9.888,190,1.7381,-2.1962,-19.0901,-0.021,0.0304,0.0462,51
9.934,191,9.5683,-1.3228,-9.5001,-0.0543,-0.0036,0.0117,90,9.94,191,1.7768,-2.1451,-19.161,0.0107,0.0226,0.0055,51
9.986,192,9.5974,-1.2459,-9.4955,-0.0434,-0.0206,-0.0021,90,9.992,192,1.815,-2.0741,-19.1978,0.019,-0.0036,-0.0221,51
10.038,193,9.5731,-1.3091,-9.5687,-0.019,-0.0419,-0.0042,90,10.044,193,1.7963,-2.0649,-19.1696,0.0064,-0.0253,-0.039,51
10.09,194,9.5534,-1.3479,-9.5798,0.0021,-0.047,-0.0184,90,10.096,194,1.8041,-2.1389,-19.1479,-0.0369,-0.0294,-0.0494,51
10.141,195,9.6758,-1.1151,-9.592,0.0445,-0.0669,-0.0357,90,10.147,195,1.855,-2.3034,-19.1665,-0.0488,-0.0222,-0.0566,51
10.193,196,9.6636,-1.1404,-9.5708,0.0444,-0.0766,-0.0171,90,10.199,196,1.8489,-2.4215,-19.1259,-0.044,-0.0232,-0.0544,51
10.245,197,9.6463,-1.1244,-9.6728,0.0244,-0.0513,0.0091,90,10.251,197,1.7848,-2.456,-19.0578,-0.0383,-0.0257,-0.0382,51
10.297,198,9.6539,-1.1435,-9.7025,0.0118,-0.0274,0.0265,90,10.303,198,1.6915,-2.3596,-19.0414,-0.0056,-0.0222,-0.0112,51
10.349,199,9.6423,-1.1949,-9.7323,-0.0035,-0.0048,0.0316,90,10.355,199,1.7022,-2.1784,-19.0813,0.0169,-0.0114,0.01,51
10.4,200,9.6188,-1.2512,-9.7307,-0.0191,0.0132,0.028,90,10.407,200,1.7756,-2.0793,-19.2241,0.0267,-0.0024,0.0269,51
10.453,201,9.564,-1.3577,-9.7087,-0.0201,0.0296,0.0162,90,10.459,201,1.7621,-2.0476,-19.2633,-0.0053,-0.0314,0.0495,51
10.504,202,9.4577,-1.4781,-9.5909,0.0019,0.0129,-0.0146,90,10.51,202,1.7438,-2.09,-19.188,-0.0394,-0.0557,0.0644,51
10.556,203,9.5508,-1.3179,-9.5989,0.0412,-0.0434,-0.0323,90,10.562,203,1.7882,-2.2208,-19.0931,-0.0577,-0.0513,0.0656,51
10.608,204,9.5566,-1.1735,-9.72,0.0858,-0.0565,-0.0316,90,10.614,204,1.8342,-2.3349,-19.0439,-0.0417,-0.0157,0.0634,51
10.66,205,9.5945,-1.1447,-9.6587,0.0793,-0.0128,-0.0156,90,10.666,205,1.8034,-2.3652,-19.0277,-0.0277,0.012,0.074,51
10.712,206,9.5723,-1.0885,-9.6657,0.0576,0.022,0.0094,90,10.718,206,1.7085,-2.3153,-19.0308,-0.0139,0.0356,0.0961,51
10.763,207,9.5997,-1.1198,-9.6597,0.0303,0.0215,0.0298,90,10.769,207,1.6247,-2.1868,-19.1359,-0.0199,0.0594,0.1178,51
10.815,208,9.6205,-1.2012,-9.6877,0.0111,0.0508,0.0292,90,10.821,208,1.6423,-2.1356,-19.2626,-0.0401,0.0547,0.1359,51
10.867,209,9.582,-1.2584,-9.6185,-0.0103,0.0703,0.0202,90,10.873,209,1.6853,-2.098,-19.2682,-0.0486,0.0172,0.1315,51
10.918,210,9.5338,-1.3301,-9.5427,-0.0067,0.0646,0.0055,90,10.925,210,1.6978,-2.0594,-19.2033,-0.0348,-0.0064,0.0941,51
10.97,211,9.6629,-1.1626,-9.5985,-0.0013,0.0702,-0.0077,90,10.976,211,1.706,-2.0476,-19.205,-0.0206,-0.0153,0.0527,51
11.022,212,9.6175,-1.2164,-9.5689,-0.0009,0.0655,-0.0103,90,11.028,212,1.7119,-2.0586,-19.1926,-0.0215,-0.0282,0.0193,51
11.074,213,9.6177,-1.2271,-9.4639,-0.0064,0.0519,-0.0152,90,11.08,213,1.6943,-2.0881,-19.1516,-0.0192,-0.0294,-0.0047,51
11.126,214,9.6155,-1.2239,-9.4542,-0.007,0.0394,-0.0104,90,11.132,214,1.701,-2.1289,-19.1175,-0.0186,-0.0188,-0.0166,51
11.177,215,9.6101,-1.199,-9.4515,-0.0052,0.0369,-0.0096,90,11.184,215,1.8216,-2.2043,-19.0604,-0.0139,-0.0035,-0.0164,51
