right_leg_timestamp,right_leg_index,right_leg_accel_x,right_leg_accel_y,right_leg_accel_z,right_leg_gyro_x,right_leg_gyro_y,right_leg_gyro_z,right_leg_battery_percentage,left_leg_timestamp,left_leg_index,left_leg_accel_x,left_leg_accel_y,left_leg_accel_z,left_leg_gyro_x,left_leg_gyro_y,left_leg_gyro_z,left_leg_battery_percentage
0.089,1,12.9202,-1.7037,-11.7247,-0.9224,-0.85,0.4654,66,0.783,15,8.7236,1.9973,-10.2253,0.3631,0.0724,-0.0229,39
0.141,2,11.653,-2.3418,-13.0078,-0.8164,-0.7027,0.5661,66,0.835,16,8.6043,2.1745,-10.234,0.3212,0.0101,0.0376,39
0.193,3,10.4765,-1.5367,-13.1878,-0.1916,-0.5669,0.5194,66,0.887,17,8.2953,2.4957,-10.1957,-0.0031,-0.0941,0.0647,39
0.244,4,8.9125,-1.1108,-13.4358,-0.0963,-0.3761,0.4388,66,0.939,18,8.3439,2.2953,-10.3161,0.0334,-0.0969,0.0757,39
0.296,5,7.4621,-0.8418,-13.361,0.0021,-0.15,0.3131,66,0.99,19,8.5592,1.9676,-10.4634,0.0543,-0.0794,0.0472,39
0.348,6,6.4146,-0.7053,-13.2305,0.0979,0.0448,0.1659,66,1.042,20,8.5642,1.9881,-10.481,-0.0206,-0.0429,0.0132,39
0.4,7,5.8778,-0.6243,-13.1653,0.0962,0.1548,0.0098,66,1.094,21,8.5807,1.9606,-10.513,0.1022,0.0064,-0.0129,39
0.452,8,5.8982,-0.682,-13.1861,-0.0135,0.2072,-0.0868,66,1.146,22,8.6247,1.8792,-10.4021,0.1045,0.0068,-0.0208,39
0.504,9,6.392,-1.0249,-13.5133,-0.0511,0.1915,-0.1245,66,1.198,23,8.5947,2.0208,-10.5391,0.0432,-0.0117,-0.0269,39
0.555,10,7.0754,-1.2481,-13.9386,0.0407,0.1066,-0.1698,66,1.249,24,8.65,1.9519,-10.5842,0.1134,0.0123,-0.0618,39
0.607,11,7.6352,-1.2207,-14.1653,0.0571,-0.0296,-0.1859,66,1.301,25,8.7875,1.8345,-10.5403,0.1749,0.0185,-0.0429,39
0.659,12,8.039,-1.342,-14.2617,0.058,-0.1673,-0.1445,66,1.353,26,8.7867,1.961,-10.5783,0.1309,0.0081,-0.0169,39
0.711,13,8.315,-1.2467,-14.1566,0.06,-0.2883,-0.078,66,1.405,27,8.7078,1.9891,-10.6307,0.0921,0.0065,-0.0075,39
0.762,14,8.5151,-1.2192,-13.9366,0.0865,-0.3646,-0.0157,66,1.456,28,8.3011,2.6141,-10.4932,-0.1078,0.0027,-0.0299,39
0.814,15,8.6378,-1.1124,-13.9902,0.0332,-0.3624,0.053,66,1.508,29,8.1969,1.8761,-10.3178,-0.0216,-0.0167,0.0033,39
0.866,16,8.8601,-1.1362,-14.0167,0.0195,-0.3532,0.0657,66,1.56,30,8.3897,1.6726,-10.4996,-0.0559,-0.0605,0.0352,39
0.918,17,8.8743,-1.196,-14.0154,0.0244,-0.3263,0.0571,66,1.612,31,8.4503,1.6728,-10.6022,-0.0833,-0.0572,0.0242,39
0.97,18,8.883,-1.1442,-13.9762,-0.0171,-0.2677,0.0586,66,1.664,32,8.5475,1.5761,-10.6233,0.0136,-0.022,0.0038,39
1.021,19,8.643,-1.2803,-13.919,-0.0752,-0.1643,0.0641,66,1.715,33,8.5828,1.6727,-10.6022,0.0299,-0.0119,-0.008,39
1.073,20,8.68,-1.2016,-13.9588,-0.1354,-0.0429,0.091,66,1.767,34,8.6452,1.7807,-10.6307,0.068,0.0011,-0.0104,39
1.125,21,8.7759,-1.2488,-14.0378,-0.1162,0.0404,0.0788,66,1.819,35,8.6737,1.7927,-10.6554,0.1003,0.0126,-0.0121,39
1.177,22,8.691,-1.2718,-14.0965,-0.0932,0.0938,0.0588,66,1.871,36,8.7584,1.8023,-10.6004,0.1222,-0.001,-0.0031,39
1.228,23,8.5701,-1.3824,-14.2001,-0.1219,0.143,0.0722,66,1.922,37,8.8144,1.8585,-10.6394,0.1694,-0.0086,0.0141,39
1.28,24,8.5334,-1.3614,-14.2908,-0.0761,0.1483,0.0589,66,1.974,38,8.8275,1.8334,-10.7314,0.1937,0.0094,0.0091,39
1.332,25,8.4649,-1.3592,-14.3445,-0.0525,0.1258,0.0466,66,2.026,39,8.76,1.8051,-10.7706,0.1569,0.0275,-0.0033,39
1.384,26,8.4052,-1.4406,-14.4006,-0.0505,0.0842,0.0441,66,2.078,40,8.8021,1.7987,-10.7861,0.0401,0.0156,-0.0132,39
1.436,27,8.3507,-1.4161,-14.3873,-0.0204,0.0292,0.0582,66,2.13,41,9.0571,1.728,-10.5395,-0.007,0.0197,-0.0214,39
1.488,28,8.3896,-1.3688,-14.3376,-0.0183,-0.0191,0.0813,66,2.181,42,9.0253,1.9261,-10.6008,0.0134,-0.0107,0.0137,39
1.539,29,8.4117,-1.4696,-14.3242,-0.0086,-0.0639,0.092,66,2.233,43,8.8616,2.0939,-10.631,-0.0131,-0.0202,0.033,39
1.591,30,8.3861,-1.4983,-14.201,-0.0029,-0.0903,0.1038,66,2.285,44,8.9916,1.2393,-10.5674,-0.0423,0.0199,0.023,39
1.643,31,8.3466,-1.5025,-14.1385,0.0228,-0.0953,0.0955,66,2.337,45,8.8635,1.3402,-10.5937,-0.0285,0.0185,0.0142,39
1.695,32,8.465,-1.3871,-14.2333,0.0375,-0.0739,0.0547,66,2.388,46,8.9269,1.4907,-10.5794,-0.0415,-0.0082,0.0242,39
1.746,33,8.6739,-1.3417,-14.3993,0.0681,-0.0702,-0.0181,66,2.44,47,8.949,1.5286,-10.6555,-0.0304,0.0046,0.0211,39
1.798,34,8.7281,-1.3614,-14.3478,0.0558,-0.0831,-0.0703,66,2.492,48,8.884,1.6284,-10.6098,-0.0418,0.0059,0.0188,39
1.85,35,8.6288,-1.4376,-14.2943,0.0052,-0.064,-0.057,66,2.544,49,8.793,1.6771,-10.6481,-0.0898,-0.0111,0.0228,39
1.902,36,8.5632,-1.5272,-14.3137,-0.0002,-0.0354,-0.0188,66,2.596,50,8.7317,1.749,-10.6973,-0.1728,-0.0243,0.0245,39
1.954,37,8.4687,-1.5398,-14.3316,0.011,-0.0116,0.0065,66,2.647,51,9.2448,1.3021,-10.4889,-0.2709,-0.09,0.0422,39
2.006,38,8.3788,-1.5698,-14.403,-0.006,0.0072,0.0339,66,2.699,52,9.216,1.444,-10.6213,-0.1293,-0.0793,0.046,39
2.057,39,8.3335,-1.5875,-14.5125,0.012,0.0055,0.0357,66,2.751,53,9.1173,1.5686,-10.6689,-0.0605,-0.0366,0.0232,39
2.109,40,8.309,-1.6077,-14.5596,0.024,-0.018,0.0281,66,2.803,54,9.0571,1.5274,-10.67,-0.0297,-0.0204,0.0101,39
2.161,41,8.3348,-1.5763,-14.5435,0.0254,-0.0492,0.0219,66,2.855,55,8.9972,1.5674,-10.7447,0.0229,0.0007,-0.0045,39
2.213,42,8.3906,-1.5984,-14.5215,0.0137,-0.0676,0.0188,66,2.906,56,8.9118,1.7608,-10.7037,0.0371,0.01,-0.01,39
2.264,43,8.3915,-1.7255,-14.5055,-0.0078,-0.0683,0.0179,66,2.958,57,8.9154,1.8823,-10.6636,-0.0419,-0.0159,-0.0002,39
2.316,44,8.3383,-1.8125,-14.5115,0.0228,-0.0581,0.0075,66,3.01,58,8.901,1.7553,-10.6825,-0.02,-0.0102,0.0052,39
2.368,45,8.2685,-1.7641,-14.4428,0.0457,-0.0452,0.0177,66,3.061,59,8.8896,1.6925,-10.6564,-0.0142,-0.0058,-0.0063,39
2.42,46,8.2288,-1.7245,-14.4328,0.05,-0.0318,0.0367,66,3.113,60,8.8689,1.6563,-10.6945,0.0219,0.0072,-0.0188,39
2.472,47,8.2407,-1.7143,-14.4757,0.0722,-0.019,0.0367,66,3.165,61,8.8593,1.7442,-10.6598,0.0918,0.0091,-0.0213,39
2.523,48,8.3137,-1.6763,-14.5389,0.0683,-0.004,0.0302,66,3.217,62,8.8467,1.72,-10.722,0.1052,0.0069,-0.0159,39
2.575,49,8.395,-1.682,-14.5881,0.0433,0.0058,0.0333,66,3.269,63,8.864,1.7772,-10.6928,0.1114,0.0127,-0.0198,39
2.627,50,8.4176,-1.7229,-14.6094,0.0276,0.0097,0.0274,66,3.32,64,8.7452,1.8961,-10.6843,0.0848,0.0188,-0.0221,39
2.679,51,8.3756,-1.7192,-14.5849,0.0246,0.0057,0.0147,66,3.372,65,8.7725,1.7602,-10.6636,0.068,0.018,-0.0104,39
2.731,52,8.3628,-1.7631,-14.521,0.0234,0.0014,0.0084,66,3.424,66,8.7193,1.8763,-10.7088,0.0172,0.007,-0.0042,39
2.782,53,8.3349,-1.7556,-14.4286,0.0179,0.0044,0.0173,66,3.476,67,8.9525,1.764,-10.6444,-0.0367,-0.0343,0.014,39
2.834,54,8.2507,-1.7506,-14.4153,0.0146,0.0206,0.0294,66,3.527,68,8.9743,1.7946,-10.6942,-0.0322,-0.0249,0.0112,39
2.886,55,8.2336,-1.7769,-14.4544,0.0139,0.0292,0.0315,66,3.579,69,8.9166,1.7943,-10.715,-0.0273,-0.0131,0.0061,39
2.938,56,8.2699,-1.7396,-14.4802,0.0093,0.0257,0.0297,66,3.631,70,8.9079,1.7675,-10.705,-0.0177,-0.006,0.0039,39
2.989,57,8.313,-1.7826,-14.5161,0.0055,0.0168,0.0167,66,3.683,71,8.8193,1.8289,-10.7093,-0.001,0.0071,0.0015,39
3.041,58,8.3619,-1.7694,-14.4942,0.0123,0.0069,0.0068,66,3.735,72,8.8032,1.8129,-10.6814,0.002,0.0075,0.0041,39
3.093,59,8.4031,-1.7906,-14.4512,-0.0006,0.0108,0.0094,66,3.786,73,8.7744,1.8524,-10.6943,-0.0139,0.0017,0.0099,39
3.145,60,8.3866,-1.8076,-14.4491,0.0119,0.0201,-0.0021,66,3.838,74,8.44,2.135,-10.7426,-0.1394,-0.0287,0.0061,39
3.197,61,8.3507,-1.8056,-14.465,0.008,0.0266,-0.0044,66,3.89,75,8.4325,2.0795,-10.7426,-0.0514,-0.035,0.0239,39
3.248,62,8.3051,-1.8422,-14.465,0.0095,0.0195,-0.0022,66,3.942,76,8.5228,1.9665,-10.8423,-0.0647,-0.039,0.0188,39
3.3,63,8.3026,-1.8262,-14.4559,0.0154,0.0068,0.0043,66,3.993,77,8.6169,1.8733,-10.8096,-0.0506,-0.0219,0.0053,39
3.352,64,8.301,-1.8008,-14.4315,0.0126,-0.0022,0.0069,66,4.045,78,8.6675,1.7657,-10.7923,0.0026,-0.007,-0.0047,39
3.404,65,8.3058,-1.818,-14.3932,0.0074,0.0009,0.0032,66,4.097,79,8.6448,1.9436,-10.7785,0.0484,0.0028,-0.0041,39
3.456,66,8.3586,-1.8326,-14.3784,-0.0274,0.0143,0.0186,66,4.149,80,8.6594,1.8288,-10.7796,0.0274,0.0116,-0.0083,39
3.507,67,8.391,-1.8798,-14.4519,-0.0322,0.0262,0.0256,66,4.201,81,8.7522,1.7064,-10.7568,0.0273,0.0159,-0.0117,39
3.559,68,8.3671,-1.8881,-14.5089,-0.0166,0.0259,0.0215,66,4.252,82,8.7438,1.7544,-10.7331,0.0406,0.0202,-0.0151,39
3.611,69,8.3457,-1.9282,-14.5148,-0.0133,0.0104,0.0167,66,4.304,83,8.7593,1.6587,-10.7264,0.0915,0.0285,-0.0249,39
3.663,70,8.3022,-1.9522,-14.4733,0.0115,-0.0092,0.0028,66,4.356,84,8.7241,1.7568,-10.7466,0.0923,0.0255,-0.023,39
3.715,71,8.2611,-1.8918,-14.3712,0.0242,-0.0172,-0.0021,66,4.408,85,8.5923,1.9218,-10.7204,0.0524,0.0166,-0.0149,39
3.766,72,8.2798,-1.8973,-14.3325,0.0225,-0.0084,0.0052,66,4.46,86,9.1758,1.7209,-10.5754,-0.0677,-0.0558,0.0145,39
3.818,73,8.3385,-1.8708,-14.3569,0.0321,0.0014,0.0057,66,4.511,87,9.1787,1.8463,-10.6602,-0.0268,-0.0463,0.0121,39
3.87,74,8.3833,-1.8684,-14.4194,0.0239,0.0031,0.0037,66,4.563,88,9.1995,1.7552,-10.6397,0.0169,-0.0267,0.0001,39
3.922,75,8.4126,-1.8937,-14.4417,0.0271,-0.0104,-0.0064,66,4.615,89,9.0602,1.8005,-10.6795,0.0284,-0.0234,0.004,39
3.974,76,8.3968,-1.8599,-14.3253,0.0346,-0.0171,-0.0165,66,4.667,90,8.9662,1.7391,-10.729,0.0353,-0.0166,0.0095,39
4.025,77,8.3654,-1.8555,-14.2145,0.0195,-0.0019,0.0011,66,4.718,91,8.8878,1.771,-10.7732,0.0028,-0.0127,0.0108,39
4.077,78,8.3722,-1.9227,-14.2545,-0.0102,0.0338,0.0312,66,4.77,92,8.8382,1.9607,-10.7321,-0.0981,-0.0313,0.0101,39
4.129,79,8.4255,-1.9074,-14.3737,-0.0068,0.0507,0.0319,66,4.822,93,8.8425,1.8398,-10.6735,-0.0471,-0.0242,0.0154,39
4.18,80,8.4215,-1.909,-14.4098,-0.0058,0.0384,0.0101,66,4.874,94,8.803,1.7542,-10.7467,-0.0527,-0.0242,0.008,39
4.232,81,8.3582,-1.9603,-14.3628,-0.0044,0.019,0.0043,66,4.926,95,8.84,1.7314,-10.7176,-0.0665,-0.023,0.0042,39
4.284,82,8.2821,-1.9659,-14.2742,0.0187,0.0085,0.0055,66,4.977,96,8.8586,1.7565,-10.7226,-0.0288,-0.0144,0.0004,39
4.336,83,8.2287,-1.9537,-14.2249,0.0106,0.0115,0.0201,66,5.029,97,8.8989,1.7099,-10.7257,-0.0022,-0.0092,-0.0063,39
4.388,84,8.3075,-1.9304,-14.2748,-0.01,0.0145,0.0301,66,5.081,98,8.8424,1.735,-10.7196,0.0154,0.0077,-0.0172,39
4.439,85,8.3744,-1.9491,-14.3761,-0.0104,0.0156,0.0152,66,5.132,99,8.8012,1.8267,-10.7023,0.0086,0.0071,-0.0071,39
4.491,86,8.4479,-1.9453,-14.377,0.0065,-0.0015,-0.0149,66,5.184,100,8.8861,1.7845,-10.6728,0.0097,-0.0033,0.0064,39
4.543,87,8.4568,-1.9444,-14.3041,-0.0196,-0.0089,-0.0075,66,5.236,101,8.8408,1.7353,-10.7283,0.0207,0.0035,0.0012,39
4.595,88,8.3922,-2.0257,-14.2856,-0.0146,-0.0027,0.0083,66,5.288,102,8.8524,1.7084,-10.7287,0.0632,0.0214,-0.0107,39
4.646,89,8.3126,-2.0129,-14.2587,0.0075,0.0062,0.0115,66,5.34,103,8.8452,1.7079,-10.7169,0.0481,0.0276,-0.0116,39
4.698,90,8.3649,-1.9842,-14.2963,0.0195,0.002,0.013,66,5.391,104,8.8042,1.6792,-10.7308,0.032,0.0225,-0.0017,39
4.75,91,8.4119,-1.9423,-14.2714,0.0148,-0.005,0.0183,66,5.443,105,8.8474,1.6593,-10.7202,0.0219,0.0172,0.0015,39
4.802,92,8.458,-1.9335,-14.2469,0.0022,0.0045,0.0211,66,5.495,106,8.7819,1.7383,-10.7256,-0.0001,0.0159,-0.0016,39
4.854,93,8.4616,-1.9658,-14.295,0.0254,0.0163,0.0015,66,5.547,107,8.7318,1.7418,-10.6875,-0.0078,0.0097,0.0007,39
4.906,94,8.4546,-1.945,-14.3163,0.0454,0.0152,-0.0194,66,5.599,108,8.7107,1.751,-10.6857,-0.0006,0.0036,0.0077,39
4.957,95,8.3872,-1.958,-14.3033,0.0531,0.0069,-0.0263,66,5.65,109,8.7746,1.7818,-10.6875,-0.0249,-0.0053,0.013,39
5.009,96,8.3244,-1.9592,-14.2644,0.054,0.0043,-0.0146,66,5.702,110,8.7932,1.69,-10.7015,-0.0273,0.0013,0.0093,39
5.061,97,8.305,-1.919,-14.2623,0.0564,0.0027,-0.0026,66,5.754,111,8.8256,1.6502,-10.6984,-0.0233,0.0097,0.0004,39
5.113,98,8.337,-1.8627,-14.2845,0.0442,-0.002,0.0037,66,5.806,112,8.8108,1.7092,-10.6817,-0.0068,0.0209,-0.0096,39
5.165,99,8.3991,-1.9227,-14.2985,0.0418,-0.0105,-0.008,66,5.857,113,8.7927,1.7041,-10.6637,-0.0087,0.023,-0.0119,39
5.216,100,8.4456,-1.9669,-14.2657,0.0465,-0.019,-0.0158,66,5.909,114,8.7977,1.6637,-10.5984,0.0,0.0264,-0.0132,39
5.268,101,8.4555,-1.9709,-14.2138,0.0283,-0.0081,0.0048,66,5.961,115,8.7786,1.7024,-10.6142,-0.0144,0.0259,-0.0187,39
5.32,102,8.4759,-1.9272,-14.2238,0.0243,0.0052,0.0188,66,6.013,116,8.7062,1.8236,-10.5989,-0.0409,0.025,-0.021,39
5.372,103,8.444,-1.9104,-14.2531,0.0168,0.0154,0.0022,66,6.065,117,8.8767,1.7562,-10.6605,-0.1577,-0.0167,-0.0158,39
5.423,104,8.4244,-1.9091,-14.2615,0.0067,0.0134,-0.0151,66,6.116,118,8.8972,1.8974,-10.6642,-0.0808,-0.0256,-0.0065,39
5.475,105,8.3928,-1.9741,-14.2379,-0.0019,0.0061,-0.0152,66,6.168,119,8.8892,1.8466,-10.6215,-0.0041,-0.0044,-0.0149,39
5.527,106,8.3769,-2.0604,-14.2242,-0.0002,0.0021,-0.007,66,6.22,120,8.7675,1.9429,-10.6334,-0.0206,0.0063,-0.0168,39
5.579,107,8.4349,-2.027,-14.1986,0.0139,0.005,-0.0048,66,6.272,121,8.7619,1.9215,-10.5929,-0.0348,-0.0005,-0.0085,39
5.631,108,8.5029,-1.9853,-14.2282,0.0184,0.0064,0.0067,66,6.323,122,8.766,1.8259,-10.6142,0.0422,0.0032,-0.0131,39
5.682,109,8.5724,-2.069,-14.2511,-0.0139,0.0039,0.0357,66,6.375,123,8.7518,1.8901,-10.6089,0.0823,-0.0043,-0.0085,39
5.734,110,8.5518,-2.1102,-14.2238,-0.0087,0.0051,0.0349,66,6.427,124,8.7554,1.8342,-10.6019,0.0878,-0.0146,0.0094,39
5.786,111,8.5722,-2.0158,-14.1451,0.0094,0.0082,0.0139,66,6.479,125,8.757,1.7997,-10.7053,0.091,-0.0122,0.0147,39
5.838,112,8.5223,-1.9382,-14.0602,-0.0023,0.0177,0.0104,66,6.531,126,8.728,1.8564,-10.7212,0.0785,0.0057,0.0013,39
5.889,113,8.4316,-1.9976,-14.0312,-0.0251,0.0405,0.0227,66,6.582,127,8.693,1.7944,-10.6823,0.05,0.0109,-0.0054,39
5.941,114,8.4311,-1.9783,-14.0831,-0.0131,0.0547,0.0167,66,6.634,128,8.6553,1.9184,-10.6606,0.0353,-0.0024,0.0087,39
5.993,115,8.4209,-1.9852,-14.1395,-0.0318,0.0542,0.0229,66,6.686,129,8.7107,1.8244,-10.6918,0.0164,-0.0089,0.0155,39
6.045,116,8.3626,-2.0371,-14.1497,-0.038,0.0388,0.0361,66,6.738,130,8.7192,1.769,-10.7363,-0.005,0.0102,-0.0003,39
6.097,117,8.2818,-2.0222,-14.1225,-0.0206,0.0264,0.0329,66,6.789,131,8.6701,1.9074,-10.6921,0.0057,0.0257,-0.0091,39
6.149,118,8.2598,-2.0349,-14.0867,-0.017,0.0154,0.0202,66,6.841,132,8.3719,2.1637,-10.6878,-0.103,0.0204,-0.0112,39
6.2,119,8.3517,-2.0766,-14.1355,-0.0111,-0.0011,0.0047,66,6.893,133,8.8145,1.5541,-10.5657,-0.2093,-0.0446,0.0272,39
6.252,120,8.4344,-2.1023,-14.1688,-0.0046,-0.0204,0.0001,66,6.945,134,8.8872,1.5109,-10.6404,-0.1445,-0.0712,0.0496,39
6.304,121,8.4383,-2.1247,-14.1881,0.0046,-0.0339,0.0032,66,6.997,135,8.9443,1.5571,-10.6767,-0.058,-0.0629,0.0445,39
6.356,122,8.4437,-2.0393,-14.1831,0.0394,-0.0434,-0.0132,66,7.048,136,8.922,1.5212,-10.7165,-0.0061,-0.0461,0.0241,39
6.408,123,8.4096,-1.9276,-14.0701,0.0566,-0.0464,-0.0399,66,7.1,137,8.8922,1.5989,-10.7014,0.0413,-0.029,0.0082,39
6.459,124,8.5009,-1.8994,-14.0077,0.0125,-0.0247,-0.0256,66,7.152,138,8.8972,1.5958,-10.675,0.0836,-0.0339,0.01,39
6.511,125,8.6051,-1.9857,-14.0625,-0.0201,0.0082,0.007,66,7.204,139,8.9333,1.5474,-10.6855,0.1188,-0.0396,0.0188,39
6.563,126,8.6061,-2.0619,-14.1567,-0.0238,0.0272,0.016,66,7.256,140,8.9091,1.5733,-10.7915,0.1635,-0.0259,0.0106,39
6.615,127,8.5243,-2.1171,-14.1884,-0.0228,0.035,0.0189,66,7.307,141,8.8496,1.6028,-10.846,0.1781,0.0027,-0.0009,39
6.667,128,8.456,-2.0776,-14.171,0.0025,0.0288,0.0144,66,7.359,142,8.7696,1.7357,-10.8846,0.1361,0.016,-0.005,39
6.718,129,8.434,-1.95,-14.1288,0.0121,0.0186,0.0169,66,7.411,143,8.6553,1.6803,-10.9123,0.0744,0.0297,-0.0094,39
6.77,130,8.3903,-1.9229,-14.0774,0.0034,0.0126,0.0209,66,7.462,144,8.3406,1.9163,-11.0274,-0.0276,0.0504,-0.0274,39
6.822,131,8.353,-1.9932,-14.0845,-0.0092,0.0133,0.029,66,7.514,145,8.3506,1.7953,-10.9137,0.0086,0.037,-0.0089,39
6.874,132,8.3604,-2.0932,-14.141,0.0094,0.0068,0.0416,66,7.566,146,8.5905,1.6945,-10.9633,0.0302,0.03,0.0052,39
6.925,133,8.3531,-2.0803,-14.1518,0.0193,-0.0172,0.0518,66,7.618,147,8.6536,1.6961,-10.8864,-0.0082,0.0299,0.0074,39
6.977,134,8.3204,-2.0382,-14.1093,0.0334,-0.0445,0.0327,66,7.67,148,8.6149,1.9047,-10.8252,-0.0113,0.0268,0.0174,39
7.029,135,8.4184,-1.9161,-14.1469,0.0321,-0.059,0.0004,66,7.721,149,8.6491,1.7684,-10.9241,-0.0879,-0.0128,0.0389,39
7.081,136,8.5426,-1.8992,-14.1925,-0.0003,-0.0586,-0.0308,66,7.773,150,8.7427,1.8303,-10.8803,-0.0468,-0.0288,0.0437,39
7.133,137,8.6167,-1.9452,-14.2252,-0.0112,-0.057,-0.0705,66,7.825,151,8.8317,1.7232,-10.8523,-0.0375,-0.0187,0.0396,39
7.184,138,8.5768,-2.0035,-14.1772,-0.0179,-0.0473,-0.0748,66,7.877,152,8.8033,1.6935,-10.7685,-0.0793,-0.0129,0.0303,39
7.236,139,8.5068,-2.0283,-14.1014,-0.0284,-0.0281,-0.0583,66,7.928,153,8.7844,1.7366,-10.7552,-0.044,-0.0039,0.0253,39
7.288,140,8.4174,-2.0286,-14.0727,-0.0163,0.0013,-0.0354,66,7.98,154,8.8177,1.6693,-10.7147,-0.0505,-0.0098,0.0208,39
7.34,141,8.3628,-2.0224,-14.1331,-0.0306,0.0326,-0.0094,66,8.032,155,8.7936,1.6483,-10.7402,-0.0347,-0.0066,0.0173,39
7.392,142,8.4408,-1.98,-14.2609,-0.0182,0.0326,-0.0075,66,8.084,156,8.7355,1.7514,-10.7406,-0.0826,-0.0129,0.0145,39
7.443,143,8.3938,-1.9758,-14.277,-0.0144,0.0096,-0.0103,66,8.136,157,8.7794,1.5387,-10.713,-0.0381,-0.0096,0.0201,39
7.495,144,8.3454,-2.0578,-14.2488,-0.0325,-0.0091,0.0039,66,8.187,158,8.7898,1.4609,-10.8079,-0.0224,-0.0113,0.0123,39
7.547,145,8.3277,-2.0004,-14.2099,-0.0067,-0.0177,0.0116,66,8.239,159,8.7651,1.6082,-10.8163,0.0104,-0.0025,0.0036,39
7.599,146,8.3528,-2.0065,-14.2374,0.0166,-0.0214,-0.0056,66,8.291,160,8.772,1.5864,-10.8125,-0.002,0.0038,-0.0034,39
7.651,147,8.391,-2.0064,-14.2625,0.0242,-0.0227,-0.0289,66,8.343,161,8.7697,1.5915,-10.7773,-0.0168,0.0078,-0.0117,39
7.702,148,8.4398,-2.0062,-14.22,0.019,-0.0255,-0.0222,66,8.394,162,8.8428,1.5844,-10.785,-0.0973,-0.007,-0.0173,39
7.754,149,8.4622,-2.0433,-14.2348,0.0387,-0.0263,-0.0128,66,8.446,163,8.8869,1.725,-10.7376,-0.0208,-0.0083,-0.0204,39
7.806,150,8.481,-2.0402,-14.2397,0.0621,-0.0238,-0.0069,66,8.498,164,8.8938,1.6998,-10.7196,-0.0201,-0.0049,-0.0182,39
7.858,151,8.4684,-1.9753,-14.2015,0.0766,-0.0207,-0.0062,66,8.55,165,8.809,1.7338,-10.7285,-0.0283,-0.009,-0.011,39
7.909,152,8.4779,-1.8134,-14.1634,0.0767,-0.011,-0.0135,66,8.602,166,8.7236,1.8059,-10.7554,-0.0537,-0.0122,-0.0046,39
7.961,153,8.4359,-1.7446,-14.1615,0.052,0.0011,-0.0289,66,8.654,167,8.8522,1.6022,-10.7149,-0.0863,-0.0301,0.0043,39
8.013,154,8.4742,-1.7527,-14.2229,0.0165,0.0111,-0.036,66,8.705,168,8.8827,1.5901,-10.7459,-0.0127,-0.026,-0.0016,39
8.065,155,8.4974,-1.7779,-14.2487,0.0051,0.0051,-0.0554,66,8.757,169,8.8489,1.6736,-10.7541,0.0498,-0.0079,-0.0135,39
8.117,156,8.4574,-1.9286,-14.2277,-0.0242,0.0061,-0.0532,66,8.809,170,8.8077,1.6592,-10.7454,0.0201,-0.0031,-0.0169,39
8.168,157,8.4174,-2.0372,-14.1872,-0.0194,0.0124,-0.0194,66,8.861,171,8.8026,1.5797,-10.7475,0.032,0.0005,-0.0125,39
8.22,158,8.4145,-2.0451,-14.1847,-0.0231,0.0233,0.0308,66,8.913,172,8.7773,1.6147,-10.7543,0.087,0.0008,-0.0143,39
8.272,159,8.405,-2.0286,-14.2369,-0.0295,0.0241,0.0576,66,8.964,173,8.7941,1.7038,-10.78,0.0882,0.0049,-0.0152,39
8.324,160,8.4253,-1.9732,-14.2644,0.003,0.0073,0.0404,66,9.016,174,8.8565,1.5914,-10.7325,0.0595,0.0091,-0.0131,39
8.376,161,8.4242,-1.9157,-14.2148,0.0227,-0.0089,0.0082,66,9.068,175,8.8019,1.6429,-10.7625,0.0468,0.0136,-0.0114,39
8.427,162,8.5168,-1.8555,-14.1596,0.018,-0.0153,-0.0064,66,9.12,176,8.8163,1.6415,-10.7198,0.0226,0.0172,-0.0125,39
8.479,163,8.564,-1.9052,-14.116,0.0062,-0.001,-0.0058,66,9.171,177,8.8195,1.6619,-10.7334,0.0305,0.0143,-0.0075,39
8.531,164,8.558,-1.9042,-14.106,0.0291,0.0153,-0.009,66,9.223,178,8.8154,1.6491,-10.7268,0.0294,0.0122,-0.0029,39
8.583,165,8.5218,-1.8894,-14.1291,0.0188,0.0275,-0.0033,66,9.275,179,8.8078,1.6663,-10.7373,0.0083,0.006,-0.0014,39
8.634,166,8.4705,-1.903,-14.1715,0.0223,0.0233,-0.0102,66,9.327,180,8.8177,1.631,-10.7271,0.0135,0.0069,-0.0009,39
8.686,167,8.4076,-1.8981,-14.1758,0.0334,0.014,-0.0192,66,9.379,181,8.7765,1.6866,-10.7278,0.004,0.0008,0.0004,39
8.738,168,8.3707,-1.9122,-14.1896,0.0338,0.0042,-0.0174,66,9.43,182,8.8474,1.568,-10.7334,-0.017,-0.0061,0.0033,39
8.79,169,8.4077,-1.8841,-14.1902,0.042,-0.0067,-0.0168,66,9.482,183,8.8561,1.6254,-10.7192,0.0104,-0.0047,-0.0014,39
8.841,170,8.4302,-1.8513,-14.1676,0.0337,-0.0121,-0.0119,66,9.534,184,8.8233,1.6271,-10.727,0.0374,0.0046,-0.005,39
8.893,171,8.4864,-1.8631,-14.1471,0.0324,-0.0143,-0.0078,66,9.586,185,8.8039,1.6707,-10.6815,0.0488,-0.0183,0.0109,39
8.945,172,8.5409,-1.8869,-14.1258,0.0376,-0.0092,-0.0097,66,9.637,186,8.8072,1.6152,-10.7538,0.0596,-0.0192,0.0231,39
8.997,173,8.5504,-1.8663,-14.1022,0.0319,0.0028,-0.0033,66,9.689,187,8.7495,1.6257,-10.767,0.0392,0.0006,0.0113,39
9.049,174,8.5146,-1.8144,-14.0948,0.0358,0.0185,-0.0059,66,9.741,188,8.7924,1.6782,-10.7098,-0.0098,0.0037,0.0057,39
9.1,175,8.4832,-1.7852,-14.1348,0.0283,0.027,-0.0149,66,9.793,189,8.7469,1.7603,-10.7148,-0.0422,0.0041,0.0044,39
9.153,176,8.4757,-1.8035,-14.1692,0.0258,0.0164,-0.0223,66,9.844,190,9.1477,1.5171,-10.6499,-0.1065,-0.027,0.0112,39
9.204,177,8.4465,-1.8361,-14.1251,0.0074,0.0032,-0.0071,66,9.896,191,9.0531,1.5162,-10.699,-0.07,-0.0216,-0.0002,39
9.256,178,8.3506,-1.932,-14.0763,-0.0018,0.0002,0.0249,66,9.948,192,9.0014,1.5044,-10.7363,-0.0129,-0.0119,-0.0035,39
9.308,179,8.3619,-1.9721,-14.0932,0.0088,-0.0004,0.0514,66,10.0,193,8.9171,1.5596,-10.7442,0.03,0.0047,-0.0045,39
9.359,180,8.4057,-1.921,-14.1086,0.0025,0.0003,0.0608,66,10.052,194,8.9212,1.5351,-10.7646,0.0887,0.0263,-0.0093,39
9.411,181,8.4716,-1.9447,-14.1355,-0.0043,-0.0033,0.0545,66,10.104,195,8.9772,1.5635,-10.7444,0.144,0.0561,-0.0184,39
9.463,182,8.5253,-1.9732,-14.1849,-0.0045,-0.0088,0.0463,66,10.155,196,8.8731,1.5961,-10.7193,0.182,0.0885,-0.0368,39
9.515,183,8.4891,-1.8764,-14.1398,0.0016,-0.0204,0.027,66,10.207,197,8.9823,1.4816,-10.6845,0.1822,0.1285,-0.0714,39
9.567,184,8.1966,-1.6434,-14.2049,0.0027,-0.0235,-0.0013,66,10.259,198,8.9022,1.6639,-10.5575,0.1527,0.162,-0.1032,39
9.619,185,7.224,-1.1329,-14.2239,0.0003,-0.0398,-0.0438,66,10.311,199,8.8056,1.8023,-10.5155,0.132,0.1743,-0.1127,39
