right_leg_timestamp,right_leg_index,right_leg_accel_x,right_leg_accel_y,right_leg_accel_z,right_leg_gyro_x,right_leg_gyro_y,right_leg_gyro_z,right_leg_battery_percentage,left_leg_timestamp,left_leg_index,left_leg_accel_x,left_leg_accel_y,left_leg_accel_z,left_leg_gyro_x,left_leg_gyro_y,left_leg_gyro_z,left_leg_battery_percentage
0.403,7,10.0312,-0.7238,-12.0851,0.0648,0.4893,0.2318,93,0.045,0,8.7203,-0.2892,-11.9293,0.4245,0.0376,-0.1668,63
0.455,8,10.0589,-0.9749,-11.801,-0.0955,0.4045,0.2592,93,0.097,1,8.6013,-0.0981,-11.9411,0.5347,0.0428,-0.1445,63
0.506,9,9.7048,-1.3076,-11.5866,-0.1606,0.3223,0.2419,93,0.149,2,8.6186,0.2365,-11.6205,0.4636,0.0194,-0.1181,63
0.558,10,9.4886,-1.4831,-11.273,-0.0941,0.2403,0.1711,93,0.201,3,8.703,0.1643,-11.5531,0.3628,0.0066,-0.0689,63
0.61,11,9.4027,-2.2376,-10.7794,0.0532,0.0922,0.083,93,0.253,4,8.7555,0.0439,-11.5483,0.2839,-0.0309,-0.0184,63
0.662,12,9.5676,-1.0127,-11.2067,0.4086,0.0057,0.0107,93,0.305,5,8.7945,-0.0341,-11.6789,0.2362,-0.0705,0.0177,63
0.714,13,9.6132,-1.0087,-11.0014,0.3864,0.0106,0.0584,93,0.357,6,8.7739,-0.0326,-11.5988,0.2201,-0.1084,0.0308,63
0.766,14,9.4788,-1.2542,-10.9058,0.292,0.0027,0.0693,93,0.408,7,8.8438,-0.299,-11.7458,0.2477,-0.2376,0.0279,63
0.817,15,9.4266,-1.3602,-10.7477,0.2521,-0.0516,0.0826,93,0.46,8,9.0023,-0.3143,-11.5324,0.2393,-0.3764,0.0003,63
0.869,16,9.4798,-1.0824,-10.9119,0.0883,-0.032,0.106,93,0.512,9,10.0885,-0.8025,-11.0021,0.1405,-0.593,-0.1019,63
0.921,17,9.5073,-1.3172,-10.9338,0.1395,0.006,0.0771,93,0.564,10,10.4376,-1.6062,-12.2948,-0.2779,-0.8843,-0.184,63
0.973,18,9.4994,-1.3437,-10.8271,0.1392,0.0262,0.0757,93,0.616,11,10.2411,2.4186,-15.8911,-0.4691,-1.3122,-0.5532,63
1.024,19,9.4253,-1.8515,-10.8103,0.0495,0.0184,0.0563,93,0.667,12,9.8408,3.0372,-17.0127,-0.3352,-1.6245,-0.9415,63
1.076,20,9.4026,-2.0441,-10.7961,0.0979,0.0042,0.017,93,0.719,13,8.649,2.4361,-16.8474,-0.38,-1.8524,-1.0531,63
1.128,21,9.3816,-1.9058,-10.7468,0.1973,-0.0358,-0.0077,93,0.771,14,7.2288,1.7979,-16.3462,-0.5087,-2.0188,-0.9342,63
1.18,22,9.3809,-1.697,-10.7178,0.1873,-0.0833,-0.0109,93,0.823,15,5.8321,1.3629,-15.6213,-0.7033,-2.1402,-0.7745,63
1.232,23,9.3679,-1.5674,-10.8698,0.1318,-0.1028,-0.002,93,0.874,16,4.3995,1.4077,-14.9844,-0.6895,-2.1196,-0.7454,63
1.283,24,9.4203,-1.7237,-11.0114,0.0978,-0.0826,0.0206,93,0.926,17,3.1555,1.5946,-14.9283,-0.4796,-1.7549,-0.6649,63
1.335,25,9.3879,-1.7598,-10.9881,0.1307,-0.0557,0.0199,93,0.978,18,2.1512,1.5587,-15.075,-0.24,-1.2755,-0.5586,63
1.387,26,9.3425,-1.7994,-10.9555,0.1066,-0.0534,0.0247,93,1.03,19,1.5613,1.9042,-15.4437,-0.1585,-0.7882,-0.4258,63
1.439,27,9.3594,-1.9069,-11.0244,0.1346,-0.0401,0.0346,93,1.082,20,1.0324,2.296,-16.6005,-0.2005,-0.3647,-0.317,63
1.49,28,9.1101,-1.6642,-11.2412,0.2732,-0.0361,0.0434,93,1.133,21,0.5647,2.9246,-17.6504,-0.0917,-0.0706,-0.2748,63
1.542,29,8.9497,-2.5232,-11.6006,0.7188,-0.1931,-0.0196,93,1.185,22,0.27,3.288,-18.486,-0.0497,0.0578,-0.2549,63
1.594,30,8.8754,-1.8019,-11.1243,1.2011,-0.4604,-0.0292,93,1.237,23,-0.0483,3.4028,-18.9137,-0.0911,0.0558,-0.2318,63
1.646,31,8.8968,-2.1362,-11.8861,0.3116,-0.4511,-0.02,93,1.288,24,-0.3236,3.3627,-18.9335,-0.1231,0.0301,-0.1942,63
1.698,32,8.617,-2.4692,-12.2424,0.4003,-0.4182,-0.019,93,1.34,25,-0.8516,3.096,-19.0318,-0.0422,0.0024,-0.1499,63
1.749,33,8.9487,-1.8056,-12.0761,-0.1437,-0.169,0.0319,93,1.392,26,-1.1488,3.3012,-19.094,0.0909,-0.0841,-0.097,63
1.801,34,8.5294,-2.3307,-11.8058,-0.246,-0.0259,0.0446,93,1.444,27,-1.4516,3.5879,-19.1263,0.1986,-0.1753,-0.0447,63
1.853,35,8.8897,-2.1133,-11.1757,-0.5683,0.102,0.0424,93,1.496,28,-1.7223,3.8879,-19.1015,0.1863,-0.272,0.0122,63
1.905,36,8.9021,-2.2372,-11.024,-0.5392,0.1218,0.0364,93,1.547,29,-1.7246,3.8826,-19.1059,0.0924,-0.3693,0.0736,63
1.957,37,9.0787,-1.9127,-10.977,-0.6732,0.1196,0.056,93,1.599,30,-1.9023,3.6767,-19.0048,0.0393,-0.4381,0.1001,63
2.008,38,9.1495,-2.5559,-11.1085,-0.6637,0.0989,0.0392,93,1.651,31,-1.5825,3.3284,-19.0489,0.0922,-0.4591,0.0888,63
2.06,39,9.1925,-2.5659,-11.0884,-0.6828,0.1214,-0.004,93,1.703,32,-0.4472,3.355,-18.9039,0.1334,-0.4828,0.0083,63
2.112,40,8.9044,-3.385,-11.0319,-0.4583,0.0982,-0.0514,93,1.755,33,0.6288,2.994,-18.7186,-0.227,-0.4181,-0.0122,63
2.164,41,8.9759,-2.5101,-11.3134,0.0977,0.0356,-0.1704,93,1.806,34,-0.029,2.6691,-18.4314,0.0208,-0.1682,-0.1635,63
2.216,42,8.9614,-1.9778,-11.2858,0.4973,-0.0409,-0.1999,93,1.858,35,-0.705,2.3328,-18.7707,-0.1971,0.0484,0.108,63
2.267,43,9.2626,-1.7311,-11.0682,0.6801,-0.1316,-0.1846,93,1.91,36,-1.7001,2.3643,-19.0476,-0.2102,0.1468,0.4677,63
2.319,44,9.3217,-1.786,-11.0262,0.6089,-0.1621,-0.1553,93,1.962,37,-2.1558,2.5844,-19.4692,-0.2403,0.0744,0.8373,63
2.371,45,9.3209,-1.8916,-11.0849,0.6128,-0.1651,-0.1368,93,2.013,38,-2.3152,3.2708,-19.4748,0.039,-0.1126,0.9965,63
2.423,46,9.3531,-1.5216,-10.9196,0.437,-0.1632,-0.1129,93,2.065,39,-1.9493,3.4077,-19.4914,0.1701,-0.3234,1.064,63
2.475,47,9.3977,-1.6066,-11.1915,0.2509,-0.1516,-0.0211,93,2.117,40,-1.2267,3.8273,-19.3574,0.2844,-0.4315,1.0293,63
2.526,48,9.354,-1.738,-11.417,-0.1242,-0.0736,0.0687,93,2.169,41,-0.8996,4.3298,-18.7739,0.1137,-0.3782,0.9578,63
2.578,49,9.0808,-2.6304,-11.0081,-0.6179,0.0157,0.2657,93,2.221,42,-1.0323,4.1812,-18.3827,0.033,-0.2213,0.8156,63
2.63,50,8.8445,-0.3024,-11.8833,-1.0082,0.1254,0.3171,93,2.272,43,-1.2023,4.2076,-18.271,0.0362,-0.0547,0.6766,63
2.681,51,8.991,-0.6248,-11.8666,-0.2549,-0.0113,0.3032,93,2.324,44,-1.0372,4.3423,-18.3725,0.0476,0.077,0.4593,63
2.733,52,9.2527,-1.7587,-11.522,0.0429,-0.1105,0.1697,93,2.376,45,-0.8964,4.4898,-18.6327,0.1016,0.1454,0.1783,63
2.785,53,9.3949,-1.6599,-11.6424,0.1844,-0.1197,0.0505,93,2.428,46,-0.7902,4.3931,-18.7428,0.0375,0.1559,-0.005,63
2.837,54,9.2336,-1.9681,-11.6612,0.3065,-0.0993,-0.0335,93,2.479,47,-0.6459,4.3,-18.7716,0.1757,0.1624,-0.2203,63
2.889,55,9.1938,-1.8196,-11.5348,0.3137,-0.0619,-0.0831,93,2.531,48,-0.577,4.0355,-18.8312,0.1321,0.1856,-0.3132,63
2.94,56,9.3225,-1.8632,-11.4267,0.1186,-0.0288,-0.0714,93,2.583,49,-0.5306,3.7371,-18.8407,0.0875,0.2175,-0.3893,63
2.992,57,9.2752,-1.8745,-11.4892,-0.067,0.0062,-0.0586,93,2.635,50,-0.6727,3.897,-18.7391,-0.0369,0.2432,-0.3855,63
3.044,58,9.2873,-2.3555,-11.4211,-0.2201,0.0555,-0.0441,93,2.687,51,-0.6264,4.2042,-18.5908,-0.1131,0.2203,-0.3625,63
3.096,59,9.1076,-2.8739,-11.1818,-0.0727,0.0932,-0.0308,93,2.738,52,-0.3928,4.5768,-18.4872,-0.0686,0.2428,-0.4434,63
3.148,60,9.347,-2.1834,-11.2789,0.087,0.0905,-0.0245,93,2.79,53,-0.4553,4.6792,-18.2248,-0.1129,0.345,-0.7182,63
3.2,61,9.4534,-1.8464,-11.2783,0.119,0.0514,-0.0017,93,2.842,54,-0.5395,5.1355,-17.8607,-0.319,0.4869,-0.9582,63
3.252,62,9.5225,-1.3635,-11.282,0.0908,0.045,0.0349,93,2.894,55,-0.0491,4.4997,-18.2345,-0.1652,0.671,-1.1881,63
3.303,63,9.3599,-1.9754,-11.4802,-0.2401,0.0869,0.1047,93,2.946,56,0.5975,4.431,-18.9898,0.096,0.8542,-1.5014,63
3.355,64,9.3773,-2.2189,-11.3958,-0.0686,0.0767,0.0696,93,2.997,57,0.4788,2.9418,-19.7748,-0.1898,0.9501,-1.4518,63
3.407,65,9.3892,-2.0662,-11.22,-0.122,0.0572,0.058,93,3.049,58,0.0554,2.2719,-19.9031,-0.2435,0.8632,-1.2369,63
3.458,66,9.3736,-2.0332,-11.3607,-0.0997,0.0369,0.0495,93,3.101,59,-0.1372,2.1607,-19.7319,-0.2963,0.596,-0.8566,63
3.51,67,9.2882,-2.4837,-11.2065,-0.1926,0.0489,0.0514,93,3.153,60,0.3415,2.3331,-19.2155,-0.1002,0.2883,-0.4365,63
3.562,68,9.3376,-2.3266,-11.3565,-0.0047,0.0549,0.0202,93,3.205,61,0.4664,1.8697,-19.7152,0.2704,-0.0027,-0.036,63
3.614,69,9.3258,-2.2544,-11.2568,-0.0601,0.0571,0.0167,93,3.256,62,0.5137,2.6097,-19.4792,-0.0826,-0.1255,0.4427,63
3.666,70,9.2865,-2.2599,-11.2569,-0.0177,0.0266,0.0028,93,3.308,63,0.2781,2.8809,-19.1211,-0.3994,-0.2343,0.7314,63
3.717,71,9.2334,-2.3866,-11.3509,0.0447,0.0204,-0.0136,93,3.36,64,0.364,3.6758,-18.6779,-0.254,-0.3518,0.8649,63
3.769,72,9.2468,-2.145,-11.2477,0.2021,-0.0182,-0.0243,93,3.412,65,0.5973,4.5974,-18.2388,-0.025,-0.3782,0.8386,63
3.821,73,9.314,-2.0598,-11.3222,0.1429,-0.0456,-0.0108,93,3.464,66,0.7329,5.1201,-18.038,-0.0834,-0.3295,0.7507,63
3.873,74,9.3152,-2.1255,-11.3818,0.1399,-0.0462,-0.0146,93,3.515,67,0.8606,4.9916,-18.1187,-0.1719,-0.223,0.6121,63
3.925,75,9.3159,-1.9565,-11.375,0.1023,-0.0355,-0.0098,93,3.567,68,0.497,4.9747,-18.2789,-0.2164,-0.0756,0.4034,63
3.976,76,9.293,-1.9555,-11.4083,0.031,-0.0165,0.003,93,3.619,69,0.0451,4.5392,-18.4678,-0.2904,-0.0097,0.3083,63
4.028,77,9.2984,-2.1021,-11.336,-0.0122,-0.0009,0.007,93,3.671,70,0.0054,4.6998,-18.4768,-0.1253,-0.0275,0.1984,63
4.08,78,9.3211,-2.1133,-11.2621,0.0245,-0.0118,-0.0019,93,3.722,71,0.0288,4.625,-18.6221,-0.0857,-0.0408,0.114,63
4.132,79,9.3197,-2.0779,-11.2753,0.0141,-0.0087,-0.0062,93,3.774,72,0.026,4.5271,-18.6061,-0.1058,-0.0666,0.0748,63
4.184,80,9.3158,-2.0047,-11.2782,-0.015,-0.0038,-0.0067,93,3.826,73,0.2172,4.4652,-18.4905,-0.0709,-0.0971,0.0563,63
4.235,81,9.2924,-2.0381,-11.3238,-0.0457,-0.0003,-0.0044,93,3.878,74,0.3711,4.4562,-18.3158,-0.0027,-0.0749,-0.001,63
4.287,82,9.3004,-2.0952,-11.352,-0.0843,0.0205,0.0064,93,3.93,75,0.2737,4.3517,-18.2655,-0.0268,-0.0303,-0.0312,63
4.339,83,9.3169,-2.1009,-11.3512,-0.0698,0.0252,0.008,93,3.981,76,0.3368,4.4052,-18.2589,-0.0196,0.002,-0.0434,63
4.391,84,9.2703,-2.2342,-11.3268,0.0003,0.0073,-0.0005,93,4.033,77,0.4133,4.5187,-18.3012,0.0695,0.0285,-0.0727,63
4.442,85,9.2494,-2.0722,-11.2506,0.0567,-0.01,-0.0046,93,4.085,78,0.3226,4.5901,-18.3822,0.0235,0.0569,-0.0881,63
4.494,86,9.2937,-2.0125,-11.3617,0.0529,-0.0217,-0.0005,93,4.136,79,0.1994,4.4472,-18.4771,-0.0473,0.0639,-0.0837,63
4.546,87,9.3652,-1.9184,-11.3488,-0.0583,0.0386,0.0325,93,4.188,80,0.1505,4.53,-18.4894,-0.0069,0.0457,-0.0815,63
4.598,88,9.3123,-1.9818,-11.324,-0.1238,0.0534,0.0525,93,4.24,81,0.1713,4.5284,-18.6434,-0.0233,0.0211,-0.0667,63
4.65,89,9.2726,-2.1285,-11.3326,-0.179,0.0509,0.0509,93,4.292,82,0.2218,4.5139,-18.7459,-0.0575,-0.01,-0.0669,63
4.701,90,9.2698,-2.1897,-11.3281,-0.1497,0.0359,0.0313,93,4.344,83,0.2085,4.4478,-18.6108,-0.0466,-0.0488,-0.0705,63
4.753,91,9.2348,-2.2783,-11.3127,-0.0738,0.0073,0.0107,93,4.395,84,0.0974,4.4029,-18.2502,-0.0393,-0.0582,-0.0624,63
4.805,92,9.3028,-2.1876,-11.2617,-0.0316,-0.0269,-0.0169,93,4.447,85,0.0823,4.442,-18.0263,-0.008,-0.0334,-0.0498,63
4.857,93,9.3194,-2.2996,-11.2844,0.0212,-0.0529,-0.0266,93,4.499,86,0.2174,4.6629,-18.1488,-0.0285,0.0147,-0.0358,63
4.909,94,9.3536,-2.1185,-11.2915,0.046,-0.0469,-0.0254,93,4.551,87,0.2052,4.759,-18.4237,-0.0802,0.0433,-0.0476,63
4.96,95,9.3767,-2.1027,-11.2703,0.0715,-0.0369,-0.0203,93,4.603,88,0.1201,4.7317,-18.5754,-0.0903,0.0388,-0.1014,63
5.012,96,9.37,-2.026,-11.3048,0.0592,-0.0387,-0.0101,93,4.654,89,0.0045,4.5916,-18.5415,-0.0534,0.01,-0.1302,63
5.064,97,9.3772,-1.9979,-11.323,0.0357,-0.0325,-0.0035,93,4.706,90,-0.1869,4.6076,-18.2646,0.0207,-0.0122,-0.1333,63
5.116,98,9.4338,-1.9515,-11.2563,-0.0599,-0.013,0.0167,93,4.758,91,-0.2146,4.5549,-18.1089,0.0347,-0.019,-0.0934,63
5.168,99,9.3431,-2.0902,-11.3047,-0.1102,-0.0125,0.0314,93,4.81,92,0.0439,4.6017,-18.2428,0.0364,-0.001,-0.074,63
5.219,100,9.2497,-2.2029,-11.3722,-0.0962,-0.0226,0.0202,93,4.861,93,0.1816,4.6549,-18.3635,0.0297,0.0177,-0.0868,63
5.271,101,9.3287,-2.0557,-11.399,-0.0236,-0.0291,0.0006,93,4.913,94,0.1404,4.6118,-18.376,-0.0021,0.03,-0.0978,63
5.323,102,9.3099,-2.1146,-11.4328,-0.0195,-0.0297,-0.0025,93,4.965,95,-0.0007,4.4735,-18.3415,-0.0098,0.038,-0.0934,63
5.375,103,9.2944,-2.1291,-11.4353,0.0096,-0.0246,-0.0067,93,5.017,96,-0.0931,4.4576,-18.3281,-0.0018,0.0303,-0.0708,63
5.426,104,9.228,-2.2799,-11.4246,0.0841,-0.0222,-0.014,93,5.069,97,-0.1023,4.5267,-18.3855,0.0598,0.0166,-0.0615,63
5.478,105,9.2987,-1.9689,-11.393,0.1148,-0.0249,-0.0193,93,5.12,98,-0.1143,4.5721,-18.405,0.0181,-0.0021,-0.0319,63
5.53,106,9.3058,-1.9714,-11.4294,0.0905,-0.0244,-0.0133,93,5.172,99,-0.0971,4.5571,-18.3726,0.0012,-0.0164,-0.0198,63
5.582,107,9.3257,-1.9727,-11.4336,0.0565,-0.0123,-0.0059,93,5.224,100,-0.0344,4.5896,-18.2978,0.0499,-0.0149,-0.0256,63
5.634,108,9.2815,-2.0352,-11.445,0.0521,-0.0053,-0.0023,93,5.276,101,-0.0025,4.6455,-18.3122,0.0419,0.001,-0.0212,63
5.685,109,9.2464,-2.0763,-11.3876,0.0657,-0.014,-0.0032,93,5.327,102,0.0114,4.5922,-18.4266,0.0858,0.0066,-0.0377,63
5.737,110,9.2791,-2.0378,-11.418,0.0583,-0.0305,-0.0022,93,5.379,103,-0.048,4.5119,-18.563,0.1671,-0.0023,-0.0805,63
5.789,111,9.2855,-2.0136,-11.4443,0.0273,-0.0349,0.0004,93,5.431,104,-0.1998,4.435,-18.599,0.1312,-0.0159,-0.1009,63
5.841,112,9.2674,-2.0328,-11.486,0.0045,-0.0274,0.0028,93,5.483,105,-0.3506,4.3165,-18.4667,0.0466,-0.0332,-0.0666,63
5.892,113,9.2665,-2.0448,-11.4787,0.0022,-0.0235,-0.0012,93,5.535,106,-0.3193,4.1804,-18.3209,0.0159,-0.0291,-0.0335,63
5.944,114,9.3057,-2.0146,-11.4766,0.0012,-0.0207,-0.0031,93,5.586,107,-0.2473,4.2577,-18.3817,0.0518,-0.0067,-0.0122,63
5.996,115,9.3302,-2.0014,-11.4865,-0.004,-0.0179,-0.0052,93,5.638,108,-0.2626,4.3183,-18.5131,0.038,0.0122,-0.0048,63
6.048,116,9.2806,-2.0583,-11.539,0.0057,-0.0111,-0.0074,93,5.69,109,-0.2582,4.3733,-18.559,0.026,0.0101,-0.0073,63
6.1,117,9.2868,-2.0728,-11.5156,0.02,-0.0053,-0.0099,93,5.742,110,-0.1991,4.4764,-18.4999,0.0506,0.0069,-0.0267,63
6.151,118,9.3032,-2.0108,-11.5202,0.0408,0.0021,-0.0104,93,5.793,111,-0.1446,4.4808,-18.5069,-0.0084,0.0152,-0.042,63
6.203,119,9.3237,-1.981,-11.5162,0.0274,0.0042,-0.0069,93,5.845,112,-0.1117,4.4064,-18.4869,0.0013,0.0223,-0.0782,63
6.255,120,9.3371,-1.9175,-11.512,-0.0038,0.0124,-0.0026,93,5.897,113,-0.1361,4.3759,-18.4934,0.0083,0.0354,-0.102,63
6.307,121,9.2963,-2.0062,-11.4907,0.0157,0.0026,-0.0052,93,5.949,114,-0.1574,4.3348,-18.4612,0.0074,0.0487,-0.1088,63
6.359,122,9.3075,-2.0261,-11.4542,0.0341,0.002,-0.0082,93,6.001,115,-0.1687,4.2951,-18.4192,-0.002,0.069,-0.1057,63
6.411,123,9.3652,-1.9194,-11.4753,0.0287,-0.0024,-0.0096,93,6.053,116,-0.1707,4.2312,-18.5154,-0.0104,0.0877,-0.0898,63
6.462,124,9.3451,-1.9813,-11.5195,0.0053,0.0096,-0.0071,93,6.104,117,-0.1659,4.2859,-18.7567,-0.0174,0.0764,-0.0699,63
6.514,125,9.3022,-2.0643,-11.4272,-0.0305,0.018,-0.0002,93,6.156,118,-0.2148,4.3037,-18.8627,-0.006,0.0288,-0.0585,63
6.566,126,9.2907,-2.0746,-11.4374,0.005,0.0099,-0.0014,93,6.208,119,-0.3471,4.2142,-18.6435,-0.042,-0.0126,-0.0198,63
6.618,127,9.352,-2.0188,-11.4072,0.0166,0.0067,-0.0052,93,6.26,120,-0.3788,4.1146,-18.4081,-0.0509,-0.0185,0.017,63
6.669,128,9.3525,-1.9767,-11.4113,0.0197,-0.0008,-0.0019,93,6.312,121,-0.2561,4.1853,-18.4216,0.0156,-0.0116,0.0511,63
6.721,129,9.3554,-1.9766,-11.4759,-0.018,0.0224,0.0076,93,6.363,122,-0.1682,4.3529,-18.5002,0.008,-0.0072,0.0742,63
6.773,130,9.3029,-1.9935,-11.4525,-0.045,0.0347,0.0102,93,6.415,123,-0.1384,4.4331,-18.5252,-0.0043,-0.0083,0.0717,63
6.825,131,9.3,-2.0536,-11.4473,-0.0316,0.0263,0.0066,93,6.467,124,-0.1114,4.4725,-18.5038,0.0193,-0.0135,0.0505,63
6.877,132,9.3187,-2.0427,-11.4356,-0.0273,0.0182,0.0022,93,6.519,125,-0.1096,4.4994,-18.5013,-0.022,-0.0069,0.029,63
6.928,133,9.3109,-2.1786,-11.4336,0.0147,0.002,-0.0076,93,6.571,126,-0.1455,4.4032,-18.4968,-0.0188,-0.0024,0.0091,63
6.98,134,9.3237,-2.1311,-11.459,0.105,0.0092,-0.0163,93,6.622,127,-0.1182,4.3793,-18.4089,0.0011,0.0088,-0.0053,63
7.032,135,9.3884,-2.0286,-11.3108,0.1189,0.0117,-0.0208,93,6.674,128,-0.1288,4.3219,-18.3565,-0.0494,0.0337,0.0081,63
7.084,136,9.3911,-1.967,-11.3507,0.145,0.0034,-0.0176,93,6.726,129,-0.1047,4.3026,-18.4219,-0.0288,0.0472,0.0209,63
7.135,137,9.414,-1.9659,-11.3102,0.1081,0.012,-0.0112,93,6.778,130,-0.0582,4.3673,-18.5573,-0.0245,0.0487,0.0228,63
7.187,138,9.4061,-1.9522,-11.2552,0.0946,0.0135,-0.0071,93,6.83,131,-0.0188,4.3405,-18.603,-0.0116,0.0292,0.0323,63
7.239,139,9.3955,-1.9589,-11.2065,0.0668,0.0116,-0.005,93,6.881,132,-0.0017,4.345,-18.5023,-0.0094,0.0161,0.0441,63
7.291,140,9.3141,-2.0436,-11.2335,0.0495,0.0083,-0.0032,93,6.933,133,-0.0124,4.3308,-18.3802,-0.0241,0.0201,0.0646,63
7.342,141,9.3479,-2.0745,-11.2428,0.0862,-0.0069,-0.0051,93,6.985,134,-0.008,4.3377,-18.3938,-0.0031,0.0325,0.079,63
7.394,142,9.3488,-2.0945,-11.2383,0.1242,-0.0152,-0.0059,93,7.037,135,-0.0374,4.4272,-18.4823,-0.0105,0.0376,0.0889,63
7.446,143,9.3451,-1.9666,-11.2375,0.1079,-0.0153,-0.004,93,7.089,136,-0.0309,4.4779,-18.5929,-0.0151,0.0232,0.0854,63
7.498,144,9.3563,-1.6545,-11.2839,-0.0433,0.0567,0.025,93,7.14,137,-0.0932,4.5416,-18.6705,-0.0276,-0.0049,0.0617,63
7.55,145,9.2477,-2.0201,-11.3069,-0.1213,0.0558,0.0427,93,7.192,138,-0.2475,4.5368,-18.6498,-0.0336,-0.0417,0.0429,63
7.602,146,9.2406,-2.1916,-11.3009,-0.0765,0.0324,0.0217,93,7.244,139,-0.1854,4.5591,-18.4702,0.0078,-0.0775,0.0246,63
7.654,147,9.2335,-2.1773,-11.3019,0.0259,0.0133,0.0004,93,7.296,140,0.0041,4.6428,-18.305,0.0391,-0.0672,-0.009,63
7.705,148,9.2875,-1.9941,-11.295,0.0667,-0.0044,-0.0119,93,7.348,141,0.1804,4.6957,-18.2651,0.0154,-0.0301,-0.0446,63
7.757,149,9.3805,-1.8649,-11.2692,0.0237,0.0222,-0.0021,93,7.399,142,0.2173,4.6718,-18.265,-0.0201,0.0137,-0.0914,63
7.809,150,9.3959,-1.868,-11.1604,-0.1253,0.0653,0.0251,93,7.451,143,0.1382,4.5857,-18.2679,-0.0223,0.0574,-0.1412,63
7.861,151,9.3423,-2.1259,-11.2052,-0.113,0.0619,0.0273,93,7.503,144,0.0562,4.5231,-18.3099,-0.0395,0.0886,-0.1616,63
7.913,152,9.3355,-2.1406,-11.1331,-0.0803,0.053,0.0145,93,7.555,145,0.0641,4.4713,-18.4691,-0.0357,0.103,-0.1723,63
7.964,153,9.3112,-2.1262,-11.144,-0.0155,0.0148,-0.0016,93,7.607,146,0.0174,4.4634,-18.5086,-0.0079,0.0959,-0.1709,63
8.016,154,9.3332,-2.1119,-11.1952,0.0113,-0.0027,-0.0125,93,7.658,147,-0.0316,4.3983,-18.4578,-0.0053,0.0801,-0.1358,63
8.068,155,9.4477,-1.951,-11.2037,0.0841,0.0087,-0.0284,93,7.71,148,0.0664,4.3537,-18.3908,-0.0038,0.0581,-0.0785,63
8.119,156,9.3555,-2.0831,-11.1914,0.1054,0.0324,-0.0287,93,7.762,149,0.122,4.2879,-18.4019,-0.003,0.0618,-0.0439,63
8.171,157,9.3482,-1.9904,-11.0141,0.0991,0.0451,-0.0247,93,7.814,150,0.0587,4.2087,-18.4643,-0.0446,0.0718,-0.0018,63
8.223,158,9.3618,-1.9592,-11.0207,0.1101,0.0347,-0.017,93,7.866,151,-0.0766,4.2189,-18.5194,-0.0154,0.0492,0.0574,63
8.275,159,9.3811,-1.8628,-11.0188,0.0456,0.0599,0.003,93,7.917,152,-0.1025,4.3435,-18.5447,0.0305,0.0091,0.109,63
8.327,160,9.4167,-1.9203,-10.9515,0.0077,0.0707,0.0179,93,7.969,153,0.0189,4.5398,-18.5108,0.0148,-0.034,0.1565,63
8.378,161,9.3664,-2.0729,-10.869,-0.0037,0.0592,0.0208,93,8.021,154,0.208,4.5544,-18.4327,-0.0304,-0.0653,0.1813,63
8.43,162,9.3555,-2.1488,-10.8328,0.0172,0.0252,0.0092,93,8.073,155,0.2884,4.5621,-18.3097,-0.0497,-0.0464,0.1518,63
8.482,163,9.4168,-2.0606,-10.8827,0.0444,0.0015,-0.0038,93,8.125,156,0.2903,4.4681,-18.327,-0.0745,-0.0166,0.1366,63
8.534,164,9.4626,-1.9246,-10.8902,0.0198,-0.0043,-0.0077,93,8.176,157,0.191,4.5439,-18.3434,-0.0311,-0.0016,0.1208,63
8.586,165,9.4445,-1.7439,-10.9413,-0.1087,0.0406,0.0268,93,8.228,158,0.0766,4.611,-18.4607,-0.0587,-0.0012,0.117,63
8.637,166,9.3492,-1.9446,-10.9023,-0.1805,0.0423,0.0414,93,8.28,159,-0.061,4.7206,-18.5603,-0.0808,-0.0277,0.1122,63
8.689,167,9.3447,-2.0895,-10.8875,-0.1688,0.0342,0.0362,93,8.332,160,-0.0827,4.7305,-18.5439,0.0005,-0.0764,0.0667,63
8.741,168,9.3716,-2.1059,-10.8623,-0.1472,0.02,0.0216,93,8.383,161,0.0858,4.6878,-18.3709,0.0173,-0.099,0.0263,63
8.793,169,9.3903,-2.0538,-10.8958,-0.0912,-0.0017,0.0042,93,8.435,162,0.273,4.7493,-18.139,0.0154,-0.0838,-0.0022,63
8.844,170,9.3599,-2.0705,-10.8883,-0.0839,-0.0068,-0.0057,93,8.487,163,0.3907,4.7358,-18.0219,0.0079,-0.0348,-0.0236,63
8.896,171,9.3666,-2.056,-10.9146,-0.0762,-0.0138,-0.0045,93,8.539,164,0.4811,4.7278,-18.079,-0.0151,0.0244,-0.0527,63
8.948,172,9.3657,-2.1067,-10.9374,-0.0656,-0.0139,-0.003,93,8.591,165,0.4859,4.6893,-18.2669,-0.0422,0.0776,-0.0893,63
9.0,173,9.4137,-2.0366,-10.9218,-0.0736,-0.0077,0.0024,93,8.642,166,0.3911,4.6903,-18.454,-0.0255,0.1054,-0.1357,63
9.052,174,9.3064,-1.9534,-10.9766,-0.1248,0.037,0.0276,93,8.694,167,0.1711,4.6213,-18.4385,-0.0032,0.1043,-0.163,63
9.104,175,9.3253,-2.0231,-10.9605,-0.174,0.0322,0.0328,93,8.746,168,0.0319,4.5616,-18.239,-0.0091,0.088,-0.1492,63
9.155,176,9.3157,-2.0747,-11.0214,-0.1552,0.0214,0.0198,93,8.797,169,0.1795,4.4921,-18.2413,-0.0089,0.0748,-0.1108,63
9.207,177,9.3342,-2.1257,-11.0431,-0.1494,0.0123,0.0114,93,8.849,170,0.4018,4.4931,-18.3773,0.0022,0.0728,-0.0846,63
9.259,178,9.3306,-2.1739,-11.0394,-0.0905,-0.0014,-0.0041,93,8.901,171,0.3661,4.4119,-18.4378,-0.0606,0.0726,-0.0539,63
9.311,179,9.3271,-2.3191,-11.0319,0.0046,-0.0163,-0.0276,93,8.953,172,0.2458,4.3499,-18.4436,-0.028,0.0492,-0.0069,63
9.363,180,9.4788,-1.9128,-10.967,0.1001,-0.0505,-0.0506,92,9.005,173,0.1528,4.3947,-18.4087,-0.0256,0.0154,0.0504,63
9.414,181,9.502,-1.9676,-10.9905,0.0685,-0.0612,-0.039,92,9.056,174,0.1676,4.4818,-18.408,-0.0211,-0.0248,0.1168,63
9.466,182,9.4562,-2.0677,-10.9858,0.0123,-0.0435,-0.0203,92,9.108,175,0.2546,4.6036,-18.4069,-0.0146,-0.0562,0.1482,63
9.518,183,9.4364,-2.0593,-11.0403,0.035,-0.0363,-0.0192,92,9.16,176,0.2654,4.7127,-18.3441,-0.0142,-0.0675,0.1524,63
9.57,184,9.3942,-2.0587,-11.0394,0.0388,-0.0377,-0.0148,92,9.212,177,0.2913,4.7752,-18.2424,-0.0072,-0.0661,0.1385,63
9.622,185,9.3723,-2.1177,-11.0262,0.0738,-0.0478,-0.0172,92,9.263,178,0.3418,4.8109,-18.1738,-0.004,-0.0484,0.1114,63
9.673,186,9.3883,-2.0254,-11.0305,0.0856,-0.0481,-0.0199,92,9.315,179,0.3999,4.8021,-18.1732,-0.0047,-0.022,0.0739,63
9.725,187,9.4293,-1.9691,-11.0382,0.0586,-0.0453,-0.0166,92,9.367,180,0.38,4.7871,-18.2179,-0.0343,-0.0008,0.0459,63
9.777,188,9.4267,-1.9461,-11.0818,0.0384,-0.0312,-0.0116,92,9.419,181,0.3264,4.7192,-18.2978,-0.046,0.0075,0.0339,63
9.829,189,9.406,-1.9947,-11.1083,0.0204,-0.0073,-0.0031,92,9.471,182,0.2292,4.7159,-18.3431,-0.0747,0.0009,0.032,63
9.881,190,9.3621,-2.0603,-11.0768,0.0167,0.0005,-0.0004,92,9.522,183,0.1299,4.6487,-18.3742,-0.0603,-0.0162,0.0235,63
9.932,191,9.3511,-2.0843,-11.0981,0.0638,-0.0089,-0.0061,92,9.574,184,0.2025,4.7466,-18.2926,0.0086,-0.0432,0.0132,63
9.984,192,9.3509,-2.0236,-11.1183,0.1048,-0.0189,-0.0096,92,9.626,185,0.3856,4.8115,-18.1074,0.0283,-0.0508,0.0141,63
10.036,193,9.3629,-1.9277,-11.1627,0.0893,-0.0237,-0.0064,92,9.678,186,0.4703,4.7991,-17.977,-0.0152,-0.02,0.0152,63
10.088,194,9.3847,-1.8591,-11.149,0.0257,-0.0205,-0.0024,92,9.729,187,0.4672,4.7429,-18.0215,-0.0314,0.0287,0.0141,63
10.139,195,9.348,-1.9898,-11.1367,-0.0367,-0.0255,0.0034,92,9.781,188,0.4419,4.7441,-18.1656,0.0126,0.0608,0.01,63
10.191,196,9.3446,-2.0443,-11.1964,-0.0393,-0.0275,0.0017,92,9.833,189,0.3146,4.7481,-18.3038,0.0172,0.0721,0.0029,63
10.243,197,9.3409,-2.0448,-11.1755,-0.0309,-0.0221,-0.001,92,9.885,190,0.2694,4.8046,-18.308,0.0191,0.0553,-0.0033,63
10.295,198,9.3447,-2.0481,-11.1627,-0.0133,-0.0287,-0.0007,92,9.937,191,0.3325,4.8548,-18.2666,0.0482,0.0319,-0.012,63
10.347,199,9.3432,-2.1053,-11.2054,-0.0023,-0.0388,-0.0048,92,9.988,192,0.3952,4.8956,-18.2188,0.0243,0.0215,-0.0205,63
10.398,200,9.365,-2.0359,-11.2332,0.0014,-0.0366,-0.0082,92,10.04,193,0.402,4.8036,-18.2198,-0.0071,0.0174,-0.0245,63
10.45,201,9.3574,-2.0181,-11.24,-0.001,-0.0292,-0.0048,92,10.092,194,0.4116,4.7099,-18.2734,-0.0044,0.0181,-0.0251,63
10.502,202,9.3493,-2.0115,-11.2261,-0.0069,-0.0201,-0.0023,92,10.144,195,0.4258,4.6768,-18.3244,0.005,0.0124,-0.0364,63
10.554,203,9.3563,-2.0034,-11.2292,-0.0066,-0.0144,-0.0021,92,10.195,196,0.4091,4.6698,-18.2986,0.0367,-0.0036,-0.0303,63
10.606,204,9.3512,-2.0278,-11.2167,-0.0097,-0.011,-0.0004,92,10.247,197,0.4191,4.7078,-18.1793,0.0486,-0.0128,-0.0239,63
10.658,205,9.3399,-1.9856,-11.2445,0.0008,-0.0124,-0.0005,92,10.299,198,0.5088,4.6755,-18.1418,0.039,-0.0047,-0.0112,63
10.709,206,9.3438,-1.975,-11.2425,-0.0071,-0.0141,-0.0007,92,10.351,199,0.6045,4.6373,-18.19,0.0493,0.0102,-0.0106,63
10.761,207,9.3717,-1.9558,-11.2365,-0.0109,-0.0201,0.0023,92,10.403,200,0.5788,4.6081,-18.3261,0.108,0.0168,-0.0322,63
10.813,208,9.3744,-1.8887,-11.2334,-0.0244,-0.0252,0.0077,92,10.455,201,0.4599,4.5416,-18.5916,0.2097,-0.01,-0.0559,63
10.865,209,9.3693,-2.0008,-11.2245,-0.0301,-0.0412,0.0028,92,10.506,202,0.2916,4.4805,-18.7032,0.2935,-0.077,-0.0725,63
10.917,210,9.3806,-1.9814,-11.2998,-0.0527,-0.0428,-0.0131,92,10.558,203,0.1334,4.346,-18.5203,0.2032,-0.127,-0.0487,63
10.968,211,9.3839,-1.9677,-11.4163,-0.0873,-0.0199,-0.021,92,10.61,204,0.1022,4.1824,-18.3039,0.079,-0.1316,-0.0004,63
11.02,212,9.356,-1.9125,-11.5181,-0.1085,0.029,-0.0205,92,10.662,205,0.1715,4.1809,-18.2341,0.1344,-0.1117,0.0356,63
11.072,213,9.3762,-1.9929,-11.4847,-0.1339,0.0801,-0.0223,92,10.714,206,0.2487,4.2875,-18.2696,0.1015,-0.072,0.068,63
11.124,214,9.3065,-2.032,-11.3691,-0.125,0.1139,-0.0405,92,10.765,207,0.2828,4.3341,-18.4608,0.012,-0.0345,0.0701,63
11.176,215,9.3157,-1.8988,-11.2778,-0.1125,0.1199,-0.0626,92,10.817,208,0.2093,4.3324,-18.564,0.0297,-0.026,0.0397,63
11.227,216,9.3397,-1.9118,-11.2233,-0.0837,0.1052,-0.071,92,10.869,209,0.1102,4.3255,-18.5074,-0.006,-0.0198,0.0148,63
