right_leg_timestamp,right_leg_index,right_leg_accel_x,right_leg_accel_y,right_leg_accel_z,right_leg_gyro_x,right_leg_gyro_y,right_leg_gyro_z,right_leg_battery_percentage,left_leg_timestamp,left_leg_index,left_leg_accel_x,left_leg_accel_y,left_leg_accel_z,left_leg_gyro_x,left_leg_gyro_y,left_leg_gyro_z,left_leg_battery_percentage
0.023,0,9.0464,-2.6069,-11.1194,-0.068,-0.0236,-0.0093,89,0.047,0,8.111,-0.0578,-14.4673,0.0105,-2.1171,0.808,52
0.075,1,9.1036,-2.6744,-11.31,-0.0233,-0.1094,0.1152,89,0.099,1,7.2758,-0.0683,-15.2883,0.0168,-2.0966,0.524,52
0.127,2,9.0881,-3.0994,-11.4755,0.0047,-0.1499,0.1648,89,0.151,2,6.8525,-0.4446,-15.7877,0.0465,-1.9406,0.2181,52
0.178,3,9.027,-2.9778,-11.6701,0.0419,-0.2036,0.1919,89,0.203,3,6.2302,-0.7176,-15.8271,0.2474,-1.7082,-0.0365,52
0.23,4,8.9097,-3.0528,-11.8112,0.0271,-0.2187,0.2531,89,0.255,4,5.2164,-1.0826,-16.0495,0.3554,-1.4128,-0.1675,52
0.282,5,8.8852,-3.3452,-11.9363,0.0713,-0.2327,0.2763,89,0.306,5,4.2123,-1.3923,-16.357,0.2015,-1.1164,-0.227,52
0.334,6,8.8154,-3.4641,-12.0181,0.0697,-0.2018,0.217,89,0.358,6,3.5003,-1.7359,-16.8057,0.0778,-0.8103,-0.2268,52
0.385,7,8.7774,-3.5191,-12.1018,0.0738,-0.1913,0.1628,89,0.41,7,3.1787,-1.8228,-17.3785,0.0835,-0.5198,-0.1627,52
0.437,8,8.7371,-3.5196,-12.1402,0.0614,-0.1495,0.12,89,0.462,8,2.8686,-1.9568,-18.0674,0.0581,-0.3134,-0.1293,52
0.489,9,8.6897,-3.5296,-12.1777,0.0473,-0.1274,0.1007,89,0.513,9,2.654,-1.8082,-18.5725,0.0817,-0.2044,-0.098,52
0.541,10,8.6805,-3.5154,-12.1603,0.0188,-0.1226,0.0951,89,0.565,10,2.3169,-1.7664,-18.7038,0.1373,-0.1528,-0.0299,52
0.593,11,8.6338,-3.6163,-12.2735,-0.0057,-0.1165,0.0601,89,0.617,11,2.1034,-1.6712,-18.7142,0.1115,-0.1386,0.016,52
0.644,12,8.6835,-3.7267,-12.4437,-0.0156,-0.1102,0.0824,89,0.669,12,2.0637,-1.8161,-18.7296,0.0254,-0.1348,0.0401,52
0.696,13,8.6719,-3.7325,-12.3899,-0.033,-0.1157,0.0682,89,0.72,13,2.1063,-2.1399,-18.8015,0.0078,-0.0981,0.0047,52
0.748,14,8.6528,-3.6352,-12.4006,-0.0453,-0.1202,0.0689,89,0.772,14,2.1249,-2.3813,-18.87,0.0539,-0.0422,-0.0423,52
0.8,15,8.6017,-3.6111,-12.4193,-0.0396,-0.1218,0.1066,89,0.824,15,2.1359,-2.5506,-18.9113,0.1492,0.0143,-0.0726,52
0.852,16,8.5636,-3.7273,-12.5009,-0.064,-0.1323,0.169,89,0.876,16,2.3436,-2.5905,-18.9962,0.2088,0.0584,-0.0993,52
0.903,17,8.4674,-3.785,-12.6355,-0.0505,-0.1318,0.1674,89,0.928,17,2.4559,-2.6831,-19.0236,0.1546,0.0689,-0.0733,52
0.955,18,8.4046,-3.8282,-12.6853,-0.0499,-0.1162,0.139,89,0.979,18,2.4,-2.6684,-18.9586,0.1091,0.0733,-0.0052,52
1.007,19,8.2145,-3.5173,-12.6374,-0.1139,-0.1876,0.159,89,1.031,19,2.4677,-2.5979,-18.8365,0.0273,0.1026,0.0892,52
1.059,20,8.21,-3.6681,-12.8212,-0.1316,-0.1858,0.1378,89,1.083,20,2.5269,-2.4343,-18.7312,0.0187,0.155,0.1273,52
1.111,21,8.1961,-3.7773,-12.9588,-0.1142,-0.1219,0.0906,89,1.135,21,2.467,-2.2575,-18.7004,0.0602,0.2059,0.0721,52
1.162,22,8.1523,-3.8022,-13.048,-0.1361,-0.0861,0.071,89,1.187,22,2.3244,-2.1548,-18.6481,0.1094,0.2539,0.0095,52
1.214,23,8.1325,-3.6753,-13.2721,-0.1684,-0.0805,0.0486,89,1.238,23,2.2583,-2.0745,-18.6443,0.1364,0.2952,-0.0552,52
1.266,24,8.128,-3.7916,-13.2333,-0.1549,-0.0358,0.0256,89,1.29,24,2.4317,-2.1006,-18.7488,0.0705,0.2991,-0.0937,52
1.318,25,8.1031,-3.8132,-13.2657,-0.1263,0.0015,0.0213,89,1.342,25,2.7435,-2.2149,-18.9124,0.0204,0.2577,-0.1045,52
1.37,26,8.1716,-3.7636,-13.1829,-0.0804,0.047,-0.0058,89,1.394,26,2.997,-2.4249,-18.9918,0.0534,0.196,-0.1259,52
1.421,27,8.1871,-3.7769,-13.1551,-0.0449,0.0379,0.0095,89,1.445,27,3.1644,-2.5923,-18.9034,0.1054,0.1119,-0.1519,52
1.473,28,8.193,-3.7911,-13.1478,-0.023,0.0343,0.0222,89,1.497,28,2.9793,-2.6224,-18.8331,0.17,0.0242,-0.1722,52
1.525,29,8.2228,-3.7265,-13.074,-0.0139,0.0114,0.0288,89,1.549,29,2.5821,-2.4528,-18.8554,0.1971,-0.0419,-0.1786,52
1.577,30,8.2369,-3.7443,-13.1091,-0.0485,-0.0388,0.046,89,1.601,30,2.4757,-2.3819,-18.9129,0.1342,-0.1139,-0.1454,52
1.629,31,8.1369,-3.968,-13.2682,-0.0335,-0.0106,0.0253,89,1.653,31,2.6661,-2.364,-18.9328,0.1641,-0.1639,-0.129,52
1.68,32,8.2091,-3.8962,-13.1816,0.0035,0.0857,-0.0706,89,1.704,32,2.8836,-2.3494,-18.8125,0.1771,-0.2092,-0.1603,52
1.732,33,8.2378,-3.8597,-13.1516,0.0286,0.0689,-0.0364,89,1.756,33,3.0475,-2.42,-18.5933,0.154,-0.2264,-0.1965,52
1.784,34,8.2099,-3.8656,-13.1567,0.0138,0.1105,-0.0626,89,1.808,34,3.0655,-2.5189,-18.3386,0.1543,-0.1951,-0.2272,52
1.836,35,8.2259,-3.8093,-13.0865,0.0219,0.0621,-0.0474,89,1.86,35,3.0529,-2.6271,-18.1351,0.1661,-0.1162,-0.2706,52
1.887,36,8.2683,-3.8303,-13.0636,0.017,0.0258,-0.0293,89,1.912,36,3.1312,-2.7066,-18.0979,0.2081,0.0031,-0.3244,52
1.939,37,8.2695,-3.8091,-13.0477,0.0395,0.0184,-0.0573,89,1.963,37,3.1647,-2.8483,-18.193,0.1877,0.1033,-0.3625,52
1.991,38,8.2907,-3.7407,-12.9821,0.0389,0.0269,-0.0562,89,2.015,38,3.2211,-2.9661,-18.3748,0.1704,0.163,-0.3678,52
2.043,39,8.3003,-3.7594,-12.987,0.014,0.0106,-0.022,89,2.067,39,3.2704,-3.0456,-18.5617,0.1442,0.1634,-0.3135,52
2.095,40,8.3174,-3.7746,-13.0164,0.0091,0.0027,-0.0161,89,2.119,40,3.2062,-3.1092,-18.6591,0.1173,0.121,-0.229,52
2.146,41,8.347,-3.7836,-12.9922,0.0011,0.0121,0.0006,89,2.17,41,3.1194,-3.0569,-18.6748,0.093,0.0676,-0.143,52
2.198,42,8.347,-3.7622,-12.9484,-0.0097,0.0172,0.0195,89,2.222,42,3.1285,-2.9586,-18.5878,0.0913,0.0321,-0.0714,52
2.25,43,8.3643,-3.803,-12.9755,-0.0134,0.0223,0.0203,89,2.274,43,3.2542,-2.82,-18.5045,0.0699,0.0045,-0.0385,52
2.302,44,8.3316,-3.8065,-12.9606,-0.0029,0.0367,0.0081,89,2.326,44,3.439,-2.8162,-18.4829,0.0698,-0.0095,-0.0328,52
2.354,45,8.3081,-3.8145,-12.9523,0.006,0.029,0.0116,89,2.377,45,3.5587,-2.9035,-18.3069,0.1218,-0.0007,-0.0369,52
2.406,46,8.3218,-3.8009,-12.9135,0.0087,0.022,0.0178,89,2.429,46,3.4776,-3.0355,-18.2146,0.1239,0.0051,-0.0446,52
2.457,47,8.3144,-3.7957,-12.9189,0.0052,-0.0043,0.0339,89,2.481,47,3.3378,-3.112,-18.2377,0.1072,-0.0036,-0.03,52
2.509,48,8.3581,-3.7436,-12.8498,-0.0073,-0.026,0.0385,89,2.533,48,3.2447,-3.0507,-18.2973,0.0674,-0.0117,0.0089,52
2.561,49,8.2843,-3.8802,-12.9601,-0.0223,-0.0469,0.0441,89,2.585,49,3.3057,-2.9885,-18.3569,0.0085,-0.0244,0.0451,52
2.613,50,8.2136,-3.9848,-13.0421,-0.0269,-0.0187,0.0243,89,2.636,50,3.3302,-2.9714,-18.3973,0.0059,-0.04,0.0474,52
2.665,51,8.2543,-3.8726,-12.9843,0.0017,0.0122,-0.024,89,2.688,51,3.3376,-2.9647,-18.4079,0.0128,-0.0668,0.0136,52
2.716,52,8.2637,-3.8554,-12.9719,0.0173,0.0044,-0.0215,89,2.74,52,3.3296,-2.9777,-18.4024,0.0257,-0.0891,-0.0102,52
2.768,53,8.2971,-3.8313,-12.9327,0.0188,-0.0023,-0.0246,89,2.792,53,3.2497,-3.0638,-18.3819,0.0349,-0.106,-0.0186,52
2.82,54,8.3078,-3.8019,-12.9357,0.0207,-0.0116,-0.0115,89,2.843,54,3.1712,-3.1602,-18.3182,0.0387,-0.1106,-0.0229,52
2.872,55,8.2993,-3.824,-12.9613,0.009,-0.0165,0.0046,89,2.895,55,3.1461,-3.1449,-18.3361,-0.0142,-0.1102,-0.015,52
2.924,56,8.3025,-3.8375,-12.979,0.009,-0.004,-0.0071,89,2.947,56,3.2284,-3.0868,-18.6491,-0.1517,-0.1497,-0.0072,52
2.975,57,8.3468,-3.8006,-12.9245,0.0083,0.0149,-0.0247,89,2.999,57,3.0432,-3.0952,-18.7472,-0.0997,-0.1989,0.0299,52
3.027,58,8.3525,-3.7829,-12.9214,0.0031,0.0069,-0.0142,89,3.051,58,2.7803,-3.0206,-18.7071,-0.0687,-0.236,0.0533,52
3.079,59,8.3562,-3.8145,-12.9615,0.0017,0.0069,-0.0123,89,3.103,59,2.6189,-3.071,-18.6452,-0.0704,-0.2598,0.0555,52
3.131,60,8.3373,-3.8066,-12.9439,0.0093,0.0268,-0.0165,89,3.154,60,2.5211,-3.0968,-18.5091,-0.0192,-0.2405,0.0524,52
3.182,61,8.3386,-3.7932,-12.9196,0.0139,0.0259,-0.0149,89,3.206,61,2.4611,-3.055,-18.4498,-0.0033,-0.2013,0.044,52
3.234,62,8.3582,-3.7589,-12.8678,0.0028,0.0261,-0.0064,89,3.258,62,2.4179,-2.9691,-18.5409,-0.0216,-0.1636,0.0529,52
3.286,63,8.3493,-3.7599,-12.8794,-0.0253,0.0051,0.0255,89,3.31,63,2.2118,-2.9095,-18.623,-0.0695,-0.1376,0.0872,52
3.338,64,8.3723,-3.8307,-12.925,-0.0387,-0.006,0.0348,89,3.361,64,2.1045,-2.9495,-18.7535,-0.127,-0.129,0.121,52
3.39,65,8.3326,-3.8753,-12.979,-0.0386,-0.0117,0.0391,89,3.413,65,2.1426,-3.0311,-18.8746,-0.1445,-0.1363,0.1532,52
3.441,66,8.332,-3.8332,-12.9255,-0.0216,0.0016,0.0189,89,3.465,66,2.0974,-3.075,-18.8233,-0.1014,-0.1438,0.162,52
3.493,67,8.3258,-3.8358,-12.9311,-0.0227,-0.0034,0.0287,89,3.517,67,2.0777,-3.0477,-18.7049,-0.0809,-0.1247,0.1562,52
3.545,68,8.3251,-3.8153,-12.9183,-0.0339,-0.0047,0.0258,89,3.568,68,2.1607,-3.031,-18.6572,-0.0847,-0.0865,0.1556,52
3.597,69,8.2977,-3.8529,-12.9499,-0.0242,-0.0204,0.0248,89,3.62,69,2.1618,-2.9726,-18.7072,-0.0934,-0.0646,0.1665,52
3.649,70,8.3165,-3.8537,-12.9349,-0.0426,-0.039,0.0348,89,3.672,70,1.9704,-2.8604,-18.7635,-0.0979,-0.0507,0.1905,52
3.701,71,8.2914,-3.89,-13.0258,-0.0641,-0.0543,0.0374,89,3.724,71,1.7955,-2.7541,-18.7526,-0.1199,-0.0419,0.2169,52
3.752,72,8.2374,-3.8572,-13.1153,-0.0762,-0.0445,0.0285,89,3.776,72,1.6103,-2.5486,-18.8135,-0.1215,-0.0325,0.2093,52
3.804,73,8.1497,-3.9657,-13.1303,-0.0681,-0.0421,0.0198,89,3.827,73,1.4215,-2.4477,-18.9145,-0.1062,-0.0226,0.1588,52
3.856,74,8.1333,-3.9897,-13.1623,-0.0444,-0.0129,0.0077,89,3.879,74,1.4591,-2.277,-19.047,-0.0411,-0.0123,0.0946,52
3.908,75,8.0449,-4.06,-13.2498,-0.0092,0.0227,-0.0244,89,3.931,75,1.6428,-2.3694,-19.2273,-0.0804,-0.0218,0.0288,52
3.959,76,8.2154,-3.8649,-13.1682,-0.003,0.1281,-0.141,89,3.983,76,1.6556,-2.5513,-19.2901,-0.0485,-0.0394,-0.0499,52
4.011,77,8.2713,-3.8153,-13.0756,0.0333,0.093,-0.1365,89,4.034,77,1.601,-2.6922,-19.1534,0.0093,-0.0516,-0.1081,52
4.063,78,8.3323,-3.7011,-12.8169,0.0491,0.0757,-0.1616,89,4.086,78,1.5674,-2.7899,-19.026,0.0234,-0.0401,-0.1189,52
4.115,79,8.3484,-3.7114,-12.8442,0.011,0.0468,-0.0952,89,4.138,79,1.6456,-2.8833,-19.0442,0.0026,-0.0226,-0.0738,52
4.167,80,8.3813,-3.6481,-12.8504,-0.0109,-0.009,-0.037,89,4.19,80,1.6522,-3.0071,-19.0845,0.0096,-0.0045,-0.0027,52
4.218,81,8.4001,-3.6283,-12.9102,-0.0164,-0.0317,-0.0166,89,4.241,81,1.6869,-2.997,-19.094,0.0265,-0.0118,0.0675,52
4.27,82,8.3874,-3.6106,-12.9509,-0.0173,-0.0267,0.0044,89,4.293,82,1.6077,-2.9292,-19.085,0.0079,-0.0228,0.1461,52
4.322,83,8.3787,-3.6267,-12.9906,-0.0126,-0.0236,0.0266,89,4.345,83,1.4818,-2.8057,-19.0099,0.0041,-0.0251,0.1997,52
4.374,84,8.3522,-3.6286,-13.0338,-0.0015,-0.0158,0.039,89,4.397,84,1.4522,-2.7015,-18.9587,0.0065,-0.0036,0.2006,52
4.426,85,8.3567,-3.6507,-13.0593,-0.0095,-0.0008,0.05,89,4.449,85,1.4622,-2.5509,-18.8422,0.0046,0.0073,0.1543,52
4.477,86,8.3313,-3.6649,-13.0406,-0.0047,0.0097,0.0475,89,4.501,86,1.3081,-2.2812,-18.9801,-0.0301,0.0026,0.0804,52
4.529,87,8.3562,-3.6286,-12.9936,-0.0081,0.0124,0.0437,89,4.552,87,1.1439,-2.214,-19.1309,-0.0969,-0.0095,0.0228,52
4.581,88,8.3455,-3.6693,-13.0316,-0.0086,0.011,0.0474,89,4.604,88,1.304,-2.359,-19.2045,-0.0422,-0.0153,-0.0765,52
4.633,89,8.2069,-3.8385,-13.2149,0.0189,0.0572,-0.0037,89,4.656,89,1.5903,-2.4561,-19.2957,-0.0162,-0.0142,-0.2056,52
4.684,90,8.332,-3.6159,-12.9422,0.0375,0.2262,-0.1379,89,4.708,90,1.7224,-2.7841,-19.2934,-0.0291,-0.0191,-0.2559,52
4.736,91,8.433,-3.506,-12.7912,0.0436,0.1095,-0.1977,89,4.759,91,1.7511,-2.9265,-19.1431,0.0065,-0.0327,-0.2576,52
4.788,92,8.4737,-3.3689,-12.7047,-0.0255,-0.0035,-0.1639,89,4.811,92,1.6661,-2.8836,-18.9364,0.012,-0.0406,-0.2142,52
4.84,93,8.5115,-3.3699,-12.8269,-0.0493,-0.1205,-0.0509,89,4.863,93,1.5689,-2.6935,-18.9392,-0.0093,-0.0097,-0.1197,52
4.892,94,8.4879,-3.4297,-13.0002,-0.0372,-0.1683,0.0185,89,4.915,94,1.5998,-2.5899,-19.0355,-0.0282,0.0272,-0.026,52
4.944,95,8.4185,-3.4973,-13.1278,-0.0667,-0.1305,0.0362,89,4.967,95,1.7188,-2.5748,-19.2048,-0.0454,0.027,0.0301,52
4.995,96,8.3125,-3.5223,-13.1386,-0.0575,-0.0384,0.0246,89,5.018,96,1.6106,-2.4283,-19.166,0.0121,0.0108,0.0413,52
5.047,97,8.3457,-3.5025,-13.1192,-0.0537,-0.0407,0.0593,89,5.07,97,1.5219,-2.2998,-18.9951,0.0534,0.0278,0.0355,52
5.099,98,8.3352,-3.52,-13.177,-0.0613,-0.0352,0.0488,89,5.122,98,1.5373,-2.2675,-18.8842,0.0456,0.0727,0.0301,52
5.151,99,8.3056,-3.6062,-13.2319,-0.0313,-0.0041,0.018,89,5.174,99,1.6965,-2.3074,-18.9213,0.028,0.1033,-0.013,52
5.203,100,8.5008,-3.3399,-12.9756,-0.002,0.143,-0.0799,89,5.225,100,1.7015,-2.3664,-18.9948,-0.0088,0.1095,-0.0707,52
5.254,101,8.5527,-3.3621,-12.9746,0.0212,0.0936,-0.0539,89,5.277,101,1.8025,-2.3993,-19.0738,-0.0452,0.1054,-0.1148,52
5.306,102,8.526,-3.433,-13.0299,0.0037,0.0519,-0.055,89,5.329,102,1.9406,-2.3962,-19.111,-0.0867,0.081,-0.1327,52
5.358,103,8.5133,-3.3777,-13.0245,-0.0022,0.0529,-0.0838,89,5.381,103,1.8555,-2.4769,-19.0458,-0.0934,0.0614,-0.1282,52
5.41,104,8.4955,-3.3525,-13.0308,-0.0062,0.0341,-0.0603,89,5.433,104,1.6863,-2.4438,-19.0035,-0.0744,0.0653,-0.1155,52
5.462,105,8.4942,-3.3716,-13.0472,-0.0128,0.0058,-0.041,89,5.484,105,1.7394,-2.4086,-19.1107,-0.0859,0.0711,-0.1007,52
5.513,106,8.5021,-3.3633,-13.0892,0.0005,0.015,-0.0418,89,5.536,106,1.9464,-2.3955,-19.2465,-0.0845,0.0544,-0.0797,52
5.565,107,8.4815,-3.3612,-13.0927,0.0133,0.0458,-0.0399,89,5.588,107,2.0948,-2.3772,-19.2376,-0.0792,0.0097,-0.0556,52
5.617,108,8.5022,-3.3226,-12.9983,0.0167,0.0237,-0.0243,89,5.639,108,2.1177,-2.2322,-19.1167,-0.0982,-0.0303,-0.037,52
5.669,109,8.5111,-3.3045,-12.9788,-0.0032,-0.0188,-0.0051,89,5.691,109,2.0903,-2.1009,-18.9978,-0.0997,-0.0396,-0.0417,52
5.72,110,8.5033,-3.3159,-13.0264,-0.0104,-0.0557,0.0105,89,5.743,110,2.0052,-1.9678,-18.8952,-0.1107,-0.0333,-0.0567,52
5.772,111,8.499,-3.3151,-13.0582,-0.0098,-0.0582,0.0183,89,5.795,111,1.8715,-1.8312,-18.8775,-0.0996,-0.0057,-0.0764,52
5.824,112,8.4536,-3.3501,-13.1441,-0.0178,-0.0577,0.0422,89,5.847,112,1.7607,-1.6677,-19.0397,-0.1074,0.0317,-0.1038,52
5.876,113,8.4223,-3.3835,-13.2063,-0.0273,-0.0347,0.0589,89,5.898,113,1.7945,-1.641,-19.3105,-0.1226,0.0403,-0.1356,52
5.928,114,8.3451,-3.5256,-13.3016,0.0064,0.0355,0.0164,89,5.951,114,2.0665,-1.7165,-19.4036,-0.0882,-0.0051,-0.1661,52
5.98,115,8.4865,-3.336,-13.0441,0.0095,0.1789,-0.078,89,6.002,115,2.232,-1.8042,-19.2958,-0.0523,-0.0588,-0.1872,52
6.031,116,8.5217,-3.3333,-12.9943,0.0418,0.1177,-0.0445,89,6.054,116,2.292,-1.8991,-19.0987,-0.0126,-0.0658,-0.2026,52
6.083,117,8.5092,-3.366,-12.9685,0.0437,0.0646,-0.0577,89,6.106,117,2.283,-1.9141,-18.9877,0.019,-0.0316,-0.2042,52
6.135,118,8.514,-3.3309,-12.9767,0.0058,0.0341,-0.0661,89,6.158,118,2.2079,-1.9097,-18.9804,0.0137,-0.0039,-0.1729,52
6.187,119,8.5511,-3.2909,-12.9277,-0.0121,0.0158,-0.0634,89,6.21,119,2.0922,-1.9036,-19.0869,-0.0109,-0.0057,-0.1033,52
6.238,120,8.5556,-3.2662,-12.994,-0.014,-0.0085,-0.0525,89,6.261,120,1.9088,-1.8496,-19.2265,-0.0023,-0.0176,-0.0229,52
6.29,121,8.5637,-3.2692,-13.0008,-0.027,0.0006,-0.0477,89,6.313,121,1.8173,-1.77,-19.3502,0.0222,-0.0338,0.0282,52
6.342,122,8.5559,-3.2692,-13.0275,-0.0163,0.0201,-0.0468,89,6.365,122,1.8352,-1.6305,-19.399,0.0705,-0.0548,0.03,52
6.394,123,8.5715,-3.2159,-12.9866,-0.0064,0.0954,-0.0645,89,6.416,123,1.8255,-1.5336,-19.3522,0.1195,-0.0855,-0.0184,52
6.446,124,8.6228,-3.187,-12.8641,0.0245,0.0934,-0.0382,89,6.468,124,1.7578,-1.526,-19.2335,0.1416,-0.1056,-0.0696,52
6.497,125,8.6464,-3.203,-12.8273,0.018,0.1613,-0.0512,89,6.52,125,1.7247,-1.5668,-19.0707,0.1406,-0.1054,-0.0993,52
6.549,126,8.62,-3.2208,-12.7349,0.0141,0.1362,-0.0825,89,6.572,126,1.7623,-1.5919,-19.1546,0.0849,-0.0967,-0.1018,52
6.601,127,8.6653,-3.1372,-12.694,0.0319,0.09,-0.0969,89,6.624,127,1.6586,-1.6724,-19.3233,0.0447,-0.0927,-0.0972,52
6.653,128,8.7268,-3.096,-12.6225,0.0402,0.0641,-0.1067,89,6.675,128,1.5384,-1.8002,-19.444,0.0583,-0.1036,-0.1163,52
6.705,129,8.7614,-3.0253,-12.5531,0.0329,0.0381,-0.1232,89,6.727,129,1.5395,-1.8482,-19.5075,0.1067,-0.1284,-0.1692,52
6.756,130,8.7899,-2.9679,-12.6093,0.0421,-0.0039,-0.1495,89,6.779,130,1.4044,-1.86,-19.4729,0.1558,-0.1577,-0.2247,52
6.808,131,8.7904,-2.9423,-12.6268,0.028,0.0168,-0.1412,89,6.831,131,1.323,-1.8634,-19.3558,0.227,-0.171,-0.267,52
6.86,132,8.8421,-2.8777,-12.5944,0.0352,0.0106,-0.1284,89,6.882,132,1.3217,-1.8376,-19.1826,0.2569,-0.1687,-0.2949,52
6.912,133,8.8536,-2.8362,-12.6049,0.0172,0.0213,-0.0964,89,6.934,133,1.3263,-1.8708,-18.989,0.2018,-0.166,-0.2906,52
6.964,134,8.8725,-2.813,-12.572,0.022,0.0165,-0.0816,89,6.986,134,1.3944,-1.9978,-18.8553,0.1452,-0.1389,-0.2715,52
7.015,135,8.9139,-2.739,-12.5387,0.0137,0.0079,-0.064,89,7.038,135,1.6974,-2.1683,-18.9259,0.1121,-0.0926,-0.276,52
7.067,136,8.9359,-2.6693,-12.5093,0.0007,-0.0151,-0.0256,89,7.09,136,2.0203,-2.4525,-19.0526,0.0825,-0.0547,-0.2514,52
7.119,137,8.9281,-2.6542,-12.4755,-0.001,-0.0499,0.0408,89,7.141,137,2.1744,-2.6826,-19.1118,0.0411,-0.0258,-0.173,52
7.171,138,8.8849,-2.7067,-12.4704,0.005,-0.0941,0.1057,89,7.193,138,1.8655,-2.9397,-19.1044,-0.0318,-0.0118,-0.0266,52
7.223,139,8.8295,-2.7786,-12.5849,-0.0529,-0.1057,0.2645,89,7.245,139,1.5856,-2.8062,-19.0485,-0.018,-0.0015,0.1209,52
7.274,140,8.7081,-3.0127,-12.8397,-0.057,-0.2231,0.2406,89,7.297,140,1.6464,-2.6528,-19.0732,-0.0344,0.0218,0.2509,52
7.326,141,8.7538,-3.1096,-12.9379,-0.0509,-0.1872,0.1833,89,7.349,141,1.853,-2.6435,-19.0882,-0.081,0.0536,0.3373,52
7.378,142,8.6919,-3.1379,-12.985,-0.0305,-0.0939,0.1374,89,7.4,142,1.874,-2.6602,-19.0558,-0.0751,0.0773,0.3892,52
7.43,143,8.6454,-3.0964,-12.9044,-0.045,-0.0733,0.1295,89,7.452,143,1.7766,-2.4996,-18.9942,-0.0518,0.0857,0.4229,52
7.482,144,8.6491,-3.0197,-12.845,-0.1036,-0.1601,0.1818,89,7.504,144,1.6776,-2.3196,-19.032,-0.0627,0.1029,0.428,52
7.533,145,8.5085,-3.0185,-13.1787,-0.1302,-0.1957,0.1831,89,7.556,145,1.5804,-2.1298,-19.1954,-0.0863,0.1292,0.4156,52
7.585,146,8.3158,-3.306,-13.3757,-0.1443,-0.154,0.1636,89,7.608,146,1.49,-2.061,-19.2797,-0.1092,0.0964,0.3872,52
7.637,147,8.3598,-3.2674,-13.2664,-0.1191,-0.067,0.1158,89,7.659,147,0.969,-1.9159,-19.2534,-0.1336,0.0193,0.3531,52
7.689,148,8.3198,-3.2599,-13.3337,-0.1209,-0.0686,0.1165,89,7.711,148,0.7097,-1.7675,-19.2656,-0.1527,-0.0185,0.3085,52
7.741,149,8.2394,-3.5193,-13.4509,-0.1463,-0.088,0.1121,89,7.763,149,0.7347,-1.7151,-19.4577,-0.1735,-0.0197,0.259,52
7.792,150,8.174,-3.5577,-13.6859,-0.0714,0.0212,-0.0173,89,7.815,150,1.1077,-1.8139,-19.5412,-0.1051,-0.0421,0.1327,52
7.844,151,8.4937,-3.2559,-13.4424,-0.0632,0.2737,-0.2153,89,7.867,151,1.4012,-1.9113,-19.4424,-0.0204,-0.0822,-0.0363,52
7.896,152,8.5819,-3.1852,-13.2525,0.0272,0.1974,-0.1582,89,7.918,152,1.4714,-1.9398,-19.2211,-0.0042,-0.0965,-0.1451,52
7.947,153,8.5882,-3.1741,-13.0674,0.0268,0.1766,-0.1949,89,7.97,153,1.2681,-1.8711,-19.0098,-0.023,-0.0451,-0.1642,52
8.0,154,8.619,-2.9408,-13.0485,0.0493,0.0801,-0.2116,89,8.022,154,1.1784,-1.7739,-18.9374,-0.0248,0.0391,-0.1925,52
8.052,155,8.6477,-2.9464,-13.0213,-0.02,0.0208,-0.095,89,8.074,155,1.1174,-1.6994,-19.1909,-0.0618,0.0954,-0.2671,52
8.103,156,8.7182,-2.9093,-12.9698,0.0045,0.0714,-0.091,89,8.126,156,1.0847,-1.8196,-19.6048,-0.0648,0.0706,-0.324,52
8.155,157,8.6938,-2.8712,-12.9891,0.0211,0.1063,-0.1255,89,8.177,157,1.1861,-1.9708,-19.7731,-0.0116,-0.0024,-0.3398,52
8.207,158,8.6974,-2.8789,-12.9128,0.0244,0.0769,-0.2116,89,8.229,158,1.2284,-2.0692,-19.6539,0.0484,-0.0826,-0.3277,52
8.259,159,8.7053,-2.8099,-12.872,0.0281,0.0459,-0.2006,89,8.281,159,1.3287,-2.1048,-19.3868,0.1052,-0.1206,-0.3104,52
8.311,160,8.7289,-2.718,-12.8773,0.0433,0.0274,-0.1756,89,8.333,160,1.4317,-2.1311,-19.1552,0.1427,-0.1035,-0.2979,52
8.362,161,8.7951,-2.6356,-12.8545,0.0524,-0.0113,-0.173,89,8.385,161,1.6163,-2.1384,-19.0488,0.1527,-0.0561,-0.2668,52
8.414,162,8.8136,-2.6285,-12.8519,0.055,-0.0238,-0.1195,89,8.436,162,1.6942,-2.2993,-19.03,0.1111,-0.0022,-0.1836,52
8.466,163,8.8067,-2.5641,-12.8546,0.0458,-0.0476,-0.0528,89,8.488,163,1.6587,-2.4098,-19.0116,0.0829,0.0471,-0.0722,52
