right_leg_timestamp,right_leg_index,right_leg_accel_x,right_leg_accel_y,right_leg_accel_z,right_leg_gyro_x,right_leg_gyro_y,right_leg_gyro_z,right_leg_battery_percentage,left_leg_timestamp,left_leg_index,left_leg_accel_x,left_leg_accel_y,left_leg_accel_z,left_leg_gyro_x,left_leg_gyro_y,left_leg_gyro_z,left_leg_battery_percentage
0.043,0,-0.2742,-0.9459,-1.9896,0.1327,-0.1579,-0.101,96,0.703,13,0.5903,1.8104,-1.7818,1.0224,-1.5104,0.4536,64
0.095,1,-0.6002,-1.3501,-2.2648,0.1253,-0.0049,-0.0532,96,0.755,14,-0.106,1.852,-2.1283,0.9563,-1.4662,0.4735,64
0.147,2,-0.5274,-1.1771,-2.1905,0.18,0.0777,-0.0289,96,0.807,15,-0.7637,1.9764,-2.5588,1.0102,-1.2091,0.5007,64
0.199,3,-0.4587,-1.2239,-2.1381,0.1404,0.1029,0.0515,96,0.858,16,-1.1848,1.8984,-3.1319,0.8917,-0.9165,0.4889,64
0.251,4,-0.3742,-1.2269,-2.2627,0.0267,0.151,0.0861,96,0.91,17,-1.3084,1.6725,-3.7307,0.6438,-0.6429,0.4694,64
0.303,5,-0.3409,-1.3244,-2.3243,-0.1577,0.3098,0.1194,96,0.962,18,-1.245,1.4164,-4.3153,0.413,-0.4293,0.4871,64
0.354,6,-0.5349,-1.4922,-2.3587,-0.2152,0.429,0.1181,96,1.014,19,-1.0189,1.1536,-4.9147,0.0726,-0.3549,0.4841,64
0.406,7,-0.6037,-1.5255,-2.2898,-0.2455,0.505,0.1104,96,1.066,20,-0.7971,0.9772,-5.3654,-0.0794,-0.3651,0.496,64
0.458,8,-0.6105,-1.5797,-2.2315,-0.1962,0.548,0.0899,96,1.117,21,-0.7602,0.9766,-5.6147,-0.1491,-0.4164,0.5408,64
0.51,9,-0.6276,-1.6991,-1.9729,-0.1415,0.5692,0.0791,96,1.169,22,-0.7936,1.0481,-5.7486,-0.1427,-0.4348,0.5177,64
0.562,10,-0.7543,-1.9079,-1.8282,-0.0808,0.4786,0.0516,96,1.221,23,-0.7415,1.0759,-5.876,-0.0324,-0.4479,0.4993,64
0.613,11,-0.7072,-1.8525,-1.9581,0.1421,0.3923,-0.0128,96,1.273,24,-0.7451,1.0315,-5.9792,0.0459,-0.4776,0.4688,64
0.665,12,-0.6579,-1.7826,-1.7214,0.1762,0.4037,-0.014,96,1.324,25,-0.5357,0.9159,-6.2485,0.151,-0.5217,0.4432,64
0.717,13,-0.7435,-1.9807,-1.6673,0.1584,0.3865,-0.0306,96,1.376,26,-0.4084,0.7706,-6.5542,0.2108,-0.6183,0.4463,64
0.769,14,-0.6879,-1.8264,-1.726,0.3114,0.3296,-0.0884,96,1.428,27,-0.7509,0.5052,-6.6641,0.2486,-0.6528,0.4952,64
0.821,15,-0.6211,-1.7783,-1.4179,0.3764,0.2988,-0.0972,96,1.48,28,-1.0639,0.499,-6.9603,0.2497,-0.6165,0.5626,64
0.872,16,-0.5079,-1.6226,-1.4036,0.3657,0.2645,-0.0881,96,1.532,29,-1.2629,0.5047,-7.276,0.3038,-0.5794,0.596,64
0.924,17,-0.4386,-1.4166,-1.4142,0.2372,0.2842,-0.0547,96,1.583,30,-0.5675,0.8883,-7.778,0.5231,-0.5032,0.5495,64
0.976,18,-0.4609,-1.6579,-1.3636,-0.0391,0.3535,-0.0072,96,1.635,31,-0.4547,0.9987,-8.2995,0.7165,-0.4773,0.2313,64
1.028,19,-0.4848,-1.7581,-1.4293,-0.166,0.399,-0.0027,96,1.687,32,-1.5145,0.6403,-8.4599,0.6393,-0.4506,-0.1034,64
1.08,20,-0.5709,-1.8959,-1.3945,-0.1896,0.4019,-0.0163,96,1.739,33,-3.1153,0.1302,-8.1429,0.5129,-0.3876,-0.2367,64
1.131,21,-0.499,-1.8957,-1.2794,-0.1474,0.3724,-0.0245,96,1.79,34,-4.1717,-0.1482,-7.6787,0.3053,-0.284,-0.2231,64
1.183,22,-0.4861,-1.8515,-1.2885,-0.1004,0.3442,-0.041,96,1.842,35,-4.6648,-0.2257,-7.6051,0.1661,-0.1192,-0.1121,64
1.235,23,-0.5107,-1.9012,-1.422,-0.0128,0.3515,-0.0339,96,1.894,36,-4.7516,0.051,-7.8746,0.148,0.0189,0.0976,64
1.287,24,-0.7516,-2.1196,-1.2744,0.1466,0.3219,-0.0327,96,1.946,37,-4.3846,0.4168,-8.3219,0.0823,0.0717,0.2597,64
1.338,25,-0.6501,-2.1463,-1.1221,0.3197,0.2041,-0.0881,96,1.998,38,-3.9198,0.7341,-8.6248,0.0412,0.0428,0.3051,64
1.39,26,-0.6413,-2.0024,-1.0859,0.4393,0.1023,-0.1134,96,2.049,39,-3.6398,0.8847,-8.7736,-0.0027,0.0081,0.28,64
1.442,27,-0.5505,-1.7802,-1.2353,0.3995,0.0882,-0.1106,96,2.101,40,-3.4144,1.0295,-9.0279,-0.0471,-0.0458,0.2259,64
1.494,28,-0.4645,-1.7161,-1.0813,0.1968,0.2061,-0.0603,96,2.153,41,-3.3997,1.2005,-9.0576,-0.0521,-0.1313,0.1517,64
1.546,29,-0.4625,-1.8049,-1.1774,0.1391,0.2216,-0.0694,96,2.205,42,-3.2399,1.1342,-9.0459,-0.0858,-0.1912,0.1163,64
1.597,30,-0.5112,-1.8321,-1.1856,0.1601,0.2596,-0.0771,96,2.257,43,-3.3381,0.9839,-9.0169,-0.0436,-0.1862,0.1707,64
1.649,31,-0.6057,-1.936,-1.1423,0.1326,0.2836,-0.0696,96,2.308,44,-3.5334,0.965,-8.9454,0.0146,-0.1657,0.2734,64
1.701,32,-0.5862,-1.9358,-1.1473,0.1053,0.3041,-0.0632,96,2.36,45,-3.7636,1.0085,-8.7932,0.109,-0.1,0.3716,64
1.753,33,-0.3975,-1.8436,-1.0631,-0.0913,0.3665,-0.0279,96,2.412,46,-3.9602,1.2509,-8.7375,0.1794,-0.0022,0.4319,64
1.805,34,-0.4194,-1.7976,-1.0902,-0.2639,0.3999,-0.0405,96,2.464,47,-3.8701,1.39,-8.8539,0.1234,0.072,0.4402,64
1.857,35,-0.5641,-1.9483,-1.1233,-0.344,0.3948,-0.0639,96,2.516,48,-3.8089,1.4345,-9.1395,0.0875,0.1034,0.4545,64
1.908,36,-0.612,-2.0607,-1.1665,-0.3455,0.3788,-0.0926,96,2.567,49,-3.8648,1.4251,-9.2115,0.0825,0.0608,0.502,64
1.96,37,-0.6096,-2.0115,-1.158,-0.2714,0.3628,-0.1056,96,2.619,50,-3.9822,1.4459,-8.9492,0.1265,0.0589,0.5434,64
2.012,38,-0.5658,-1.858,-1.1448,-0.2119,0.3554,-0.0999,96,2.671,51,-3.9482,1.5913,-8.8646,0.1298,0.122,0.5085,64
2.064,39,-0.556,-1.8897,-1.1545,-0.1849,0.3451,-0.0914,96,2.723,52,-3.7312,1.7185,-9.044,0.0887,0.2073,0.4107,64
2.116,40,-0.5836,-1.8958,-1.1653,-0.169,0.3406,-0.0882,96,2.774,53,-3.6993,1.634,-9.2797,0.0451,0.214,0.289,64
2.167,41,-0.6663,-2.0051,-1.1812,-0.1349,0.3519,-0.105,96,2.826,54,-3.8003,1.4068,-9.2016,0.0449,0.162,0.2223,64
2.219,42,-1.0206,-2.373,-1.166,0.0577,0.2872,-0.1229,96,2.878,55,-3.8992,1.2722,-8.9933,0.0801,0.136,0.2264,64
2.271,43,-1.0303,-2.3472,-1.0897,0.1375,0.3048,-0.1091,96,2.93,56,-4.0863,1.3733,-8.7562,0.1382,0.1586,0.2513,64
2.323,44,-0.875,-2.2072,-0.9823,0.1402,0.2737,-0.0852,96,2.982,57,-3.9675,1.6752,-8.7915,0.1751,0.1924,0.183,64
2.374,45,-0.7148,-2.0685,-1.0771,0.082,0.2727,-0.0841,96,3.033,58,-3.6864,1.9785,-9.0283,0.2391,0.2284,0.0695,64
2.426,46,-0.7135,-2.0615,-1.0848,0.0468,0.3205,-0.1125,96,3.085,59,-3.4358,1.9099,-9.1867,0.2261,0.183,-0.0087,64
2.478,47,-0.6475,-1.998,-0.9818,0.0989,0.3078,-0.1304,96,3.137,60,-3.4104,1.7386,-9.2026,0.2409,0.117,0.0254,64
2.53,48,-0.7748,-2.0553,-0.8949,0.313,0.2135,-0.1244,96,3.188,61,-3.4501,1.4787,-9.1199,0.213,0.0547,0.1575,64
2.582,49,-0.6436,-1.7999,-0.8544,0.5638,0.0712,-0.1109,96,3.24,62,-3.5423,1.4629,-8.9296,0.2315,0.045,0.3244,64
2.633,50,-0.4762,-1.6406,-0.9343,0.6597,0.0113,-0.0902,96,3.292,63,-3.7101,1.6939,-8.7258,0.2634,0.0534,0.4133,64
2.685,51,-0.3963,-1.5829,-0.9395,0.5124,0.0546,-0.0865,96,3.344,64,-3.958,1.9142,-8.4522,0.2583,0.1023,0.3865,64
2.737,52,-0.2891,-1.7784,-0.7863,0.0716,0.2537,0.0073,96,3.396,65,-4.1153,2.2379,-8.7721,0.2174,0.1942,0.2102,64
2.789,53,-0.2779,-1.6726,-1.1006,-0.1728,0.3424,0.0038,96,3.447,66,-3.7603,2.3063,-9.3348,0.1704,0.1797,0.0758,64
2.841,54,-0.4207,-1.8249,-1.1767,-0.2724,0.3643,-0.0289,96,3.499,67,-3.54,1.8146,-9.4276,0.1337,0.0686,0.0706,64
2.892,55,-0.5361,-1.9157,-1.1633,-0.2179,0.3355,-0.0617,96,3.551,68,-3.6774,1.7382,-9.1318,0.1901,0.016,0.3063,64
2.944,56,-1.2724,-2.7732,-1.1134,0.1112,0.2162,-0.0521,96,3.603,69,-3.624,1.8184,-8.9358,0.1803,0.0161,0.4596,64
2.996,57,-0.8836,-2.2896,-1.0353,0.1378,0.2045,-0.0091,96,3.655,70,-3.5653,2.0011,-8.9164,0.2337,0.0852,0.4819,64
3.048,58,-0.8212,-2.2862,-1.002,0.0962,0.1565,-0.0046,96,3.706,71,-3.6624,2.0788,-9.0821,0.2244,0.1288,0.3736,64
3.1,59,-0.7752,-2.1884,-1.1163,0.0172,0.1844,-0.0286,96,3.758,72,-3.75,1.9556,-9.2619,0.1753,0.088,0.3055,64
3.151,60,-0.8296,-2.2605,-1.1466,0.106,0.1957,-0.0478,96,3.81,73,-3.8927,1.6168,-9.1764,0.145,0.0132,0.341,64
3.203,61,-0.7954,-2.152,-1.1672,0.3593,0.1437,-0.1058,96,3.862,74,-3.892,1.4915,-8.9459,0.1607,0.0121,0.4527,64
3.255,62,-0.5576,-1.7903,-1.1001,0.4258,0.0802,-0.1168,96,3.914,75,-3.9917,1.5751,-8.852,0.1724,0.0688,0.5168,64
3.307,63,-0.4193,-1.6012,-1.1274,0.2914,0.0996,-0.0808,96,3.965,76,-3.9856,1.9282,-9.0363,0.162,0.1272,0.5133,64
3.359,64,-0.4492,-1.7847,-1.0953,-0.0643,0.2125,0.0006,96,4.017,77,-3.8348,1.9139,-9.2196,0.0749,0.1381,0.4567,64
3.41,65,-0.6687,-1.8998,-1.2118,-0.2601,0.2833,0.0034,96,4.069,78,-3.6875,1.552,-9.194,0.0769,0.1377,0.4208,64
3.462,66,-0.6381,-2.0109,-1.3978,-0.3161,0.2822,-0.0135,96,4.121,79,-3.5475,1.2963,-9.0358,0.0942,0.1376,0.4537,64
3.514,67,-0.8129,-2.1416,-1.3912,-0.2041,0.2912,-0.0225,96,4.172,80,-3.5756,1.4499,-8.8672,0.1673,0.1861,0.4911,64
3.565,68,-0.6526,-2.02,-1.4171,-0.135,0.2784,-0.0167,96,4.224,81,-3.5041,1.7551,-8.9541,0.2025,0.2573,0.4287,64
3.617,69,-0.6628,-2.1279,-1.3827,-0.123,0.3029,-0.0156,96,4.276,82,-3.4046,1.9051,-9.0683,0.1397,0.2808,0.3142,64
3.669,70,-0.6194,-2.0793,-1.498,-0.0954,0.3213,-0.033,96,4.328,83,-3.3707,1.6184,-9.0078,0.1092,0.2429,0.2624,64
3.721,71,-0.6809,-2.0923,-1.4325,-0.0351,0.3472,-0.0369,96,4.38,84,-3.4092,1.4462,-8.9072,0.0709,0.2024,0.3358,64
3.773,72,-0.9637,-2.4326,-1.3422,0.1075,0.3125,-0.0289,96,4.431,85,-3.313,1.4611,-8.94,0.0706,0.1822,0.4483,64
3.825,73,-0.3493,-1.6446,-1.2264,0.3335,0.1718,-0.0779,96,4.483,86,-3.3582,1.553,-8.8993,0.0771,0.1223,0.5169,64
3.876,74,-0.3875,-1.6698,-1.2391,0.3149,0.1542,-0.0592,96,4.535,87,-3.4345,1.6776,-8.7285,0.0986,0.0706,0.5288,64
3.928,75,-0.3835,-1.6852,-1.2856,0.1684,0.2132,-0.0546,96,4.587,88,-3.4516,1.7278,-8.5501,0.0542,0.0754,0.5037,64
3.98,76,-0.5946,-1.7342,-1.2673,0.0064,0.3411,-0.0432,96,4.638,89,-3.4708,1.7077,-8.5709,-0.0471,0.1109,0.4747,64
4.032,77,-0.5867,-1.8033,-1.3097,-0.1084,0.3749,-0.0608,96,4.69,90,-3.3725,1.5967,-8.6584,-0.0788,0.128,0.4601,64
4.083,78,-0.5779,-1.8033,-1.2967,-0.1631,0.4172,-0.0857,96,4.742,91,-3.2976,1.5684,-8.5345,-0.0107,0.1229,0.414,64
4.135,79,-0.6555,-1.9298,-1.1531,-0.175,0.4117,-0.0859,96,4.794,92,-3.2642,1.9626,-8.6269,0.1526,0.169,0.1999,64
4.187,80,-0.5635,-1.8444,-1.1349,-0.1851,0.3906,-0.0849,96,4.845,93,-3.2064,1.5033,-8.8898,0.1015,0.1218,0.0081,64
4.239,81,-0.5751,-1.8771,-1.166,-0.2014,0.3851,-0.0928,96,4.897,94,-3.1194,1.4944,-8.8597,0.2872,0.1168,0.0876,64
4.291,82,-0.7249,-2.0439,-1.1867,-0.1607,0.3568,-0.1076,96,4.949,95,-3.2425,1.8472,-9.0236,0.1926,0.0257,0.2021,64
4.342,83,-1.497,-3.0591,-1.0657,0.1616,0.2114,-0.0861,96,5.001,96,-3.3778,1.7329,-8.9294,0.0953,-0.0592,0.2734,64
4.394,84,-0.5485,-2.1316,-1.2816,0.4584,0.0259,-0.0821,96,5.053,97,-3.5821,1.4045,-8.6262,0.0941,-0.0877,0.3702,64
4.446,85,-0.5723,-2.2429,-1.0943,0.4997,-0.0551,-0.0295,96,5.104,98,-3.7891,1.5131,-8.3701,0.1822,-0.0362,0.4687,64
4.498,86,-0.484,-2.2462,-1.1766,0.403,-0.0019,-0.0231,96,5.156,99,-4.0831,1.8313,-8.3281,0.226,0.0562,0.4561,64
4.55,87,-0.5207,-2.0961,-1.3531,0.1073,0.1383,-0.0175,96,5.208,100,-4.098,2.2756,-8.8134,0.2827,0.1562,0.281,64
4.601,88,-0.5315,-2.0214,-1.3759,-0.1084,0.2413,-0.0587,96,5.26,101,-3.6389,2.2918,-9.3623,0.2896,0.1086,0.04,64
4.653,89,-0.5696,-1.991,-1.4643,-0.2195,0.3434,-0.1151,96,5.312,102,-3.3912,1.4677,-8.9833,0.2308,0.0374,0.027,64
4.705,90,-0.7936,-2.2643,-1.3323,-0.1807,0.3767,-0.1353,96,5.363,103,-3.5022,1.6995,-9.0676,0.3735,0.0367,0.1943,64
4.757,91,-1.4186,-2.756,-1.3604,0.2355,0.2269,-0.1255,96,5.415,104,-3.6204,1.8905,-8.9126,0.2439,-0.0169,0.3145,64
4.809,92,-0.7975,-1.963,-1.2121,0.4817,0.1121,-0.1259,96,5.467,105,-3.7828,1.8861,-8.7621,0.1532,-0.0144,0.3975,64
4.86,93,-0.6713,-1.9333,-1.1592,0.5393,0.0501,-0.1054,96,5.519,106,-3.7803,1.8297,-8.7256,0.0366,0.0306,0.4492,64
4.912,94,-0.5572,-1.781,-1.2693,0.4494,0.0966,-0.0898,96,5.57,107,-3.6842,1.8895,-8.8341,0.0077,0.0947,0.4711,64
4.964,95,-0.9565,-1.8484,-1.2443,0.2867,0.1922,-0.0615,96,5.622,108,-3.6829,1.9996,-8.7404,-0.0042,0.1179,0.4505,64
5.016,96,-0.7373,-1.7895,-1.2855,0.1907,0.2494,-0.0705,96,5.674,109,-4.0726,1.8628,-8.6156,-0.0625,0.1271,0.3728,64
5.068,97,-0.5208,-1.8257,-1.0266,-0.0546,0.4001,-0.0353,96,5.726,110,-4.1015,1.7752,-9.0933,-0.0258,0.0957,0.3077,64
5.119,98,-0.4774,-1.8075,-1.06,-0.1945,0.42,-0.046,96,5.777,111,-3.6914,1.8601,-9.4462,0.0555,0.0082,0.3315,64
5.171,99,-0.6001,-1.9781,-1.1886,-0.1974,0.4093,-0.0751,96,5.829,112,-3.6089,1.9108,-9.2986,0.1701,-0.0634,0.3865,64
5.223,100,-0.7722,-2.1888,-1.2127,-0.0731,0.3939,-0.0968,96,5.881,113,-3.728,2.0605,-9.0103,0.1919,-0.0627,0.4012,64
5.275,101,-0.4263,-1.7197,-1.2967,0.2113,0.2865,-0.1207,96,5.933,114,-3.8904,2.1118,-8.8741,0.197,-0.0057,0.3679,64
5.327,102,-0.4673,-1.7937,-1.1028,0.2998,0.2031,-0.1045,96,5.985,115,-3.9587,2.0252,-9.0454,0.1407,0.0422,0.3615,64
5.378,103,-0.5413,-1.9332,-1.2111,0.2388,0.2074,-0.1004,96,6.036,116,-3.7477,1.9511,-9.298,0.1467,0.0496,0.3942,64
5.43,104,-0.6023,-2.0593,-1.1336,0.1694,0.2765,-0.1066,96,6.088,117,-3.6371,2.0584,-9.3383,0.1895,0.0368,0.4533,64
5.482,105,-0.5938,-2.0184,-1.0206,0.209,0.2652,-0.1378,96,6.14,118,-3.7359,2.0237,-9.1402,0.1853,0.0444,0.4836,64
5.534,106,-0.5604,-1.9172,-1.0208,0.2982,0.2408,-0.1559,96,6.192,119,-3.8923,1.9178,-8.9744,0.1504,0.0847,0.483,64
5.585,107,-0.4857,-1.7345,-0.9027,0.3584,0.2209,-0.1601,96,6.243,120,-3.9453,1.8451,-8.9632,0.093,0.1204,0.4983,64
5.637,108,-0.5029,-1.8552,-0.9599,0.3944,0.1847,-0.1717,96,6.295,121,-3.9495,1.8739,-9.0104,0.0812,0.1368,0.5084,64
5.689,109,-0.5466,-1.8185,-1.0206,0.415,0.1673,-0.1544,96,6.347,122,-3.9436,1.9199,-8.8741,0.0741,0.1332,0.4746,64
5.741,110,-0.4536,-1.6305,-0.9976,0.3867,0.18,-0.1302,96,6.399,123,-3.9161,1.9502,-8.8049,0.0987,0.1414,0.3832,64
5.793,111,-0.3571,-1.4923,-0.9272,0.1842,0.2398,-0.0921,96,6.451,124,-4.012,1.961,-8.8686,0.1145,0.1666,0.2991,64
5.844,112,-0.4824,-1.7284,-0.8869,-0.0052,0.2993,-0.0673,96,6.502,125,-3.8507,1.8685,-9.0797,0.1021,0.1667,0.2656,64
5.896,113,-0.4788,-1.7525,-0.9005,-0.0586,0.3594,-0.0572,96,6.554,126,-3.6825,1.7634,-9.2603,0.0796,0.1333,0.2844,64
5.948,114,-0.4723,-1.7368,-0.8827,-0.0354,0.3442,-0.0717,96,6.606,127,-3.7966,1.6361,-9.2694,0.1104,0.1013,0.338,64
6.0,115,-0.5356,-1.8137,-0.9503,0.0807,0.2346,-0.0874,96,6.658,128,-3.9642,1.7101,-9.2365,0.1508,0.0766,0.381,64
6.052,116,-0.4831,-1.775,-0.9245,0.152,0.1831,-0.0812,96,6.71,129,-4.008,1.8623,-9.2353,0.2074,0.0723,0.3718,64
6.104,117,-0.5118,-1.8861,-0.9141,0.0641,0.2007,-0.0607,96,6.761,130,-4.0849,2.0747,-9.3308,0.2483,0.0706,0.3065,64
6.155,118,-0.6106,-2.0045,-1.0021,0.0394,0.2039,-0.0771,96,6.813,131,-4.0459,2.0387,-9.293,0.2937,0.0486,0.2195,64
6.207,119,-0.5952,-2.0028,-1.0732,0.0922,0.216,-0.1039,96,6.865,132,-3.9996,1.7656,-9.1087,0.3032,0.0109,0.1653,64
6.259,120,-0.5413,-1.8209,-0.9672,0.1494,0.2254,-0.1216,96,6.917,133,-3.8897,1.714,-9.019,0.3392,0.0278,0.2138,64
6.311,121,-0.5069,-1.7576,-0.936,0.1305,0.2371,-0.1189,96,6.969,134,-3.7671,1.8215,-9.0731,0.2998,0.0589,0.272,64
6.363,122,-0.546,-1.7982,-0.8961,0.1122,0.2494,-0.1122,96,7.02,135,-3.704,1.8012,-9.0625,0.2451,0.0855,0.297,64
6.414,123,-0.496,-1.7833,-0.922,0.1584,0.2264,-0.1086,96,7.072,136,-3.7963,1.696,-9.0333,0.1519,0.1161,0.3299,64
6.466,124,-0.5025,-1.763,-0.8936,0.3028,0.1998,-0.1173,96,7.124,137,-4.0057,1.7126,-9.0685,0.1242,0.1404,0.3886,64
6.518,125,-0.4846,-1.6628,-0.8426,0.3671,0.1822,-0.0996,96,7.176,138,-4.0084,1.8063,-9.0288,0.0663,0.118,0.4228,64
6.57,126,-0.4511,-1.6225,-0.8363,0.3158,0.1969,-0.0791,96,7.228,139,-4.0039,1.9116,-9.0258,0.011,0.1123,0.4063,64
6.621,127,-0.3943,-1.4841,-0.808,0.1771,0.2339,-0.0447,96,7.279,140,-3.9704,1.8289,-9.1786,-0.003,0.1106,0.3565,64
6.673,128,-0.4077,-1.6433,-0.8396,0.0414,0.261,-0.0311,96,7.331,141,-3.9384,1.7467,-9.2237,0.0255,0.0891,0.3495,64
6.725,129,-0.4416,-1.762,-0.9605,0.0175,0.2951,-0.0417,96,7.383,142,-3.9534,1.7505,-9.2751,0.0541,0.0753,0.369,64
6.777,130,-0.5793,-1.8266,-0.7729,-0.01,0.3412,-0.0533,96,7.435,143,-4.1946,1.9015,-9.2862,0.0982,0.0515,0.3665,64
6.829,131,-0.5256,-1.7894,-0.7765,-0.0209,0.3078,-0.0721,96,7.486,144,-4.2755,1.9993,-9.2843,0.1051,0.0309,0.3041,64
6.88,132,-0.5008,-1.7969,-0.8228,0.0331,0.2593,-0.0822,96,7.538,145,-4.1257,1.8144,-9.2979,0.118,0.0167,0.2576,64
6.932,133,-0.5086,-1.7668,-0.7933,0.0574,0.2572,-0.0766,96,7.59,146,-4.0295,2.0219,-9.3221,0.2081,0.0446,0.2956,64
6.984,134,-0.4795,-1.8805,-0.8035,0.0601,0.2453,-0.0747,96,7.642,147,-4.1079,2.1109,-9.2418,0.1952,0.0701,0.2862,64
7.036,135,-0.5567,-1.9571,-0.8558,0.1109,0.2428,-0.1012,96,7.694,148,-4.1735,2.0447,-9.158,0.1845,0.0947,0.2527,64
7.088,136,-0.5526,-1.9328,-0.8166,0.2183,0.21,-0.1219,96,7.746,149,-4.1491,2.1202,-9.167,0.2062,0.124,0.2413,64
7.139,137,-0.4942,-1.8435,-0.834,0.351,0.1805,-0.134,96,7.797,150,-4.1695,2.1731,-9.1826,0.1948,0.1213,0.2311,64
7.191,138,-0.5029,-1.796,-0.7771,0.3039,0.2263,-0.1299,96,7.849,151,-4.2168,2.0379,-9.1832,0.1489,0.1004,0.2651,64
7.243,139,-0.4631,-1.795,-0.7194,0.2621,0.2432,-0.1215,96,7.901,152,-4.1457,2.0892,-9.2411,0.0895,0.0737,0.3831,64
7.295,140,-0.4473,-1.758,-0.6926,0.254,0.2325,-0.116,96,7.953,153,-4.0399,2.1091,-9.1442,0.0587,0.021,0.4761,64
7.347,141,-0.4897,-1.7749,-0.6891,0.2608,0.2213,-0.1056,96,8.005,154,-4.0998,2.2813,-9.075,0.012,0.0086,0.5354,64
7.398,142,-0.479,-1.7992,-0.6538,0.2908,0.2011,-0.0938,96,8.057,155,-4.0443,2.2341,-9.1549,-0.1289,-0.0064,0.5942,64
7.45,143,-0.501,-1.8021,-0.6695,0.3039,0.1937,-0.0913,96,8.108,156,-4.0796,2.2154,-9.2696,-0.169,-0.0297,0.6914,64
7.502,144,-0.5097,-1.842,-0.7217,0.2883,0.2038,-0.1051,96,8.16,157,-4.12,2.3949,-9.2355,-0.2196,-0.0688,0.7978,64
7.554,145,-0.495,-1.7728,-0.6243,0.2846,0.2121,-0.1283,96,8.212,158,-4.0393,2.2988,-9.1285,-0.2972,-0.0948,0.8518,64
7.606,146,-0.4539,-1.6834,-0.6282,0.2377,0.2328,-0.126,96,8.264,159,-3.9492,2.2794,-9.1293,-0.2878,-0.0764,0.915,64
7.658,147,-0.4401,-1.72,-0.5749,0.2187,0.2387,-0.1227,96,8.315,160,-4.0119,2.3222,-9.1063,-0.24,-0.0582,0.9508,64
7.709,148,-0.4382,-1.6985,-0.5587,0.2048,0.2353,-0.1174,96,8.367,161,-4.2942,2.2768,-9.0122,-0.2187,-0.0489,0.9782,64
7.761,149,-0.4529,-1.733,-0.522,0.1703,0.2438,-0.1134,96,8.419,162,-4.3877,2.2141,-9.1584,-0.2008,-0.0121,0.9564,64
7.813,150,-0.3871,-1.6732,-0.5075,0.1448,0.2341,-0.1122,96,8.471,163,-4.3452,2.2362,-9.0803,-0.0452,0.0223,0.9299,64
7.865,151,-0.433,-1.6967,-0.4937,0.1356,0.2237,-0.102,96,8.523,164,-4.2828,2.2389,-9.2848,-0.0393,0.0186,0.8721,64
7.916,152,-0.41,-1.6613,-0.4759,0.1187,0.2129,-0.0902,96,8.574,165,-4.1573,2.1087,-9.3256,-0.0667,-0.0074,0.8106,64
7.968,153,-0.3999,-1.6181,-0.4493,0.0664,0.2181,-0.0683,96,8.626,166,-4.1929,1.8462,-9.326,0.035,-0.0104,0.8035,64
8.02,154,-0.4152,-1.6789,-0.4863,0.0324,0.2163,-0.0313,96,8.678,167,-4.0727,1.5874,-9.3138,0.0828,0.0267,0.7179,64
8.072,155,-0.4251,-1.7051,-0.5485,0.0202,0.231,0.0168,96,8.73,168,-4.1974,1.399,-9.4092,0.131,0.0598,0.6156,64
8.124,156,-0.5265,-1.7652,-0.6081,0.0078,0.1908,0.0805,96,8.781,169,-4.0835,1.3462,-9.4824,0.1949,0.0858,0.511,64
8.176,157,-0.5013,-1.8083,-0.7329,0.0538,0.1752,0.1345,96,8.833,170,-4.0508,1.3781,-9.3814,0.2256,0.0822,0.4392,64
8.227,158,-0.6849,-1.9341,-0.7463,0.0805,0.2234,0.1894,96,8.885,171,-3.6286,1.1663,-9.1969,0.2533,0.1069,0.3692,64
8.279,159,-0.5862,-2.0156,-0.694,0.1026,0.2367,0.1917,96,8.937,172,-3.3167,1.2405,-9.0968,0.1849,0.1947,0.3186,64
8.331,160,-0.6991,-2.2273,-0.7675,0.1009,0.2678,0.1876,96,8.989,173,-3.5075,1.2013,-9.0885,0.114,0.2643,0.2595,64
8.383,161,-0.7331,-2.3773,-0.731,0.1128,0.2806,0.1512,96,9.04,174,-3.8405,1.1977,-9.1182,0.1202,0.3145,0.2098,64
8.435,162,-0.7677,-2.4704,-0.7384,0.1313,0.3143,0.0938,96,9.092,175,-4.1298,1.3968,-9.1727,0.1432,0.2887,0.1808,64
8.486,163,-0.6621,-2.2603,-0.5421,0.0738,0.3418,0.0431,96,9.144,176,-4.3205,1.7592,-9.2208,0.2409,0.2272,0.127,64
8.538,164,-0.773,-2.4361,-0.6641,-0.2489,0.4204,0.0182,96,9.196,177,-3.9684,2.0715,-9.1411,0.2999,0.1221,0.0634,64
8.59,165,-0.8356,-2.612,-0.6618,-0.4348,0.3812,-0.0348,96,9.247,178,-3.4254,1.8359,-8.8183,0.2351,0.1128,0.0558,64
8.642,166,-0.8366,-2.7073,-0.759,-0.423,0.3456,-0.1087,96,9.299,179,-3.3035,1.7211,-8.8667,0.1812,0.1882,0.1126,64
8.693,167,-0.9159,-2.8,-0.8458,-0.3426,0.3249,-0.1619,96,9.351,180,-3.5229,1.734,-8.9895,0.1921,0.2413,0.1445,64
8.745,168,-0.8039,-2.6264,-1.011,-0.069,0.2766,-0.2268,96,9.403,181,-3.7529,1.8162,-8.979,0.2917,0.224,0.1373,64
8.797,169,-0.701,-2.4706,-0.6494,-0.0864,0.3652,-0.1796,96,9.455,182,-4.1338,2.3042,-8.9159,0.3823,0.206,0.0893,64
8.849,170,-0.5776,-2.3181,-0.7613,-0.235,0.3611,-0.1529,96,9.506,183,-4.0622,2.4636,-8.8909,0.3772,0.1883,-0.0259,64
8.901,171,-0.6957,-2.3954,-0.8619,-0.3269,0.3882,-0.1606,96,9.558,184,-3.8012,2.1148,-8.9393,0.2336,0.1789,-0.0573,64
8.953,172,-0.6941,-2.383,-0.8705,-0.3365,0.373,-0.209,96,9.61,185,-3.7363,2.1113,-9.0374,0.2833,0.1976,0.0303,64
9.004,173,-0.6516,-2.3052,-0.9254,-0.2705,0.3806,-0.2375,96,9.661,186,-3.7911,2.1996,-9.0575,0.2651,0.1622,0.1079,64
9.056,174,-0.6455,-2.0777,-0.9055,-0.0883,0.316,-0.2286,96,9.713,187,-3.8877,2.357,-8.9861,0.2393,0.1174,0.1485,64
9.108,175,-0.6861,-2.0208,-0.8777,-0.0668,0.3154,-0.1782,96,9.765,188,-4.0111,2.2025,-8.8665,0.1887,0.095,0.2278,64
9.16,176,-0.5901,-1.9242,-0.9989,-0.0923,0.2659,-0.1516,96,9.817,189,-4.0274,2.281,-8.9614,0.1256,0.0633,0.3228,64
9.212,177,-0.7383,-2.1092,-1.135,-0.146,0.2934,-0.1525,96,9.869,190,-3.9572,2.4787,-9.0907,0.1323,-0.0089,0.3792,64
9.263,178,-0.7034,-1.9905,-1.1149,-0.1554,0.319,-0.1707,96,9.92,191,-3.8812,2.5587,-9.1124,0.1099,-0.099,0.3639,64
9.315,179,-0.5855,-1.7552,-1.1209,-0.1741,0.3566,-0.1592,96,9.972,192,-3.7737,2.0611,-8.8423,0.1422,-0.1206,0.3506,64
9.367,180,-0.6473,-1.8708,-1.1103,-0.1601,0.3741,-0.1365,96,10.024,193,-3.8863,1.9325,-8.873,0.0724,-0.094,0.3466,64
9.419,181,-0.5974,-1.7758,-1.0277,-0.0982,0.4022,-0.1249,96,10.076,194,-3.9271,2.069,-9.0316,0.1817,-0.0369,0.3324,64
9.47,182,-0.571,-1.7465,-0.8953,-0.0992,0.4034,-0.0943,96,10.127,195,-4.1415,2.112,-8.9582,0.1926,-0.0039,0.3101,64
9.522,183,-0.5648,-1.7853,-0.9349,-0.0963,0.3702,-0.07,96,10.179,196,-4.2852,1.8218,-8.7131,0.2185,0.0675,0.3003,64
9.574,184,-0.4685,-1.7198,-0.801,-0.0995,0.3734,-0.0604,96,10.231,197,-4.5296,1.1687,-8.5472,0.3657,0.2095,0.4086,64
9.626,185,-0.6526,-1.6052,-0.6683,-0.0987,0.3664,-0.0638,96,10.283,198,-4.7539,0.8775,-9.3251,0.3735,0.3381,0.662,64
9.678,186,-0.6528,-1.781,-0.7437,-0.057,0.3413,-0.0743,96,10.335,199,-4.249,0.9662,-10.3336,0.2251,0.1007,1.0071,64
9.729,187,-0.5817,-1.7726,-0.7273,-0.031,0.3326,-0.0635,96,10.386,200,-3.8109,1.2277,-10.1308,0.1897,-0.2239,1.3086,64
9.781,188,-0.5595,-1.8548,-0.7959,-0.0272,0.3239,-0.0769,96,10.438,201,-3.7518,1.6575,-9.8078,0.3583,-0.2405,1.3812,64
9.833,189,-0.9891,-2.4638,-0.8889,-0.1415,0.2965,-0.0761,96,10.49,202,-3.6384,1.8877,-9.5116,0.5941,-0.0934,0.9312,64
9.885,190,0.0008,-0.3826,-0.581,-0.3231,0.5083,-0.1746,96,10.542,203,-3.3749,2.1584,-9.2145,0.9225,0.0564,0.2087,64
9.937,191,0.1439,-0.8729,-0.4998,-0.8891,0.9839,-0.0433,96,10.593,204,-3.4585,2.3565,-8.9458,1.0259,0.1325,-0.4219,64
9.988,192,-0.4004,-1.9067,0.2889,-1.3022,1.1077,0.0194,96,10.645,205,-3.5507,1.7953,-8.5303,0.805,0.1348,-0.7396,64
10.04,193,0.2807,-0.3643,-0.191,-0.3757,0.6632,-0.2683,96,10.697,206,-3.3964,1.0289,-8.2573,0.4139,0.1255,-0.668,64
10.092,194,0.0841,-0.7624,-0.2508,0.1793,0.1538,-0.2735,96,10.749,207,-3.4407,0.6319,-8.5426,0.068,0.197,-0.2837,64
10.144,195,0.2734,0.0211,-0.6814,0.6975,-0.2479,-0.4299,96,10.801,208,-3.13,0.3887,-9.164,-0.2716,0.2322,0.2149,64
10.196,196,0.5049,0.5522,-0.5469,1.2075,-0.5436,-0.7269,96,10.852,209,-3.0262,0.0731,-9.3698,-0.4324,0.1714,0.6353,64
10.247,197,-0.6261,-1.4939,-0.7725,1.5797,-0.6489,-0.736,96,10.904,210,-3.1216,0.3375,-9.0837,-0.4341,0.1646,0.9829,64
10.299,198,-0.9006,-1.9393,-1.6327,1.1689,-0.4771,-0.5767,96,10.956,211,-3.2817,0.4502,-8.9395,-0.4081,0.2504,1.1168,64
10.351,199,-0.2905,-1.1931,-1.3745,0.8416,-0.1158,-0.3291,96,11.008,212,-3.4506,0.7137,-9.1921,-0.1739,0.3082,1.0123,64
10.403,200,-0.463,-1.2763,-1.1378,0.406,0.1971,-0.1645,96,11.06,213,-3.5009,1.0826,-9.3653,0.0817,0.2743,0.7707,64
10.455,201,-0.4109,-1.4891,-1.093,0.1091,0.2666,-0.1126,96,11.111,214,-3.4828,1.1008,-9.2604,0.1629,0.2025,0.4622,64
10.507,202,-0.5719,-1.6559,-1.1793,-0.0751,0.3125,-0.0945,96,11.163,215,-3.3365,0.9028,-9.1289,0.2426,0.1541,0.2011,64
10.558,203,-0.9039,-2.1235,-1.1734,0.0761,0.3062,-0.1308,96,11.215,216,-3.2955,0.7377,-8.9502,0.3368,0.1362,0.0365,64
10.61,204,-0.7158,-1.8269,-0.9616,0.1389,0.2491,-0.1048,96,11.267,217,-3.237,0.7311,-8.7449,0.4104,0.153,-0.029,64
10.662,205,-0.5427,-1.5718,-1.0046,0.1572,0.1593,-0.0872,96,11.318,218,-3.2108,0.7179,-8.6574,0.3575,0.1808,-0.0115,64
10.714,206,-0.4061,-1.377,-1.2261,0.2336,0.0773,-0.1117,96,11.37,219,-3.1779,0.6709,-8.6573,0.3212,0.18,0.0526,64
10.766,207,-0.4482,-1.4996,-1.2777,0.2114,0.0839,-0.1237,96,11.422,220,-3.1395,0.9222,-8.8088,0.3293,0.1514,0.1017,64
10.817,208,-0.396,-1.5403,-1.3561,0.1591,0.0664,-0.1119,96,11.474,221,-3.1267,1.2513,-8.8234,0.2291,0.109,0.1755,64
10.869,209,-0.4465,-1.6934,-1.4207,0.1767,0.0896,-0.1114,96,11.526,222,-3.1085,1.3364,-8.7576,0.12,0.0721,0.1904,64
10.921,210,-0.524,-1.7283,-1.5141,0.2287,0.1256,-0.121,96,11.577,223,-3.0092,1.2869,-8.6546,0.0893,0.0573,0.1894,64
10.973,211,-0.7267,-2.0127,-1.532,0.3119,0.1259,-0.1287,96,11.629,224,-3.0214,1.1818,-8.5567,0.0516,0.0689,0.2078,64
11.024,212,-0.5469,-1.6329,-1.5033,0.4217,0.0905,-0.1364,96,11.681,225,-3.0502,1.1508,-8.5035,0.0278,0.0987,0.2692,64
11.076,213,-0.4965,-1.5467,-1.4562,0.5479,0.0461,-0.1517,96,11.732,226,-3.0916,1.1845,-8.5246,0.0189,0.1213,0.3306,64
11.128,214,-0.4923,-1.4801,-1.3752,0.5589,0.0601,-0.1731,96,11.784,227,-3.1397,1.3126,-8.5678,0.0228,0.1359,0.3819,64
11.18,215,-0.4641,-1.3785,-1.3956,0.5077,0.1056,-0.161,96,11.836,228,-3.1758,1.4032,-8.6052,-0.0013,0.1326,0.4104,64
11.232,216,-0.4123,-1.331,-1.4334,0.3599,0.158,-0.1241,96,11.888,229,-3.1629,1.5461,-8.561,-0.0274,0.1206,0.4301,64
11.283,217,-0.432,-1.4114,-1.422,0.3319,0.1732,-0.1202,96,11.94,230,-3.1531,1.5746,-8.5244,-0.09,0.1107,0.4513,64
11.335,218,-0.4299,-1.445,-1.4255,0.2801,0.1925,-0.0996,96,11.991,231,-2.9985,1.3642,-8.5397,-0.1046,0.0918,0.4427,64
11.387,219,-0.4732,-1.5274,-1.4355,0.2334,0.207,-0.0786,96,12.043,232,-2.7511,1.3654,-8.6504,-0.0529,0.0735,0.4503,64
11.439,220,-0.494,-1.604,-1.4304,0.2168,0.2111,-0.0713,96,12.095,233,-2.7792,1.1329,-8.5136,-0.0431,0.0774,0.5391,64
11.491,221,-0.5056,-1.6747,-1.475,0.2622,0.2085,-0.0809,96,12.147,234,-2.9071,1.1206,-8.3894,-0.0119,0.1058,0.6108,64
11.542,222,-0.4427,-1.4791,-1.3478,0.3107,0.2189,-0.0925,96,12.199,235,-3.2046,1.3384,-8.4642,0.0129,0.121,0.6518,64
11.594,223,-0.4474,-1.4744,-1.2702,0.1115,0.2632,-0.0478,96,12.25,236,-3.3538,1.6425,-8.7333,-0.014,0.0945,0.6535,64
11.646,224,-0.5325,-1.6788,-1.4353,-0.3699,0.4358,0.0774,96,12.302,237,-3.3164,1.7574,-8.9171,-0.1314,-0.0226,0.6241,64
11.698,225,-0.65,-2.0203,-1.4752,-0.4079,0.4144,0.0629,96,12.354,238,-3.0851,1.5855,-8.8155,-0.1679,-0.1445,0.5749,64
11.75,226,-0.5741,-1.9104,-1.5713,-0.3261,0.3694,0.0015,96,12.406,239,-2.9881,1.4783,-8.6711,-0.1058,-0.1878,0.5538,64
11.801,227,-0.6754,-1.9728,-1.6062,-0.1732,0.3287,-0.0339,96,12.458,240,-3.0243,1.367,-8.4764,-0.0689,-0.1524,0.5339,64
11.853,228,-0.5141,-1.7368,-1.5915,-0.0592,0.2778,-0.0529,96,12.509,241,-3.3141,1.2842,-8.3332,0.001,-0.0559,0.521,64
11.905,229,-0.4419,-1.8451,-1.4828,-0.064,0.2823,-0.0586,96,12.561,242,-3.6544,1.3819,-8.3648,0.0541,0.0397,0.4979,64
11.957,230,-0.451,-1.8005,-1.4334,-0.1074,0.3377,-0.0542,96,12.613,243,-3.8243,1.6978,-8.6921,0.1022,0.0981,0.4634,64
12.009,231,-0.4572,-1.6527,-1.4975,-0.1804,0.3338,-0.0571,96,12.665,244,-3.6824,1.9539,-9.0256,0.1154,0.0613,0.3714,64
12.06,232,-0.5553,-1.9112,-1.5254,-0.2004,0.2977,-0.0737,96,12.717,245,-3.4794,1.9516,-9.1101,0.1442,-0.0183,0.2602,64
12.112,233,-0.6642,-2.0243,-1.651,-0.1498,0.2791,-0.0953,96,12.768,246,-3.4037,1.7631,-8.9777,0.1616,-0.0732,0.1911,64
12.164,234,-0.7956,-2.058,-1.6313,-0.0133,0.266,-0.1043,96,12.82,247,-3.4105,1.5819,-8.7871,0.1805,-0.0515,0.1906,64
12.216,235,-0.544,-1.749,-1.6605,0.1889,0.2113,-0.112,96,12.872,248,-3.4035,1.5131,-8.7368,0.1816,0.0167,0.2082,64
12.268,236,-0.5338,-1.8706,-1.5707,0.3347,0.1393,-0.1248,96,12.924,249,-3.3801,1.5546,-8.8268,0.1943,0.0898,0.2248,64
12.319,237,-0.5459,-1.8225,-1.6121,0.3407,0.1572,-0.1281,96,12.975,250,-3.3624,1.6761,-8.9471,0.2007,0.1135,0.2393,64
12.371,238,-0.5085,-1.7189,-1.5921,0.3105,0.1985,-0.1209,96,13.027,251,-3.3542,1.6865,-8.9397,0.192,0.1052,0.2531,64
12.423,239,-0.49,-1.7609,-1.5802,0.3069,0.2077,-0.1116,96,13.079,252,-3.3479,1.6995,-8.8754,0.1833,0.0968,0.2724,64
12.475,240,-0.5057,-1.694,-1.4725,0.3049,0.2114,-0.105,96,13.131,253,-3.277,1.7751,-8.7673,0.1518,0.1167,0.269,64
12.527,241,-0.5063,-1.669,-1.4092,0.2755,0.2215,-0.0937,96,13.183,254,-3.2846,1.8423,-8.7525,0.162,0.1645,0.279,64
12.578,242,-0.4971,-1.6838,-1.4339,0.2181,0.2293,-0.085,96,13.234,255,-3.3612,1.87,-8.7274,0.139,0.1926,0.2964,64
12.63,243,-0.5,-1.7212,-1.4863,0.1739,0.2392,-0.0849,96,13.286,256,-3.3418,1.7526,-8.6822,0.0904,0.2264,0.3486,64
12.682,244,-0.4781,-1.6703,-1.4598,0.1314,0.2613,-0.0838,96,13.338,257,-3.2542,1.6512,-8.7152,0.1014,0.2624,0.3992,64
12.734,245,-0.5211,-1.805,-1.3835,0.0153,0.2966,-0.0644,96,13.39,258,-3.2577,1.6448,-8.7808,0.181,0.2871,0.4052,64
12.786,246,-0.5725,-1.9401,-1.348,-0.0194,0.3215,-0.0536,96,13.441,259,-3.3033,1.6444,-8.7588,0.1578,0.2802,0.4154,64
12.837,247,-0.5678,-1.9007,-1.311,-0.0355,0.3253,-0.0503,96,13.493,260,-3.3912,1.645,-8.7451,0.1854,0.2681,0.4294,64
12.889,248,-0.6053,-1.8766,-1.2865,-0.0432,0.3093,-0.0455,96,13.545,261,-3.5968,1.6652,-8.6408,0.146,0.2185,0.475,64
12.941,249,-0.6022,-1.8426,-1.3048,-0.034,0.2932,-0.0444,96,13.597,262,-3.7431,1.6536,-8.5658,0.0735,0.1526,0.5305,64
12.993,250,-0.5098,-1.8108,-1.2632,-0.0633,0.3066,-0.0299,96,13.649,263,-3.8211,1.6691,-8.6091,0.0138,0.1009,0.5468,64
13.044,251,-0.4453,-1.8925,-1.2659,-0.1044,0.3546,-0.0011,96,13.7,264,-3.5262,1.7961,-8.7334,0.0274,0.0531,0.5118,64
13.096,252,-0.4969,-1.825,-1.3405,-0.1152,0.361,-0.0131,96,13.752,265,-3.2837,1.8606,-8.7365,0.0556,0.0084,0.4134,64
13.148,253,-0.5482,-1.9103,-1.3845,-0.1058,0.3714,-0.0245,96,13.804,266,-3.14,1.719,-8.6391,0.0813,-0.0039,0.3165,64
13.2,254,-0.723,-2.1346,-1.3328,0.0176,0.3914,-0.0619,96,13.856,267,-3.0834,1.5817,-8.5486,0.1361,0.0215,0.2667,64
13.252,255,-0.6097,-1.9523,-1.2422,0.1416,0.3621,-0.0848,96,13.908,268,-3.146,1.5054,-8.5042,0.1169,0.0464,0.2964,64
13.303,256,-0.6614,-2.0113,-1.127,0.203,0.2955,-0.0888,96,13.959,269,-3.199,1.5181,-8.485,0.11,0.0809,0.3479,64
13.355,257,-0.6093,-1.9486,-1.1162,0.2424,0.2708,-0.0857,96,14.011,270,-3.1701,1.6285,-8.5655,0.0975,0.0958,0.3765,64
13.407,258,-0.5894,-1.9176,-1.0354,0.2209,0.2691,-0.0769,96,14.063,271,-3.2138,1.7714,-8.6558,0.117,0.0906,0.3807,64
13.459,259,-0.5553,-1.8743,-1.0284,0.1434,0.2818,-0.0667,96,14.115,272,-3.3902,1.7034,-8.6964,0.2143,0.0926,0.3824,64
13.511,260,-0.5671,-1.9373,-0.9936,0.044,0.3086,-0.0616,96,14.166,273,-3.5455,1.6055,-8.6342,0.365,0.1161,0.3733,64
13.562,261,-0.603,-1.941,-0.9569,0.013,0.3199,-0.0653,96,14.218,274,-3.5166,1.5326,-8.8243,0.4241,0.0984,0.3797,64
13.614,262,-0.4831,-1.8524,-0.9848,0.0214,0.3062,-0.0785,96,14.27,275,-3.3817,1.4586,-8.9389,0.4519,0.0228,0.3784,64
13.666,263,-0.438,-1.7826,-0.9241,0.0103,0.3068,-0.0727,96,14.322,276,-3.3388,1.3582,-8.9132,0.4718,-0.0551,0.3302,64
13.718,264,-0.4078,-1.8491,-0.8341,-0.0263,0.3171,-0.0632,96,14.374,277,-3.3155,1.3377,-8.7975,0.4608,-0.09,0.2748,64
13.77,265,-0.4479,-1.8372,-0.8888,-0.0519,0.3153,-0.0635,96,14.425,278,-3.2498,1.295,-8.7198,0.4109,-0.0688,0.232,64
13.821,266,-0.4729,-1.8789,-0.9546,-0.0293,0.2862,-0.0779,96,14.477,279,-3.2778,1.2053,-8.766,0.3548,-0.0157,0.1968,64
13.873,267,-0.4953,-1.9068,-0.9852,0.0739,0.256,-0.0898,96,14.529,280,-3.3398,1.1127,-8.845,0.3194,0.0455,0.1941,64
13.925,268,-0.4208,-1.7801,-1.0238,0.2287,0.2161,-0.1069,96,14.58,281,-3.4429,1.07,-8.9242,0.2731,0.0874,0.2203,64
13.977,269,-0.4153,-1.7075,-0.9651,0.3251,0.1701,-0.1131,96,14.632,282,-3.4989,1.0638,-9.002,0.2407,0.1064,0.2582,64
14.029,270,-0.4397,-1.7573,-0.9602,0.3381,0.1255,-0.1181,96,14.684,283,-3.5128,1.0888,-9.0953,0.2571,0.1087,0.2813,64
14.08,271,-0.4281,-1.7584,-0.9994,0.3333,0.124,-0.1225,96,14.736,284,-3.5187,1.0921,-9.1438,0.2715,0.0922,0.2707,64
14.132,272,-0.4683,-1.7776,-0.9928,0.2857,0.1597,-0.1215,96,14.788,285,-3.5184,1.0547,-9.1671,0.3117,0.0821,0.2425,64
14.184,273,-0.4514,-1.7671,-0.9688,0.2336,0.1885,-0.114,96,14.839,286,-3.5865,0.9836,-9.1413,0.3468,0.0817,0.1965,64
14.236,274,-0.457,-1.7579,-0.943,0.1918,0.2065,-0.1069,96,14.891,287,-3.6782,0.9271,-9.0939,0.3625,0.0795,0.1587,64
14.287,275,-0.4944,-1.7983,-0.9041,0.1343,0.2312,-0.0948,96,14.943,288,-3.7789,0.8413,-9.0345,0.3624,0.0792,0.1512,64
14.339,276,-0.538,-1.8001,-0.9302,0.1226,0.2373,-0.0916,96,14.995,289,-3.7018,0.8637,-9.0699,0.3339,0.0812,0.1894,64
14.391,277,-0.5449,-1.8322,-0.9351,0.1419,0.2196,-0.0883,96,15.046,290,-3.5961,0.9319,-9.125,0.3095,0.075,0.2479,64
14.443,278,-0.5341,-1.846,-0.9543,0.158,0.2004,-0.0812,96,15.098,291,-3.6236,0.9869,-9.0587,0.2739,0.0615,0.2954,64
14.495,279,-0.5135,-1.8385,-0.9681,0.1531,0.1861,-0.0726,96,15.151,292,-3.6518,1.0034,-8.9347,0.1832,0.073,0.3338,64
14.546,280,-0.5086,-1.8067,-0.9215,0.1356,0.1817,-0.0755,96,15.202,293,-3.6418,0.9815,-8.9156,0.0992,0.1173,0.3602,64
14.598,281,-0.4829,-1.8007,-0.9064,0.07,0.2051,-0.0592,96,15.254,294,-3.6113,0.9117,-9.0258,0.028,0.166,0.3608,64
14.65,282,-0.5076,-1.7948,-0.9661,0.0142,0.2325,-0.0441,96,15.306,295,-3.6102,0.9031,-9.1723,0.0678,0.1925,0.3402,64
14.702,283,-0.5092,-1.8205,-1.0506,-0.0269,0.2418,-0.0381,96,15.358,296,-3.606,0.8513,-9.2105,0.05,0.1785,0.2949,64
14.754,284,-0.5313,-1.848,-1.1272,-0.0465,0.2467,-0.0425,96,15.41,297,-3.7092,0.7711,-9.2157,0.079,0.1593,0.2817,64
14.806,285,-0.553,-1.8988,-1.1777,-0.0327,0.2512,-0.0557,96,15.461,298,-3.8324,0.7848,-9.1971,0.0796,0.1086,0.303,64
14.857,286,-0.5155,-1.8659,-1.1996,-0.0194,0.289,-0.0704,96,15.513,299,-3.8081,0.7994,-9.0881,0.068,0.0547,0.3413,64
14.909,287,-0.5278,-1.8813,-1.1079,-0.0199,0.3286,-0.0832,96,15.565,300,-3.8748,0.8981,-9.0571,0.1151,0.034,0.3509,64
14.961,288,-0.5052,-1.8298,-1.0893,-0.0554,0.3416,-0.1013,96,15.617,301,-3.8841,1.2726,-9.2254,0.1465,0.0251,0.3213,64
15.013,289,-0.5302,-1.891,-1.088,-0.0737,0.3311,-0.1132,96,15.668,302,-3.7629,1.4862,-9.2386,0.1093,0.0056,0.2961,64
15.064,290,-0.5341,-1.9151,-1.1019,-0.0567,0.3496,-0.122,96,15.72,303,-3.5875,1.485,-9.1718,0.083,-0.0005,0.2393,64
15.116,291,-0.656,-2.0046,-1.0358,0.0276,0.3384,-0.1295,96,15.772,304,-3.6891,1.2656,-9.2046,0.0402,0.0405,0.2208,64
15.168,292,-0.2526,-1.5827,-1.2747,0.2532,0.2528,-0.1545,96,15.824,305,-3.6232,1.2553,-9.279,-0.0142,0.0527,0.3085,64
15.22,293,-0.3801,-1.7398,-1.154,0.3886,0.2417,-0.1306,96,15.876,306,-3.156,1.1014,-9.1963,-0.1208,0.0262,0.5107,64
15.272,294,-0.4489,-1.9082,-0.9213,0.3776,0.2089,-0.1271,96,15.928,307,-3.0589,1.3219,-8.7507,-0.0385,0.0154,0.687,64
15.323,295,-0.4132,-1.8267,-0.9432,0.4034,0.1821,-0.1538,96,15.979,308,-3.467,1.4325,-8.2853,-0.0473,0.0961,0.8552,64
15.375,296,-0.448,-1.7675,-0.892,0.4456,0.1948,-0.1597,96,16.031,309,-3.883,1.4657,-7.956,-0.0577,0.2893,1.0048,64
15.427,297,-0.5486,-1.8681,-0.9295,0.5437,0.1935,-0.1865,96,16.083,310,-3.6081,1.6909,-8.2049,-0.1461,0.4913,1.1691,64
15.479,298,-0.5227,-1.6643,-0.8881,0.6371,0.0647,-0.1941,96,16.135,311,-3.5532,1.5707,-8.3535,-0.2857,0.628,1.3052,64
15.531,299,-0.3521,-1.4515,-1.0344,0.626,-0.01,-0.1952,96,16.187,312,-3.3412,1.3586,-8.725,-0.5023,0.6513,1.3624,64
15.582,300,-0.2934,-1.3056,-0.912,0.4825,0.0503,-0.1542,96,16.238,313,-3.0079,1.4911,-9.2168,-0.5098,0.5112,1.2544,64
15.634,301,-0.306,-1.3175,-0.8857,0.3225,0.1319,-0.105,96,16.29,314,-2.9419,1.4223,-9.2484,-0.3847,0.3033,0.9728,64
15.686,302,-0.3686,-1.4001,-0.7337,0.1672,0.1396,-0.0053,96,16.342,315,-3.0247,0.9529,-8.905,-0.2208,0.1593,0.5687,64
15.738,303,-0.3926,-1.531,-0.7543,0.1161,0.1027,0.1055,96,16.394,316,-2.7622,0.2337,-8.6877,-0.0051,0.128,0.3048,64
15.789,304,-0.4722,-1.7956,-1.0903,0.0977,0.1324,0.1882,96,16.446,317,-2.3616,-0.1095,-8.6247,0.1204,0.1015,0.327,64
15.841,305,-0.5921,-1.907,-1.0307,0.1613,0.1768,0.2395,96,16.497,318,-2.3623,0.0392,-8.7016,0.0938,0.0444,0.4281,64
15.893,306,-0.6972,-2.1985,-1.095,0.1992,0.1831,0.2419,96,16.549,319,-2.4571,0.2417,-8.6246,0.1288,-0.0187,0.4812,64
15.945,307,-0.7306,-2.3094,-1.0815,0.2386,0.212,0.2116,96,16.601,320,-2.5519,0.3909,-8.449,0.1427,-0.0564,0.4838,64
15.996,308,-0.8129,-2.4287,-0.9763,0.2343,0.2117,0.1627,96,16.653,321,-2.6054,0.5367,-8.3753,0.1573,-0.0756,0.5337,64
16.048,309,-1.609,-3.1012,-0.6417,0.5799,0.3509,0.1206,96,16.705,322,-2.7359,0.6881,-8.2642,0.0895,-0.1072,0.5765,64
16.1,310,-1.463,-2.4627,-0.236,0.7294,0.4902,-0.6075,96,16.756,323,-2.7213,0.6793,-8.1658,-0.0184,-0.0831,0.5552,64
16.152,311,-1.2698,-1.8156,-0.3508,0.2009,0.2444,-0.1583,96,16.808,324,-2.5023,0.3895,-8.2165,-0.05,0.0243,0.4629,64
16.204,312,-0.962,-1.581,-0.3596,0.0958,0.2506,-0.1734,96,16.86,325,-2.537,0.2257,-8.3727,0.0494,0.1319,0.3899,64
16.255,313,-0.8534,-1.6283,-0.4234,-0.2281,0.3098,-0.129,96,16.912,326,-2.8518,0.3089,-8.5109,0.1761,0.2069,0.3758,64
16.307,314,-0.52,-1.4556,-0.2521,-0.373,0.404,-0.1022,96,16.964,327,-3.0473,0.6749,-8.7683,0.2506,0.1583,0.3865,64
16.359,315,-0.6559,-1.5458,-0.3959,-0.4257,0.4015,-0.1003,96,17.015,328,-3.1032,0.9567,-8.7654,0.3071,0.0411,0.4262,64
16.411,316,-0.614,-1.5607,-0.3961,-0.4167,0.3294,-0.1428,96,17.067,329,-3.0858,1.1329,-8.5281,0.2722,-0.0737,0.447,64
16.463,317,-0.508,-1.5574,-0.6531,-0.3436,0.3386,-0.1946,96,17.119,330,-3.057,1.1889,-8.2069,0.2177,-0.1031,0.4242,64
16.514,318,-0.4367,-1.4197,-0.6357,-0.2456,0.34,-0.2429,96,17.17,331,-2.8879,1.2756,-8.121,0.0837,-0.0761,0.3822,64
16.566,319,-0.343,-1.1408,-0.7248,0.0142,0.2985,-0.2727,96,17.222,332,-2.7165,1.1179,-8.1597,0.0037,-0.0083,0.329,64
16.618,320,-0.3968,-1.1357,-0.6023,0.2828,0.2689,-0.2829,96,17.274,333,-2.644,0.8608,-8.2654,-0.0456,0.0508,0.2812,64
16.67,321,-0.2751,-0.9455,-0.5712,0.3593,0.238,-0.242,96,17.326,334,-2.7342,0.7076,-8.5146,-0.0217,0.0782,0.2908,64
16.722,322,-0.2611,-0.944,-0.5822,0.353,0.2217,-0.183,96,17.378,335,-2.8359,0.6776,-8.6975,-0.0608,0.0476,0.3535,64
16.773,323,-0.3003,-0.9087,-0.6104,0.3172,0.2209,-0.1204,96,17.429,336,-2.8977,0.3827,-8.7333,-0.085,0.0482,0.3897,64
16.825,324,-0.2601,-0.936,-0.5785,0.279,0.2203,-0.0767,96,17.481,337,-2.7584,0.1382,-8.6098,0.0652,0.1771,0.3012,64
16.877,325,-0.2477,-0.9751,-0.5754,0.2309,0.2206,-0.0349,96,17.533,338,-2.9065,0.0192,-8.1821,0.3889,0.4362,0.1106,64
16.929,326,-0.2353,-0.9252,-0.5744,0.1585,0.2334,0.0069,96,17.585,339,-2.8912,0.4082,-8.3056,0.6055,0.675,-0.1153,64
16.981,327,-0.2173,-0.9045,-0.3452,-0.2018,0.2951,0.1033,96,17.636,340,-3.1716,0.5414,-8.0313,0.6878,0.7676,-0.1287,64
17.032,328,-0.2425,-1.019,-0.4223,-0.4262,0.3791,0.1442,96,17.688,341,-3.6044,0.1117,-7.3402,0.5199,0.9109,-0.1339,64
17.084,329,-0.2853,-1.1648,-0.4787,-0.5528,0.2158,0.1147,96,17.74,342,-2.2138,0.2349,-6.6594,1.0401,1.3274,-0.1595,64
17.136,330,-0.4253,-1.5309,-0.6991,-0.5515,0.0553,0.0198,96,17.792,343,-1.4231,0.1606,-5.9095,0.8774,1.6309,-0.375,64
17.188,331,-0.3757,-1.3344,-1.2012,-0.3859,0.0771,-0.0634,96,17.844,344,-0.4728,0.247,-5.3223,0.9252,1.9012,-0.3213,64
17.239,332,-0.476,-1.2941,-1.2057,-0.3011,0.0662,-0.0859,96,17.895,345,-0.1699,0.247,-5.085,0.5369,1.9826,-0.1506,64
17.291,333,-0.2322,-1.1165,-1.5106,-0.2765,0.0544,-0.0989,96,17.947,346,0.4467,0.9191,-4.9154,-0.246,1.6104,0.2238,64
17.343,334,-0.34,-1.1454,-1.4978,-0.2456,0.1095,-0.0833,96,17.999,347,0.8187,1.8192,-4.6815,-0.8174,0.9849,0.6219,64
17.395,335,-0.5292,-1.4584,-1.3992,0.0257,0.0165,-0.1105,96,18.051,348,0.2648,1.9538,-4.2034,-1.2344,0.3993,0.6853,64
17.447,336,-0.1633,-0.2597,-1.9815,0.7172,-0.3062,-0.4576,96,18.103,349,-0.0213,2.1369,-3.7648,-1.1163,0.1248,0.7138,64
17.498,337,-1.3616,-1.3441,-2.7953,1.2219,-0.5257,-0.9245,96,18.154,350,0.2883,2.1393,-3.3626,-1.1868,-0.1263,0.596,64
17.55,338,-1.8238,-2.4078,-2.38,0.5229,-0.2139,-0.6841,96,18.206,351,0.4333,1.8276,-3.1959,-0.6088,-0.1642,0.3101,64
17.602,339,-1.2428,-0.7756,-2.2,0.4347,-0.0559,-0.538,96,18.258,352,0.4151,1.3513,-3.2042,0.1141,-0.0838,0.0179,64
17.654,340,-0.8406,-0.2927,-1.977,0.2,0.1175,-0.5463,96,18.31,353,0.3904,0.5417,-3.2983,0.2418,-0.0671,-0.097,64
17.706,341,-0.6719,-0.0471,-2.0358,-0.1547,0.2362,-0.4158,96,18.362,354,0.3162,0.0784,-3.53,0.2484,-0.0386,0.0856,64
17.757,342,-0.642,-0.8405,-1.6722,-0.0194,0.2113,-0.3724,96,18.413,355,0.2388,0.185,-3.8946,0.1287,-0.0802,0.2861,64
17.809,343,-0.4883,-0.2412,-1.4741,0.376,0.0823,-0.3183,96,18.465,356,0.141,0.4531,-4.106,0.0883,-0.1614,0.396,64
17.861,344,-0.3167,-0.143,-1.5119,0.5627,0.0285,-0.201,96,18.517,357,-0.0271,0.4713,-4.2238,0.0779,-0.2211,0.4058,64
17.913,345,-0.225,-0.1262,-1.6988,0.585,0.0477,-0.1196,96,18.569,358,0.0035,0.4831,-4.4972,0.1043,-0.2277,0.4048,64
17.965,346,-0.2574,-0.168,-1.8654,0.5223,0.0913,-0.0681,96,18.62,359,0.3002,0.472,-4.9655,0.2351,-0.2381,0.3722,64
18.016,347,-0.3191,-0.3399,-1.9298,0.4052,0.1545,-0.0013,96,18.672,360,0.8559,1.0248,-6.0486,0.2186,-0.5437,0.1715,64
18.068,348,-0.2638,-0.3441,-1.8838,0.2855,0.2252,0.035,96,18.724,361,0.4144,1.2373,-6.4547,0.3802,-0.9162,-0.118,64
18.12,349,-0.1358,0.023,-1.8921,-0.0953,0.3316,0.1186,96,18.776,362,-0.5815,1.0457,-6.0844,0.5427,-1.153,-0.3479,64
18.172,350,-0.3414,-0.4241,-1.7148,-0.3856,0.4202,0.1327,96,18.828,363,-1.5649,0.6032,-4.9451,0.5681,-1.0738,-0.3722,64
18.224,351,-0.2452,-0.494,-1.8293,-0.3348,0.3611,0.0831,96,18.879,364,-2.6454,0.4913,-4.6612,0.5691,-0.7333,-0.1777,64
18.275,352,-0.2806,-0.7351,-1.9043,-0.2484,0.3216,0.0154,96,18.931,365,-2.8857,0.1674,-4.2001,0.7555,-0.135,0.0541,64
18.327,353,-0.2511,-0.6878,-1.975,-0.0554,0.3088,-0.0582,96,18.983,366,-2.8451,1.0338,-5.5394,0.5457,0.3748,0.1442,64
18.379,354,-0.038,-0.375,-1.9996,0.0126,0.3213,-0.08,96,19.035,367,-1.4294,1.2846,-6.8314,0.6106,0.6647,0.1688,64
18.431,355,0.0149,-0.2463,-1.9704,-0.0799,0.4401,-0.0483,96,19.086,368,-0.8417,1.7175,-7.4997,0.5795,0.5267,0.0361,64
18.482,356,-0.1338,-0.5002,-1.5808,-0.1901,0.5513,0.0084,96,19.138,369,-1.0881,1.5823,-7.0416,0.5923,0.3013,0.018,64
18.534,357,-0.1202,-0.6316,-1.6069,-0.3363,0.4107,0.0427,96,19.19,370,-1.6083,1.4032,-6.5674,0.4999,0.1618,0.1362,64
18.586,358,-0.2574,-0.6551,-1.653,-0.4156,0.382,0.0362,96,19.242,371,-1.9578,1.8705,-6.516,0.3578,0.0815,0.2828,64
18.638,359,-0.3414,-0.7752,-1.5222,-0.2177,0.2841,-0.0183,96,19.294,372,-1.5139,2.191,-7.0726,0.24,-0.1356,0.2121,64
18.69,360,-0.3019,-0.7309,-1.7338,-0.0071,0.2231,-0.0746,96,19.345,373,-1.2067,1.9879,-7.351,0.2229,-0.3976,0.0755,64
18.741,361,-0.2574,-0.7101,-1.6689,0.0454,0.2091,-0.0921,96,19.397,374,-1.1554,1.3177,-7.1243,0.2522,-0.5707,0.0616,64
18.793,362,-0.4546,-1.0825,-1.88,0.1307,0.207,-0.1064,96,19.449,375,-1.4019,1.0022,-6.9724,0.2629,-0.5654,0.2061,64
18.845,363,-0.0233,-0.2648,-1.7504,0.4424,0.2037,-0.1627,96,19.501,376,-1.7671,1.0494,-6.8771,0.2304,-0.4442,0.3879,64
18.897,364,-0.0366,-0.6301,-1.6507,0.615,0.2377,-0.174,96,19.553,377,-2.0866,1.1957,-6.882,0.2194,-0.2249,0.4865,64
18.948,365,0.0746,-0.2019,-1.5527,0.5367,0.3695,-0.2035,96,19.605,378,-2.2878,1.4438,-7.2656,0.141,-0.0333,0.4735,64
19.0,366,-0.1323,-0.3413,-1.2479,0.4156,0.4391,-0.17,96,19.656,379,-2.7058,1.4389,-7.3971,0.1496,0.1012,0.3908,64
19.052,367,-0.1269,-0.5942,-1.1637,0.2927,0.4159,-0.1234,96,19.708,380,-3.3876,1.2804,-7.056,0.1296,0.2761,0.2937,64
19.104,368,-0.1724,-0.6437,-0.9443,0.1451,0.4109,-0.103,96,19.76,381,-2.9881,1.3353,-7.4473,0.197,0.505,0.3958,64
19.156,369,-0.1782,-0.6436,-0.9901,0.0782,0.3768,-0.0832,96,19.812,382,-2.1984,1.2952,-7.9228,-0.0594,0.4538,0.4923,64
19.208,370,-0.16,-0.6608,-0.9615,-0.1057,0.4026,-0.0513,96,19.863,383,-1.3147,1.4031,-8.0223,0.0239,0.3106,0.5059,64
19.259,371,-0.0782,-0.7223,-1.012,-0.1299,0.3933,-0.0415,96,19.915,384,-1.4524,1.1585,-7.3689,0.0459,0.1409,0.4132,64
19.311,372,-0.1051,-0.743,-0.885,-0.2047,0.4804,-0.0211,96,19.967,385,-1.683,0.5394,-6.8014,0.2417,0.2022,0.312,64
19.363,373,-0.107,-0.8438,-0.8943,-0.1739,0.5171,-0.04,96,20.019,386,-1.7704,0.1367,-6.5829,0.5204,0.4137,0.3103,64
19.415,374,-0.0912,-0.8001,-0.7388,-0.1242,0.4719,-0.0697,96,20.07,387,-1.6719,0.1264,-6.9913,0.4413,0.5914,0.4056,64
19.467,375,-0.0674,-0.8035,-0.6436,-0.1219,0.4795,-0.064,96,20.122,388,-1.5336,0.2411,-7.4152,0.3878,0.6143,0.5255,64
19.518,376,-0.1274,-0.4823,-0.7037,-0.2273,0.4785,-0.0464,96,20.174,389,-1.1803,0.3759,-7.4147,0.5972,0.5718,0.5272,64
19.57,377,-0.1028,-0.4581,-0.6298,-0.3234,0.4333,-0.0727,96,20.226,390,-0.8286,0.9894,-6.984,1.0386,0.4956,0.328,64
19.622,378,-0.081,-0.8601,-0.4163,-0.4962,0.3273,-0.0846,96,20.277,391,-0.6818,1.3359,-6.4503,1.0885,0.4213,0.1661,64
19.674,379,0.0394,-0.2595,-0.3756,-0.8469,0.4481,-0.1225,96,20.329,392,-0.619,1.1402,-6.0792,1.0638,0.3495,0.1239,64
19.726,380,-0.2344,-1.6826,-0.783,-0.9946,0.5192,-0.0341,96,20.381,393,-0.6105,0.3604,-5.7978,0.9077,0.2726,0.1681,64
19.777,381,0.8131,0.4515,-0.58,-0.3677,0.3664,-0.2652,96,20.433,394,-0.59,0.0801,-5.6878,0.6737,0.2862,0.393,64
19.829,382,0.6602,0.6477,-0.5161,-0.0461,0.1466,-0.2287,96,20.485,395,-0.6943,0.1457,-5.7125,0.2267,0.2933,0.6798,64
19.881,383,0.4131,0.3062,-0.7149,0.131,0.0171,-0.1917,96,20.536,396,-0.9093,0.3298,-5.8255,-0.1402,0.2211,0.8941,64
19.933,384,0.1025,0.0401,-0.7635,0.1466,-0.031,-0.1722,96,20.588,397,-1.0767,0.6874,-5.9264,-0.3189,0.1335,0.9461,64
19.984,385,-0.0096,0.1448,-1.1214,0.0591,0.1308,-0.1212,96,20.64,398,-1.0851,0.9422,-5.9975,-0.4161,0.0617,0.8258,64
20.036,386,0.1969,-0.2572,-1.3317,-0.0968,0.2148,-0.0314,96,20.692,399,-1.0075,0.907,-6.0838,-0.3612,0.0112,0.5766,64
20.088,387,0.0217,-0.6754,-1.1057,-0.1777,0.3387,-0.0277,96,20.743,400,-0.8937,0.6304,-6.0953,-0.2722,-0.0383,0.3267,64
20.14,388,-0.0052,-0.7217,-1.1137,-0.0845,0.3652,-0.0507,96,20.795,401,-0.84,0.1647,-6.0356,-0.1245,-0.0491,0.129,64
20.192,389,-0.0207,-0.5995,-0.9271,0.1353,0.3468,-0.0767,96,20.847,402,-0.9551,-0.3934,-5.9157,0.0377,0.0311,0.011,64
20.243,390,-0.0449,-0.5798,-0.7408,0.2766,0.2809,-0.0687,96,20.899,403,-1.2139,-0.6268,-5.7563,0.2058,0.1699,0.0082,64
20.295,391,-0.0378,-0.6724,-0.7853,0.3354,0.2323,-0.0456,96,20.951,404,-1.3347,-0.5979,-5.6658,0.1855,0.2946,0.0695,64
20.347,392,-0.0292,-0.5093,-0.6824,0.3024,0.248,-0.0207,96,21.003,405,-0.8439,-0.8147,-5.3042,0.1733,0.488,0.1607,64
20.399,393,-0.077,-0.5957,-0.5392,0.2392,0.2276,-0.0072,96,21.054,406,-0.1805,-0.451,-5.1249,0.3329,0.6971,0.239,64
20.451,394,-0.0678,-0.7288,-0.5383,0.138,0.1965,0.0136,96,21.106,407,-0.1012,-0.0801,-4.8202,0.106,0.8219,0.1952,64
20.503,395,-0.0277,-0.6703,-0.58,-0.0187,0.2589,0.027,96,21.158,408,0.0133,0.3205,-4.6639,0.203,0.9741,0.3482,64
20.554,396,-0.0705,-0.7165,-0.6365,-0.1972,0.2848,0.0314,96,21.21,409,0.1755,0.5466,-4.4532,-0.1555,0.9218,0.5061,64
20.606,397,-0.1078,-0.7522,-0.705,-0.3184,0.2842,-0.0037,96,21.261,410,0.0699,0.7419,-4.3584,-0.4156,0.8656,0.6131,64
20.658,398,-0.1335,-0.8988,-0.6008,-0.3492,0.2138,-0.0181,96,21.313,411,0.0082,0.8706,-4.4486,-0.4433,0.8143,0.6549,64
20.71,399,-0.1967,-0.8715,-1.0413,-0.1377,0.0492,-0.0607,96,21.365,412,-0.1869,0.8356,-4.6193,-0.5121,0.6509,0.6069,64
20.762,400,-0.3521,-0.7725,-1.3869,0.061,0.0565,-0.1086,96,21.417,413,-0.3003,0.868,-4.6823,-0.3965,0.4474,0.5438,64
20.813,401,-0.689,-1.1171,-1.4745,-0.0368,0.0351,-0.1115,96,21.468,414,-0.0954,0.7125,-4.5469,-0.3387,0.1534,0.3974,64
20.865,402,-0.0825,-0.6484,-1.9716,-0.0208,0.1964,-0.1264,96,21.52,415,0.4154,0.764,-4.4465,-0.0734,-0.1025,0.234,64
20.917,403,-0.1168,-0.82,-1.6019,-0.0928,0.4573,-0.1306,96,21.572,416,0.5102,0.7772,-4.4604,0.1025,-0.3834,0.0893,64
20.969,404,-0.1994,-0.9086,-1.2837,-0.1406,0.6198,-0.1327,96,21.624,417,0.208,0.7175,-4.3681,0.2244,-0.6095,0.0033,64
21.021,405,-0.2349,-0.8134,-0.9346,-0.1266,0.6487,-0.1183,96,21.676,418,-0.1557,0.672,-4.3745,0.353,-0.721,0.0065,64
21.072,406,-0.3394,-0.9363,-0.664,-0.0798,0.5697,-0.1045,96,21.727,419,-0.4716,0.6705,-4.6552,0.4574,-0.7515,0.0749,64
21.124,407,-0.4267,-1.0605,-0.5696,0.0388,0.4594,-0.0854,96,21.779,420,-0.5132,0.7657,-5.3411,0.5167,-0.7956,0.1841,64
21.176,408,-0.3853,-1.0846,-0.5109,0.3047,0.3228,-0.0797,96,21.831,421,-0.5299,0.6569,-5.8429,0.4631,-0.9021,0.2435,64
21.228,409,-0.2762,-0.9942,-0.3738,0.7538,0.1052,-0.1109,96,21.883,422,-0.9198,0.51,-6.0635,0.4652,-0.968,0.2941,64
21.28,410,-0.2343,-0.8981,-0.5516,0.8967,0.0197,-0.1277,96,21.934,423,-1.5453,0.2154,-6.0725,0.4483,-0.8938,0.3234,64
21.331,411,-0.1463,-0.7452,-0.5579,0.8165,0.0269,-0.1264,96,21.986,424,-2.061,0.2474,-6.428,0.3758,-0.7405,0.3982,64
21.383,412,-0.1989,-0.7232,-0.4442,0.7043,0.0949,-0.1138,96,22.038,425,-2.5199,0.3418,-6.822,0.2229,-0.6177,0.479,64
21.435,413,-0.1658,-0.736,-0.4126,0.6052,0.0921,-0.1015,96,22.09,426,-2.5599,0.3282,-7.1767,0.2161,-0.5174,0.533,64
21.487,414,-0.1869,-0.7478,-0.4237,0.4961,0.0976,-0.0959,96,22.142,427,-2.3835,0.5503,-7.3864,0.1279,-0.4328,0.5848,64
21.538,415,-0.1774,-0.7586,-0.4917,0.392,0.107,-0.0992,96,22.193,428,-2.2522,0.7478,-7.5173,-0.0027,-0.3241,0.5997,64
21.59,416,-0.1615,-0.746,-0.5693,0.3185,0.11,-0.0849,96,22.245,429,-2.5911,0.5044,-7.156,-0.2782,-0.1647,0.4899,64
21.642,417,-0.179,-0.8314,-0.5438,0.2815,0.121,-0.0705,96,22.297,430,-2.8219,0.1561,-6.911,-0.2692,0.1541,0.4483,64
21.694,418,-0.1494,-0.7872,-0.6396,0.2575,0.1203,-0.0524,96,22.349,431,-2.6706,0.2393,-6.8485,-0.2585,0.4662,0.4939,64
21.746,419,-0.1204,-0.8146,-0.6436,0.2266,0.1419,-0.0207,96,22.401,432,-1.6149,0.5236,-8.7185,-0.414,0.5726,0.5119,64
21.797,420,-0.1286,-0.8726,-0.7834,0.2337,0.1926,0.0029,96,22.453,433,-0.9753,0.7313,-8.1888,-0.2397,0.3865,0.4939,64
21.849,421,-0.1408,-0.9305,-0.7822,0.1984,0.2404,0.0115,96,22.504,434,-1.0835,0.6081,-7.4429,-0.1203,0.235,0.4248,64
21.901,422,-0.1514,-0.889,-0.7388,0.189,0.2803,0.0087,96,22.556,435,-1.3351,0.2502,-7.8918,-0.1287,0.1372,0.4378,64
21.953,423,-0.1936,-0.9233,-0.4509,0.1655,0.2834,0.0224,96,22.608,436,-1.3816,-0.0622,-7.4978,0.0689,0.148,0.3505,64
22.005,424,-0.2144,-1.0264,-0.5581,0.2088,0.2422,0.0356,96,22.66,437,-1.469,-0.4158,-7.3823,0.4498,0.3084,0.2122,64
22.057,425,-0.1829,-1.1307,-0.6371,0.1594,0.246,0.0683,96,22.712,438,-1.8296,-0.571,-7.2444,0.694,0.4914,0.2061,64
22.108,426,-0.1151,-1.0204,-0.2946,-0.1343,0.3012,0.1255,96,22.763,439,-1.5113,-0.2611,-7.297,0.6405,0.556,0.3174,64
22.16,427,0.0336,-1.2109,-0.5121,-0.3506,0.3502,0.1617,96,22.815,440,-0.9616,0.2408,-7.0409,0.511,0.5308,0.4768,64
22.212,428,0.056,-1.1535,-0.4994,-0.5218,0.3122,0.0988,96,22.867,441,-0.6518,0.6948,-6.5358,0.5784,0.4901,0.5275,64
22.264,429,-0.0388,-1.3326,-0.8194,-0.6264,0.3012,0.0181,96,22.919,442,-0.4735,0.7183,-6.0654,0.614,0.4671,0.442,64
22.316,430,-0.0066,-1.2209,-0.8311,-0.6399,0.3198,-0.0493,96,22.971,443,-0.3813,0.4331,-5.8941,0.8656,0.6016,0.295,64
22.367,431,-0.2396,-1.4944,-0.7814,-0.5882,0.2869,-0.0787,96,23.022,444,-0.307,0.3103,-5.9017,0.7219,0.6724,0.2938,64
22.419,432,-0.3196,-1.557,-1.1238,-0.3503,0.229,-0.1377,96,23.074,445,-0.5895,0.5942,-6.1632,0.5314,0.6651,0.3362,64
22.471,433,-0.5961,-1.4907,-1.3052,-0.1986,0.225,-0.1578,96,23.126,446,-0.9383,0.801,-6.5211,0.3945,0.5452,0.3061,64
22.523,434,-0.1195,-0.8678,-1.3587,-0.0983,0.1715,-0.2007,96,23.178,447,-1.3678,0.9767,-6.6385,0.4148,0.3291,0.193,64
22.575,435,-0.1713,-1.1194,-1.5403,-0.223,0.2556,-0.1533,96,23.23,448,-1.8782,1.1871,-6.466,0.3898,0.1351,0.0782,64
22.626,436,-0.1388,-1.0316,-1.4561,-0.333,0.4203,-0.1709,96,23.281,449,-2.0112,1.3459,-6.4457,0.2072,-0.0591,0.0338,64
22.678,437,-0.1088,-0.9254,-1.191,-0.4987,0.5486,-0.2004,96,23.333,450,-1.8339,1.0128,-6.442,-0.0349,-0.268,0.0284,64
22.73,438,-0.04,-0.4696,-0.7392,-0.244,0.5618,-0.2597,96,23.385,451,-1.5237,0.4486,-6.163,-0.022,-0.338,-0.0304,64
22.782,439,0.0152,-0.2349,-0.7284,-0.1293,0.4937,-0.2318,96,23.437,452,-1.0102,-0.0398,-5.9891,0.1672,-0.2663,-0.0372,64
22.834,440,-0.1029,-0.6524,-0.5878,-0.0089,0.3254,-0.1725,96,23.489,453,-0.5815,-0.1375,-6.0024,0.2441,-0.1868,0.0356,64
22.885,441,-0.4046,-1.2612,-0.8739,0.1664,0.1511,-0.135,96,23.54,454,-0.6736,0.335,-6.2601,0.4097,-0.071,0.0907,64
22.937,442,-0.3967,-0.7843,-1.0594,0.4581,0.0126,-0.1403,96,23.592,455,-0.44,0.5464,-6.4773,0.4802,-0.0381,0.0571,64
22.989,443,-0.0711,-0.653,-1.1777,0.4662,-0.0471,-0.0476,96,23.644,456,-0.4519,0.4246,-6.0871,0.5551,0.0018,0.0231,64
23.041,444,-0.2465,-0.8844,-1.222,0.2305,-0.052,0.0733,96,23.696,457,-0.5795,0.5379,-5.5554,0.6585,0.2015,-0.0283,64
23.092,445,-0.3485,-0.8947,-1.5024,0.0495,-0.0278,0.1029,96,23.748,458,-0.7626,0.9393,-5.3309,0.6954,0.5303,-0.0854,64
23.144,446,-0.2083,-1.4332,-1.752,-0.1899,-0.1692,0.1121,96,23.799,459,-1.1031,1.4569,-5.4645,0.5498,0.7537,-0.0663,64
23.196,447,-0.1004,-1.6434,-2.1399,-0.2799,-0.113,0.091,96,23.851,460,-1.4477,1.4379,-5.6231,0.2848,0.7286,-0.0111,64
23.248,448,-0.0324,-1.5986,-2.248,-0.2948,-0.0936,0.0561,96,23.903,461,-1.9304,1.7314,-5.9903,0.0344,0.662,0.2066,64
23.3,449,-0.1076,-1.6048,-2.0696,-0.1217,-0.0729,-0.0177,96,23.955,462,-1.58,1.8585,-6.4003,-0.4346,0.4749,0.4557,64
23.352,450,0.0845,-0.9426,-2.4825,0.5009,-0.3041,-0.2384,96,24.007,463,-0.7708,1.5617,-6.4865,-0.6081,0.2145,0.6363,64
23.403,451,-0.328,-1.3385,-2.5152,1.064,-0.3716,-0.5584,96,24.058,464,-0.3356,1.1401,-6.3136,-0.602,-0.1066,0.6647,64
23.455,452,-1.7816,-1.5163,-3.5988,1.475,-0.2686,-0.7678,96,24.11,465,-0.2196,1.0019,-6.2379,-0.5834,-0.3541,0.6252,64
23.507,453,0.1478,-0.5204,-2.3245,1.1613,-0.15,-0.6362,96,24.162,466,-0.4637,1.054,-6.3058,-0.6127,-0.5156,0.5855,64
23.559,454,-0.2378,0.0595,-2.3659,1.1089,-0.0607,-0.4609,96,24.214,467,-0.7617,1.4881,-6.4148,-0.7119,-0.6363,0.5562,64
23.611,455,-0.2387,-0.211,-2.175,0.89,0.1464,-0.355,96,24.266,468,-0.6694,1.4198,-6.42,-0.6995,-0.6859,0.5035,64
23.662,456,-0.0225,-0.1844,-2.079,0.6093,0.2776,-0.251,96,24.317,469,-0.7401,1.0992,-6.3837,-0.3352,-0.6441,0.3336,64
23.714,457,0.0646,0.1079,-2.0148,0.1414,0.4209,-0.1803,96,24.369,470,-1.0492,0.9063,-6.28,-0.0586,-0.5791,0.2343,64
23.766,458,-0.1098,-0.3719,-1.8608,-0.5501,0.4799,-0.1212,96,24.421,471,-1.716,0.9504,-6.1623,0.1055,-0.4588,0.2656,64
23.818,459,-0.4785,-2.1174,-2.2173,-0.1094,0.3354,-0.158,96,24.473,472,-2.1644,0.9842,-6.0974,0.2343,-0.2476,0.3004,64
23.87,460,-0.3399,-1.6851,-2.1256,0.1907,0.1605,-0.1957,96,24.524,473,-1.9641,0.7683,-6.2987,0.2817,0.0637,0.2927,64
23.921,461,-0.3494,-1.4484,-2.3035,0.2207,0.0343,-0.2057,96,24.576,474,-1.317,0.2561,-6.5089,0.5678,0.4051,0.2354,64
23.973,462,-0.326,-1.2336,-2.4963,0.1063,0.1346,-0.1371,96,24.628,475,-0.4573,0.3123,-6.7422,0.942,0.6889,0.323,64
24.025,463,-0.2648,-0.9757,-2.5231,-0.0658,0.3655,-0.0587,96,24.68,476,-0.0886,0.6951,-6.8099,0.699,0.6415,0.5117,64
24.077,464,-0.4146,-0.9037,-1.9838,-0.1813,0.4649,0.0196,96,24.732,477,-0.4418,0.8839,-6.636,0.4581,0.5117,0.7027,64
24.129,465,-0.348,-0.7718,-1.885,-0.2379,0.3936,0.0618,96,24.783,478,-1.5022,1.057,-6.1873,0.2694,0.4607,0.7685,64
24.18,466,-0.2645,-0.7146,-2.0862,-0.2872,0.4195,0.0929,96,24.835,479,-2.2664,1.3227,-6.0539,0.1009,0.5594,0.7639,64
24.232,467,-0.2484,-0.9798,-2.1075,-0.3577,0.5128,0.1201,96,24.887,480,-2.6139,1.4069,-5.9014,-0.1255,0.6968,0.7024,64
24.284,468,-0.3298,-1.0883,-1.9638,-0.2496,0.5483,0.0907,96,24.938,481,-1.8651,1.4515,-5.8878,-0.1717,0.8124,0.5617,64
24.336,469,-0.4203,-1.095,-1.8112,-0.1612,0.5555,0.0371,96,24.99,482,-1.1062,1.3703,-5.8802,0.0542,0.8002,0.3324,64
24.387,470,-0.6278,-1.068,-1.9591,-0.0945,0.5246,-0.0101,96,25.042,483,-0.5486,1.0694,-5.5635,0.2484,0.6666,0.166,64
24.439,471,-0.0262,-0.6371,-1.7262,0.0202,0.5896,-0.0616,96,25.094,484,-0.1462,0.7149,-4.895,0.4132,0.5226,0.0571,64
24.491,472,-0.1911,-0.5614,-1.596,0.0265,0.5599,-0.0538,96,25.146,485,-0.129,0.2231,-4.1903,0.5034,0.585,-0.0055,64
24.543,473,0.0504,-0.857,-1.5231,0.0828,0.4914,-0.0711,96,25.197,486,-0.0758,0.2093,-3.7305,0.3702,0.6578,0.1574,64
24.595,474,-0.0268,-0.6911,-1.4507,0.0616,0.453,-0.0711,96,25.249,487,-0.0785,0.2557,-3.4248,-0.0664,0.6391,0.4677,64
24.647,475,-0.0514,-0.6247,-1.1913,0.0479,0.4106,-0.0719,96,25.301,488,-0.1017,0.5945,-3.5751,-0.6839,0.5216,0.7569,64
24.698,476,-0.0015,-0.6087,-1.113,0.0494,0.318,-0.0725,96,25.353,489,0.021,0.8298,-3.7476,-1.0881,0.4469,0.893,64
24.75,477,-0.1085,-0.765,-0.9988,0.1515,0.2311,-0.1118,96,25.405,490,0.0249,0.7729,-3.7135,-1.1317,0.3455,0.9087,64
24.802,478,-0.1453,-0.5773,-1.1667,0.3774,0.0999,-0.1859,96,25.456,491,-0.2482,0.7173,-3.6412,-0.884,0.2783,0.8244,64
24.854,479,-0.8768,-0.9497,-1.389,0.5105,0.0359,-0.2234,96,25.508,492,-0.3495,0.7816,-3.6308,-0.6114,0.2575,0.7032,64
24.906,480,-0.7644,-1.4946,-2.0044,0.2199,0.0552,-0.1949,96,25.56,493,-0.2699,1.0354,-3.7443,-0.4044,0.1938,0.5557,64
24.957,481,-0.2927,-0.7588,-1.6787,-0.1682,0.4954,-0.1574,96,25.612,494,-0.0873,1.1241,-4.0013,-0.1293,0.0526,0.3415,64
25.009,482,-0.3462,-0.7323,-0.6707,-0.6457,0.7742,-0.2156,96,25.664,495,0.0601,1.095,-4.2036,0.3318,-0.0937,0.0731,64
25.061,483,-0.607,-0.7184,-0.7097,-1.1246,0.8726,-0.1441,96,25.715,496,0.2703,1.0842,-4.3792,0.6703,-0.2724,-0.1754,64
25.113,484,-0.5999,-1.2604,-0.6243,-1.228,0.7808,-0.0827,96,25.767,497,0.3969,0.803,-4.5554,0.6683,-0.5349,-0.314,64
25.165,485,-0.5588,-1.4917,-0.6554,-0.7705,0.6276,-0.086,96,25.819,498,0.3091,0.503,-4.422,0.5654,-0.7791,-0.2994,64
25.216,486,-0.4717,-1.0372,-0.5948,-0.1218,0.3621,-0.1007,96,25.871,499,-0.3826,-0.1034,-3.7357,0.4537,-0.7285,-0.2557,64
25.268,487,-0.2793,-0.932,-0.7798,0.4362,0.1294,-0.1021,96,25.922,500,-0.707,-0.4205,-3.1184,0.4345,-0.1642,-0.0299,64
25.32,488,-0.3342,-0.922,-0.6341,0.4987,0.0632,-0.0983,96,25.974,501,-0.536,-0.5963,-2.7563,0.4104,0.5888,0.2476,64
25.372,489,-0.2599,-0.7425,-0.631,0.507,-0.0249,-0.1394,96,26.026,502,1.0473,3.328,-2.9176,0.0131,1.0891,0.2442,64
25.424,490,-0.2043,-0.5636,-0.7686,0.4385,-0.0632,-0.1717,96,26.078,503,0.216,2.4798,-3.1124,-0.0155,0.8234,0.2541,64
25.475,491,-0.1934,-0.4483,-0.9539,0.2997,-0.0767,-0.1657,96,26.13,504,-0.5794,2.4293,-3.364,-0.101,0.6566,0.2765,64
25.527,492,-0.162,-0.4011,-1.1995,0.2262,-0.0224,-0.1328,96,26.181,505,-0.4597,2.2761,-3.0922,-0.0191,0.5557,0.2767,64
25.579,493,-0.2415,-0.4208,-1.1686,0.1703,0.0212,-0.1092,96,26.233,506,-0.0905,2.1103,-3.1941,0.0092,0.3658,0.2851,64
25.631,494,-0.2239,-0.4631,-1.2549,0.1533,0.0185,-0.1006,96,26.285,507,-0.1273,1.8669,-3.2064,-0.069,0.3581,0.316,64
25.683,495,-0.1048,-0.451,-1.3904,0.1543,0.0423,-0.0789,96,26.337,508,-0.2007,1.3222,-3.1078,-0.2436,0.3641,0.3627,64
25.734,496,-0.0099,-0.4196,-1.4812,0.0828,0.1286,-0.0707,96,26.388,509,0.3035,1.24,-2.7719,-0.2174,0.163,0.3921,64
25.786,497,-0.1395,-0.5319,-1.583,0.0435,0.2599,-0.0509,96,26.44,510,1.1108,1.2732,-3.1428,0.5346,-0.1691,0.4394,64
25.838,498,-0.188,-0.6911,-1.4535,0.0307,0.3497,-0.0715,96,26.492,511,1.0839,1.8769,-3.3682,0.8677,-0.5857,0.406,64
25.89,499,-0.1418,-0.706,-1.3355,0.0808,0.3927,-0.0858,96,26.544,512,0.0087,1.9312,-3.3547,0.4951,-0.8702,0.3739,64
25.942,500,-0.1234,-0.533,-1.1575,0.0354,0.4405,-0.0987,96,26.596,513,-1.2244,1.5347,-3.2346,0.2682,-0.8265,0.3871,64
25.993,501,-0.0702,-0.4078,-1.0445,-0.0287,0.4584,-0.0796,96,26.647,514,-1.9538,0.9852,-3.0558,0.1926,-0.4623,0.4849,64
26.045,502,-0.1301,-0.7038,-0.9495,-0.1825,0.4573,-0.0448,96,26.699,515,-1.9329,0.7633,-2.9285,-0.098,0.0823,0.4344,64
26.097,503,-0.121,-0.6768,-0.9472,-0.1958,0.416,-0.038,96,26.751,516,-1.4421,1.1591,-3.849,-0.214,0.7677,0.4935,64
26.149,504,-0.1469,-0.8675,-0.9429,-0.1223,0.3658,-0.0683,96,26.803,517,-0.8383,2.8387,-4.0382,0.2718,0.8752,0.3914,64
26.2,505,-0.1019,-0.6946,-0.9007,0.0322,0.3158,-0.1105,96,26.855,518,-0.0845,1.6073,-3.1907,0.4697,0.8727,0.306,64
26.252,506,-0.0911,-0.5226,-0.8212,0.0869,0.2888,-0.1259,96,26.906,519,0.0094,0.91,-3.1354,0.3741,0.7084,0.2904,64
26.304,507,-0.1122,-0.4975,-0.8022,0.1064,0.2263,-0.1051,96,26.958,520,-0.1133,1.3631,-2.9015,0.2738,0.546,0.2978,64
26.356,508,-0.1186,-0.4999,-0.881,0.0888,0.1862,-0.0669,96,27.01,521,0.4988,1.2688,-2.4054,0.2932,0.3849,0.375,64
