right_leg_timestamp,right_leg_index,right_leg_accel_x,right_leg_accel_y,right_leg_accel_z,right_leg_gyro_x,right_leg_gyro_y,right_leg_gyro_z,right_leg_battery_percentage,left_leg_timestamp,left_leg_index,left_leg_accel_x,left_leg_accel_y,left_leg_accel_z,left_leg_gyro_x,left_leg_gyro_y,left_leg_gyro_z,left_leg_battery_percentage
0.155,2,8.7874,-0.8636,-13.8319,-0.0277,-0.0654,-0.0028,91,0.374,7,2.2661,1.3958,-17.9594,0.2061,-0.5577,-0.4015,63
0.207,3,8.7841,-0.7823,-13.8637,-0.0032,-0.0471,-0.017,91,0.426,8,2.0476,1.3452,-18.2844,0.1406,-0.3909,-0.2905,63
0.259,4,8.7513,-0.8,-13.9179,0.0378,-0.0366,-0.0272,91,0.477,9,1.8504,1.3294,-18.6154,0.0727,-0.2466,-0.2063,63
0.31,5,8.7754,-0.713,-13.8623,0.0392,-0.0393,-0.0243,91,0.529,10,1.6323,1.4413,-18.8254,0.0325,-0.1552,-0.1325,63
0.362,6,8.7388,-0.769,-13.9345,0.0022,-0.0314,-0.0,91,0.581,11,1.3517,1.5236,-18.9519,-0.0163,-0.11,-0.0371,63
0.414,7,8.7251,-0.7553,-13.9583,0.0055,0.0021,0.0049,91,0.633,12,1.2139,1.5723,-19.0808,-0.0609,-0.0755,0.042,63
0.466,8,8.7239,-0.8086,-13.9063,0.044,0.0016,-0.0107,91,0.685,13,1.1401,1.6123,-19.1031,-0.0548,-0.0517,0.0888,63
0.518,9,8.7394,-0.6956,-13.9106,0.0748,-0.0101,-0.0211,91,0.736,14,1.0916,1.7166,-19.1073,-0.0539,-0.0209,0.1131,63
0.569,10,8.7476,-0.6767,-13.9112,0.0432,-0.0167,-0.0168,91,0.788,15,1.0499,1.817,-19.1417,-0.0825,0.009,0.1336,63
0.621,11,8.7598,-0.6627,-13.9308,0.0401,-0.0072,-0.0157,91,0.84,16,1.0222,1.8951,-19.2353,-0.1182,0.0289,0.1428,63
0.673,12,8.7599,-0.72,-13.9027,0.0462,0.0001,-0.0168,91,0.892,17,1.0834,1.8562,-19.2626,-0.1175,0.0244,0.1273,63
0.725,13,8.7631,-0.704,-13.902,0.0811,-0.0012,-0.0313,91,0.944,18,1.1604,1.9336,-19.1736,-0.0634,0.0279,0.0963,63
0.776,14,8.7685,-0.5863,-13.8929,0.073,0.0071,-0.0233,91,0.995,19,1.2008,2.0506,-19.0727,-0.0949,0.0485,0.0725,63
0.828,15,8.7299,-0.9622,-13.8506,0.0225,0.003,-0.0035,91,1.047,20,1.2464,2.0738,-19.1325,-0.1142,0.08,0.0448,63
0.88,16,8.7504,-0.8192,-13.8924,0.062,-0.0035,-0.0226,91,1.099,21,1.2875,2.1024,-19.2399,-0.0927,0.1008,0.003,63
0.932,17,8.7699,-0.7179,-13.873,0.0427,-0.0069,-0.0163,91,1.151,22,1.3175,2.0905,-19.2865,-0.075,0.1013,-0.0558,63
0.984,18,8.771,-0.4554,-13.832,-0.0459,-0.003,0.0234,91,1.203,23,1.3012,2.1097,-19.2893,-0.0251,0.0915,-0.1102,63
1.035,19,8.6626,-0.6555,-13.9498,-0.0476,-0.03,0.01,91,1.255,24,1.3076,2.1234,-19.2341,0.0099,0.061,-0.1478,63
1.087,20,8.689,-0.6686,-13.9746,-0.0212,-0.0326,-0.0113,91,1.306,25,1.3573,2.1334,-19.1913,0.0315,0.0413,-0.1536,63
1.139,21,8.6821,-0.6498,-14.0209,0.0405,-0.0373,-0.0365,91,1.358,26,1.4234,2.1252,-19.16,0.053,0.0308,-0.1634,63
1.191,22,8.7391,-0.5647,-13.9892,0.0256,-0.0222,-0.0107,91,1.41,27,1.4489,2.1113,-19.1203,0.0834,0.0273,-0.1663,63
1.243,23,8.7356,-0.4782,-13.9563,-0.0711,-0.0088,0.0489,91,1.462,28,1.5079,2.1451,-19.0837,0.0901,0.0107,-0.1497,63
1.294,24,8.7166,-0.6587,-13.946,-0.1053,-0.0278,0.0563,91,1.513,29,1.5782,2.0559,-19.1619,0.0727,-0.0034,-0.1073,63
1.346,25,8.7108,-0.6721,-13.9908,-0.077,-0.0263,0.0384,91,1.565,30,1.5587,2.0277,-19.2032,0.0812,-0.0161,-0.0872,63
1.398,26,8.746,-0.6424,-14.0092,-0.0466,-0.0296,0.023,91,1.617,31,1.4572,2.0289,-19.1723,0.0319,-0.0392,-0.064,63
1.45,27,8.7689,-0.6738,-13.9952,-0.039,-0.0268,0.0185,91,1.669,32,1.2796,2.0282,-19.1235,-0.0402,-0.0558,-0.0371,63
1.502,28,8.769,-0.6731,-14.0263,0.0036,-0.0212,-0.0052,91,1.721,33,1.2063,2.047,-19.0719,-0.0662,-0.0632,0.0118,63
1.553,29,8.7469,-0.6964,-14.0321,0.0518,-0.0115,-0.0284,91,1.772,34,1.231,2.0969,-19.0847,-0.1211,-0.0662,0.0597,63
1.605,30,8.7639,-0.611,-14.0393,0.1058,-0.0177,-0.0535,91,1.824,35,1.252,2.1465,-19.1103,-0.154,-0.063,0.0914,63
1.657,31,8.7479,-0.5393,-14.0647,0.0709,-0.0128,-0.0323,91,1.876,36,1.2345,2.2108,-19.1565,-0.1315,-0.0528,0.1014,63
1.709,32,8.7207,-0.6582,-14.0945,0.0561,-0.0102,-0.0348,91,1.927,37,1.1792,2.2526,-19.1432,-0.0991,-0.0311,0.0948,63
1.761,33,8.7227,-0.6371,-14.0717,0.06,-0.009,-0.0401,91,1.979,38,1.0946,2.3082,-19.1239,-0.0535,0.0033,0.0716,63
1.812,34,8.7131,-0.5879,-14.0821,0.1175,-0.0144,-0.0665,91,2.031,39,1.1292,2.3661,-19.091,-0.0315,0.0309,0.0362,63
1.864,35,8.7304,-0.5879,-14.052,0.1112,-0.0239,-0.0673,91,2.083,40,1.1588,2.3676,-19.1309,-0.0226,0.0407,0.005,63
1.916,36,8.7126,-0.6945,-14.0886,0.1002,-0.0294,-0.0722,91,2.135,41,1.1897,2.3351,-19.1161,-0.0235,0.0301,-0.0244,63
1.968,37,8.7281,-0.6108,-14.0608,0.1158,-0.0317,-0.0838,91,2.186,42,1.2645,2.3018,-19.1315,-0.0141,0.0287,-0.042,63
2.019,38,8.7198,-0.4892,-14.0912,0.096,-0.0371,-0.0807,91,2.238,43,1.2949,2.2614,-19.0693,0.0097,0.0369,-0.0648,63
2.071,39,8.7178,-0.4381,-14.101,0.0497,-0.0419,-0.0549,91,2.29,44,1.306,2.2587,-19.0358,0.0398,0.0573,-0.0773,63
2.123,40,8.7259,-0.704,-14.0954,-0.1577,-0.0642,0.0236,91,2.342,45,1.2992,2.3141,-19.0421,0.0489,0.0641,-0.0749,63
2.175,41,8.6807,-0.6252,-14.1692,-0.1288,-0.0598,0.0059,91,2.393,46,1.3319,2.3784,-19.0948,0.0414,0.0679,-0.0669,63
2.227,42,8.6786,-0.561,-14.1933,-0.0683,-0.0527,-0.0093,91,2.445,47,1.3657,2.4,-19.1093,0.0394,0.0616,-0.0684,63
2.278,43,8.633,-0.5501,-14.2484,-0.0148,-0.032,-0.0188,91,2.497,48,1.3553,2.3817,-19.0756,0.0413,0.0592,-0.0852,63
2.33,44,8.6573,-0.5154,-14.239,-0.0063,-0.0154,-0.0008,91,2.549,49,1.3138,2.3659,-19.0132,0.0228,0.0399,-0.0819,63
2.382,45,8.633,-0.6146,-14.2832,0.0002,-0.0053,0.0099,91,2.601,50,1.385,2.3835,-19.0105,-0.0073,0.0283,-0.0589,63
2.434,46,8.6601,-0.5377,-14.235,0.0243,0.011,0.0072,91,2.652,51,1.4692,2.3205,-19.0742,-0.0349,0.0302,-0.0397,63
2.485,47,8.6537,-0.5527,-14.2218,0.0327,0.0172,0.0045,91,2.704,52,1.5122,2.2685,-19.1439,-0.0389,0.0332,-0.0273,63
2.537,48,8.6594,-0.5271,-14.1818,0.034,0.0282,-0.0044,91,2.756,53,1.4483,2.2637,-19.1316,-0.0239,0.0253,-0.0131,63
2.589,49,8.6416,-0.5746,-14.1736,0.0243,0.0299,-0.0041,91,2.808,54,1.3834,2.2709,-19.0944,-0.0148,0.0092,0.0118,63
2.641,50,8.6765,-0.5282,-14.1585,0.0315,0.0227,-0.0094,91,2.86,55,1.3716,2.3062,-19.0636,-0.0189,0.0046,0.0378,63
2.693,51,8.6798,-0.4824,-14.1442,0.0278,0.0221,-0.0029,91,2.911,56,1.3942,2.3624,-19.0707,-0.0195,0.0059,0.0515,63
2.745,52,8.6766,-0.5054,-14.1364,0.0217,0.0205,0.0014,91,2.963,57,1.3975,2.3859,-19.045,-0.0205,0.0076,0.0516,63
2.796,53,8.6779,-0.5054,-14.1169,0.0171,0.0184,0.0081,91,3.015,58,1.3964,2.425,-19.0285,-0.0206,0.0045,0.0347,63
2.848,54,8.6939,-0.5055,-14.0937,0.0244,0.0125,0.0089,91,3.067,59,1.4296,2.467,-19.012,-0.0154,0.0058,0.0177,63
2.9,55,8.6748,-0.5424,-14.0864,0.0213,0.0064,0.012,91,3.118,60,1.4653,2.5061,-19.0102,-0.0166,0.014,-0.0122,63
2.952,56,8.6657,-0.5455,-14.0967,0.0141,-0.0008,0.0143,91,3.17,61,1.4865,2.5386,-19.0254,-0.0141,0.0244,-0.0444,63
3.004,57,8.7027,-0.4638,-14.0468,-0.0362,-0.0164,0.0272,91,3.222,62,1.4784,2.5463,-19.0123,-0.0165,0.0345,-0.0801,63
3.055,58,8.6869,-0.5269,-14.0767,-0.0355,-0.0252,0.0264,91,3.274,63,1.482,2.5363,-19.0098,-0.0119,0.0431,-0.1168,63
3.107,59,8.6953,-0.5007,-14.1053,-0.0326,-0.0334,0.0258,91,3.326,64,1.4767,2.5077,-18.9964,-0.0137,0.0453,-0.1424,63
3.159,60,8.6907,-0.3604,-14.0887,-0.1181,-0.0374,0.0656,91,3.377,65,1.4724,2.4986,-19.0071,-0.0091,0.046,-0.1591,63
3.211,61,8.5941,-0.5959,-14.1609,-0.1126,-0.0525,0.0582,91,3.429,66,1.4598,2.5166,-19.0525,0.0107,0.0362,-0.1624,63
3.263,62,8.6078,-0.5488,-14.2042,-0.0714,-0.0443,0.0393,91,3.481,67,1.472,2.5334,-19.0484,0.0065,0.0077,-0.16,63
3.314,63,8.5955,-0.5467,-14.2336,-0.0553,-0.0454,0.0332,91,3.533,68,1.4941,2.5023,-19.0045,0.0065,-0.0042,-0.1429,63
3.366,64,8.6106,-0.5229,-14.271,-0.0551,-0.0417,0.0337,91,3.584,69,1.494,2.4777,-18.9466,-0.0065,-0.0038,-0.1199,63
3.418,65,8.6239,-0.5067,-14.2676,-0.1098,-0.0356,0.062,91,3.636,70,1.5061,2.4943,-18.9069,-0.009,0.0026,-0.0811,63
3.47,66,8.5909,-0.5556,-14.3198,-0.136,-0.0288,0.0739,91,3.688,71,1.5394,2.4881,-18.957,-0.0502,0.0087,-0.0362,63
3.521,67,8.5606,-0.5701,-14.3369,-0.1474,-0.0188,0.0835,91,3.74,72,1.5323,2.4743,-19.0039,-0.0407,0.017,0.0,63
3.573,68,8.5413,-0.6007,-14.3454,-0.1429,-0.0154,0.0819,91,3.792,73,1.5097,2.4839,-18.9946,-0.0289,0.0196,0.0398,63
3.625,69,8.4974,-0.5851,-14.3227,-0.149,-0.0115,0.0705,91,3.843,74,1.4585,2.5276,-18.9841,-0.0314,0.0129,0.0821,63
3.677,70,8.4892,-0.5846,-14.3623,-0.1431,-0.0189,0.0541,91,3.895,75,1.482,2.6012,-18.9749,-0.0392,0.0052,0.1211,63
3.729,71,8.4703,-0.6612,-14.3617,-0.1024,-0.0083,0.0381,91,3.947,76,1.5003,2.6083,-18.9848,-0.0674,-0.0005,0.1412,63
3.78,72,8.3814,-0.7298,-14.43,0.0121,0.0056,-0.0019,91,3.999,77,1.5014,2.5769,-18.9514,-0.073,-0.0048,0.1496,63
3.832,73,8.4972,-0.6202,-14.3349,0.0644,-0.0034,-0.0455,91,4.051,78,1.5028,2.5589,-18.9208,-0.0741,-0.0013,0.1548,63
3.884,74,8.5206,-0.5382,-14.4004,0.0868,-0.0136,-0.0671,91,4.103,79,1.536,2.62,-18.9104,-0.0738,0.0075,0.1541,63
3.936,75,8.5561,-0.4193,-14.3881,0.0618,0.0033,-0.0481,91,4.154,80,1.5787,2.6772,-18.9356,-0.0833,0.0129,0.1436,63
3.988,76,8.5191,-0.5527,-14.3957,0.0265,0.0131,-0.0145,91,4.206,81,1.5759,2.642,-18.9323,-0.0743,0.0094,0.1186,63
4.039,77,8.503,-0.5375,-14.3827,0.0404,0.0115,-0.0268,91,4.258,82,1.5937,2.6551,-18.9172,-0.0474,0.0095,0.0996,63
4.091,78,8.542,-0.5432,-14.3671,0.0509,-0.0047,-0.0341,91,4.31,83,1.6219,2.7254,-18.9019,-0.0157,0.0183,0.0891,63
4.143,79,8.5436,-0.5593,-14.3657,0.0796,-0.0056,-0.0484,91,4.361,84,1.6422,2.8025,-18.9151,-0.0122,0.0325,0.0752,63
4.194,80,8.5507,-0.5198,-14.3765,0.0836,-0.0027,-0.0462,91,4.413,85,1.6141,2.8512,-18.9127,-0.0144,0.0311,0.0506,63
4.246,81,8.5952,-0.4871,-14.3563,0.0623,0.0123,-0.0282,91,4.465,86,1.6,2.8199,-18.87,-0.0297,0.0206,0.0184,63
4.298,82,8.5999,-0.4857,-14.3185,-0.0038,0.0079,0.0033,91,4.517,87,1.6468,2.7675,-18.8025,-0.016,0.0236,-0.0165,63
4.35,83,8.5959,-0.4713,-14.3285,0.0007,0.0133,-0.0068,91,4.568,88,1.6908,2.7509,-18.8508,-0.012,0.0532,-0.0288,63
4.402,84,8.6156,-0.4727,-14.3075,0.0028,0.0102,-0.0033,91,4.62,89,1.7605,2.7958,-18.8953,-0.0029,0.0644,-0.0599,63
4.454,85,8.6062,-0.4818,-14.3282,0.0012,0.0075,0.0041,91,4.672,90,1.7586,2.8133,-18.9155,0.0105,0.0629,-0.0856,63
4.506,86,8.604,-0.5006,-14.3215,-0.0012,-0.0032,0.0052,91,4.724,91,1.7609,2.7989,-18.8629,0.0155,0.0458,-0.0943,63
4.557,87,8.6047,-0.5345,-14.3169,-0.0023,-0.0158,-0.0009,91,4.775,92,1.7856,2.7696,-18.8216,-0.0002,0.035,-0.0909,63
4.609,88,8.6055,-0.5809,-14.3495,0.0291,-0.0253,-0.0291,91,4.827,93,1.8279,2.7212,-18.8168,-0.0073,0.0342,-0.0739,63
4.661,89,8.6124,-0.501,-14.3638,0.0641,-0.0148,-0.0485,91,4.879,94,1.8512,2.7409,-18.8608,0.0069,0.0285,-0.0504,63
4.712,90,8.6162,-0.4293,-14.3386,0.0607,-0.0102,-0.0406,91,4.931,95,1.8693,2.7683,-18.8531,0.0004,0.0141,-0.0271,63
4.765,91,8.6152,-0.354,-14.3242,0.0183,-0.0092,-0.0154,91,4.983,96,1.8732,2.7656,-18.8207,0.012,0.0031,-0.0107,63
4.816,92,8.5487,-0.4879,-14.3642,0.0213,-0.0211,-0.035,91,5.034,97,1.8756,2.7732,-18.7974,0.0062,0.0087,-0.0091,63
4.868,93,8.5831,-0.4323,-14.3865,0.0346,-0.0147,-0.0479,91,5.086,98,1.8658,2.7856,-18.8263,-0.0011,0.0216,-0.0085,63
4.92,94,8.5673,-0.4546,-14.4071,0.0625,0.0062,-0.051,91,5.138,99,1.8115,2.8028,-18.9053,0.0054,0.0203,-0.0106,63
4.972,95,8.5924,-0.3961,-14.3689,0.0684,0.0189,-0.0461,91,5.19,100,1.7514,2.8043,-18.8774,0.0296,-0.0048,-0.007,63
5.023,96,8.5733,-0.4613,-14.3473,0.0766,0.0143,-0.0469,91,5.241,101,1.7496,2.8236,-18.8029,0.0191,-0.029,-0.0006,63
5.075,97,8.5934,-0.3521,-14.3206,0.0639,0.001,-0.0448,91,5.293,102,1.7986,2.8137,-18.7836,-0.0124,-0.0222,-0.0031,63
5.127,98,8.6115,-0.3638,-14.3217,0.053,-0.0094,-0.0418,91,5.345,103,1.7869,2.8093,-18.8541,-0.0076,-0.0003,-0.0193,63
5.179,99,8.6099,-0.2945,-14.3399,0.0522,-0.0127,-0.039,91,5.397,104,1.7279,2.7803,-18.926,-0.0026,-0.0008,-0.0287,63
5.23,100,8.5915,-0.4436,-14.3657,0.0261,-0.0177,-0.023,91,5.449,105,1.6783,2.8095,-18.9244,0.0233,-0.0198,-0.0395,63
5.282,101,8.5928,-0.4008,-14.3579,0.0316,-0.0172,-0.0249,91,5.5,106,1.6752,2.842,-18.8477,0.0339,-0.034,-0.0585,63
5.334,102,8.5815,-0.4553,-14.372,0.0228,-0.0232,-0.0167,91,5.552,107,1.7262,2.8757,-18.7825,0.0448,-0.023,-0.0854,63
5.386,103,8.5933,-0.3861,-14.3722,0.0263,-0.0268,-0.0085,91,5.604,108,1.7889,2.8558,-18.7764,0.0454,0.0062,-0.1089,63
5.438,104,8.5712,-0.3727,-14.394,0.0258,-0.0351,0.0004,91,5.656,109,1.7662,2.836,-18.7899,0.0498,0.0272,-0.1226,63
5.489,105,8.5744,-0.4172,-14.3949,0.0188,-0.0398,0.012,91,5.708,110,1.7334,2.792,-18.8351,0.0394,0.0363,-0.1248,63
5.541,106,8.5695,-0.3445,-14.4106,0.0112,-0.0446,0.0237,91,5.759,111,1.6835,2.7531,-18.8734,0.0431,0.0304,-0.1101,63
5.593,107,8.6939,-0.5439,-14.3779,-0.2241,-0.0403,0.1339,91,5.811,112,1.6616,2.7229,-18.8898,0.0423,0.0119,-0.0732,63
5.645,108,8.7086,-0.453,-14.4474,-0.3372,-0.0777,0.1662,91,5.863,113,1.648,2.7268,-18.8535,0.0442,-0.0011,-0.0413,63
5.696,109,8.6751,-0.2939,-14.5247,-0.3481,-0.0758,0.1498,91,5.915,114,1.6556,2.7417,-18.8364,0.0459,0.0044,-0.0152,63
5.748,110,8.5148,-0.3932,-14.6391,-0.3653,-0.0552,0.131,91,5.967,115,1.6797,2.7633,-18.8511,0.0432,0.0173,-0.0098,63
5.8,111,8.2039,-0.862,-14.6809,-0.2249,0.0178,0.112,91,6.018,116,1.6811,2.79,-18.8291,0.0396,0.0154,-0.0096,63
5.852,112,8.6999,-0.1923,-14.4469,-0.107,0.0641,0.063,91,6.07,117,1.7254,2.8764,-18.8208,0.0034,0.0023,0.0083,63
5.904,113,8.6728,-0.2186,-14.5027,-0.1041,-0.0113,0.03,91,6.122,118,1.7688,2.8087,-18.9058,-0.0681,0.0069,0.0148,63
5.956,114,8.5985,-0.2646,-14.5684,-0.1122,-0.0177,0.0235,91,6.174,119,1.8339,2.6885,-18.9756,-0.088,0.025,-0.0078,63
6.007,115,8.569,-0.2603,-14.5686,-0.1006,-0.036,0.0125,91,6.225,120,1.8061,2.4846,-18.9735,-0.059,0.0356,-0.0576,63
6.059,116,8.5615,-0.1663,-14.5771,-0.1161,-0.0429,0.0091,91,6.277,121,1.5822,2.3972,-18.905,0.0254,0.0268,-0.0771,63
6.111,117,8.4694,-0.2066,-14.607,-0.1402,-0.0499,0.0108,91,6.329,122,1.5348,2.6003,-18.8281,0.1059,0.0268,-0.0163,63
6.163,118,8.4405,-0.2238,-14.6147,-0.135,-0.0421,0.0059,91,6.381,123,1.5993,2.6689,-18.8109,0.0495,-0.0041,0.0861,63
6.215,119,8.4733,-0.1106,-14.6162,-0.1054,-0.0368,-0.0133,91,6.432,124,1.7108,2.7353,-18.8215,0.0049,-0.0162,0.133,63
6.266,120,8.4302,-0.218,-14.6403,-0.0809,-0.0375,-0.0223,91,6.484,125,1.8494,2.7725,-18.8612,-0.0093,-0.0118,0.1287,63
6.318,121,8.1653,-0.3604,-14.8371,0.1082,-0.0096,-0.0589,91,6.536,126,1.9015,2.7531,-18.8489,-0.0267,-0.0093,0.0892,63
6.37,122,8.3259,-0.3478,-14.7071,0.1085,-0.0378,-0.065,91,6.588,127,1.9117,2.6922,-18.7844,-0.0319,0.0059,0.0571,63
6.422,123,8.2941,-0.3621,-14.8332,0.1729,-0.049,-0.0922,91,6.64,128,1.9047,2.6323,-18.7839,-0.0279,0.0252,0.0393,63
6.473,124,8.3937,-0.1469,-14.7591,0.1204,-0.0284,-0.0564,91,6.691,129,1.8935,2.6141,-18.8083,-0.028,0.0345,0.0384,63
6.525,125,8.3293,-0.0758,-14.7943,0.0172,-0.0461,-0.0041,91,6.743,130,1.884,2.5759,-18.7816,-0.0076,0.0236,0.0529,63
6.577,126,8.3367,-0.1786,-14.8042,-0.0706,-0.0886,0.0262,91,6.795,131,1.7768,2.6301,-18.7846,-0.0027,0.0225,0.0705,63
6.629,127,8.1504,-0.4507,-14.8877,-0.0419,-0.0781,-0.0056,91,6.847,132,1.772,2.723,-18.8085,0.0083,0.0299,0.088,63
6.681,128,8.3717,-0.119,-14.8095,0.0823,-0.0391,-0.075,91,6.899,133,1.8058,2.8227,-18.9196,-0.0089,0.0178,0.1059,63
6.732,129,8.3139,-0.1427,-14.874,0.1369,-0.0377,-0.1151,91,6.95,134,1.7465,2.8589,-18.9149,-0.0238,-0.0211,0.0881,63
6.784,130,8.3597,-0.1033,-14.8422,0.1592,-0.0268,-0.1415,91,7.002,135,1.7625,2.8827,-18.8212,-0.0526,-0.0528,0.0676,63
6.836,131,8.3286,-0.0732,-14.8998,0.1634,-0.0155,-0.1362,91,7.054,136,1.8285,2.7755,-18.7456,-0.0846,-0.0402,0.0145,63
6.888,132,8.3838,0.0148,-14.8516,0.1803,-0.005,-0.1351,91,7.106,137,1.9074,2.6805,-18.7872,-0.0797,-0.0087,-0.0458,63
6.939,133,8.374,0.0755,-14.8337,0.1204,-0.0042,-0.0846,91,7.158,138,1.9129,2.6093,-18.8237,-0.056,0.0211,-0.0877,63
6.991,134,8.3738,0.11,-14.8367,0.0763,-0.008,-0.047,91,7.209,139,1.878,2.6835,-18.8859,-0.0082,0.0326,-0.0824,63
7.043,135,8.3198,-0.1412,-14.8972,0.0297,-0.007,-0.0091,91,7.261,140,1.8483,2.7232,-18.9278,0.0039,0.0271,-0.0608,63
7.095,136,8.3399,-0.0875,-14.8595,0.0309,-0.0005,-0.0135,91,7.313,141,1.8318,2.748,-18.9224,0.0288,0.0176,-0.0443,63
7.147,137,8.3242,-0.0766,-14.8577,0.0427,-0.0028,-0.0118,91,7.364,142,1.7726,2.7791,-18.8495,0.0483,0.0046,-0.045,63
7.199,138,8.3336,-0.0335,-14.8604,0.0607,-0.0066,-0.012,91,7.416,143,1.7709,2.8368,-18.7918,0.041,-0.0097,-0.0343,63
7.25,139,8.3281,-0.0658,-14.87,0.0621,-0.0194,-0.0049,91,7.468,144,1.81,2.8694,-18.7671,0.0075,-0.0202,-0.0157,63
7.302,140,8.3052,-0.0782,-14.8983,0.0643,-0.0169,-0.0059,91,7.52,145,1.8509,2.8215,-18.7746,-0.0204,-0.0175,-0.012,63
7.354,141,8.3142,-0.0788,-14.8904,0.0582,-0.0167,-0.0038,91,7.572,146,1.8429,2.7593,-18.7992,-0.0159,-0.0113,-0.0177,63
7.406,142,8.3171,-0.0953,-14.8947,0.0414,-0.0106,0.017,91,7.623,147,1.8271,2.7439,-18.8316,0.0,-0.0101,-0.0044,63
7.458,143,8.3378,0.0747,-14.879,-0.039,-0.0097,0.0721,91,7.675,148,1.854,2.7298,-18.8486,-0.004,-0.0209,0.0216,63
7.509,144,8.2489,-0.2009,-14.9328,-0.1232,-0.0196,0.1269,91,7.727,149,1.8696,2.688,-18.8236,-0.0053,-0.0225,0.0538,63
7.561,145,8.284,-0.1957,-14.9156,-0.0871,-0.0074,0.082,91,7.779,150,1.8722,2.6528,-18.8061,-0.0065,-0.0177,0.0898,63
7.613,146,8.2822,-0.1512,-14.9491,-0.0435,-0.0041,0.0673,91,7.83,151,1.864,2.6885,-18.8225,-0.0072,-0.0097,0.131,63
7.665,147,8.3107,-0.1205,-14.9491,-0.0546,0.0205,0.09,91,7.882,152,1.8373,2.7511,-18.8309,-0.0157,-0.0129,0.1641,63
7.716,148,8.325,-0.1564,-14.8761,-0.107,0.0248,0.1215,91,7.934,153,1.8418,2.7953,-18.807,-0.0442,-0.0296,0.1845,63
7.768,149,8.3437,-0.2278,-14.8221,-0.1029,-0.0049,0.0979,91,7.986,154,1.8667,2.8006,-18.7672,-0.0555,-0.0311,0.1878,63
7.82,150,8.2943,-0.2904,-14.8658,-0.0838,-0.0278,0.0758,91,8.038,155,1.9221,2.7953,-18.7639,-0.0575,-0.0062,0.1595,63
7.872,151,8.257,-0.3777,-14.8803,-0.0475,-0.014,0.0518,91,8.089,156,1.9641,2.7906,-18.8097,-0.0503,0.0216,0.1324,63
7.924,152,8.2717,-0.3507,-14.8807,-0.0279,-0.0098,0.0284,91,8.141,157,1.8997,2.7896,-18.8356,-0.0474,0.0197,0.1159,63
7.975,153,8.2762,-0.3107,-14.9051,-0.0138,-0.0114,0.0109,91,8.193,158,1.8834,2.7778,-18.7904,-0.044,-0.0004,0.0966,63
8.027,154,8.2331,-0.3665,-14.91,0.004,0.0036,-0.0088,91,8.245,159,1.9272,2.7431,-18.6998,-0.0459,-0.001,0.0599,63
8.079,155,8.3217,-0.1606,-14.8995,0.0286,0.0182,-0.0247,91,8.296,160,2.0172,2.7366,-18.7312,-0.0314,0.0302,0.0217,63
8.131,156,8.2967,-0.2041,-14.9212,0.0295,0.0159,-0.0061,91,8.348,161,2.1052,2.7489,-18.8127,-0.0242,0.0436,0.0008,63
8.183,157,8.3418,-0.2239,-14.8437,0.0144,0.027,0.0042,91,8.4,162,2.1788,2.7986,-18.8389,-0.011,0.0352,-0.0037,63
8.234,158,8.343,-0.2217,-14.8884,-0.0237,0.0227,0.0273,91,8.452,163,2.1517,2.8282,-18.7561,-0.0139,0.0233,0.0101,63
8.286,159,8.3484,-0.2133,-14.8934,-0.0549,0.0615,0.0616,91,8.504,164,2.0502,2.8342,-18.6805,-0.0189,0.0316,0.0166,63
8.338,160,8.3858,-0.2577,-14.8744,-0.1004,0.0976,0.0929,91,8.556,165,1.948,2.8677,-18.6907,-0.0301,0.046,0.0128,63
8.39,161,8.38,-0.3476,-14.8184,-0.1398,0.1461,0.115,91,8.607,166,1.9121,2.9188,-18.7977,-0.034,0.0372,0.0012,63
8.442,162,8.266,-0.4139,-14.8579,-0.0928,0.205,0.1213,91,8.659,167,1.9487,2.9691,-18.8763,-0.0377,-0.0029,-0.0206,63
8.493,163,8.2672,-0.5592,-14.6576,-0.0661,0.2413,0.1245,91,8.711,168,1.9886,2.9509,-18.9099,-0.0401,-0.0365,-0.0351,63
8.545,164,8.4358,-0.3836,-14.5172,0.0658,0.2495,0.08,91,8.763,169,1.9727,2.859,-18.9616,-0.0482,-0.0635,-0.0471,63
8.597,165,8.5354,-0.5089,-14.29,0.096,0.1899,0.037,91,8.815,170,1.9568,2.7728,-18.9867,-0.0417,-0.0932,-0.0415,63
8.649,166,8.6046,-0.427,-14.2953,0.1733,0.1752,0.001,91,8.866,171,1.876,2.6649,-18.9328,-0.0164,-0.1297,-0.0238,63
8.701,167,8.6623,-0.4753,-14.1522,0.1416,0.1727,0.0284,91,8.918,172,1.7447,2.6413,-18.8235,0.0008,-0.1642,0.0175,63
8.752,168,8.704,-0.4147,-14.1033,0.117,0.1694,0.0426,91,8.97,173,1.6726,2.6822,-18.7212,0.0131,-0.1766,0.0596,63
8.804,169,8.7399,-0.4973,-14.0237,0.0181,0.1789,0.0951,91,9.022,174,1.6768,2.773,-18.6582,0.019,-0.1722,0.0982,63
8.856,170,8.7307,-0.6454,-13.9735,-0.0057,0.187,0.1075,91,9.074,175,1.7538,2.9731,-18.6845,0.0256,-0.1493,0.1033,63
8.908,171,8.7245,-0.8388,-13.8223,-0.012,0.1847,0.109,91,9.125,176,1.7019,3.0747,-18.7416,0.0025,-0.1158,0.0767,63
8.96,172,8.7699,-0.8247,-13.8057,0.0393,0.1824,0.1085,91,9.177,177,1.6128,3.1149,-18.7859,0.0002,-0.083,0.0251,63
9.011,173,8.8618,-0.7662,-13.6785,0.0438,0.2036,0.1311,91,9.229,178,1.4675,3.109,-18.8609,-0.0156,-0.0654,-0.0323,63
9.063,174,8.8661,-0.8489,-13.569,0.0632,0.2168,0.1374,91,9.281,179,1.3827,3.0456,-18.8982,-0.0343,-0.0766,-0.0761,63
9.115,175,8.8157,-0.9757,-13.4133,0.0671,0.203,0.1315,91,9.333,180,1.347,2.8829,-18.8954,-0.0563,-0.0875,-0.0928,63
9.167,176,8.8778,-1.0304,-13.3415,0.0918,0.1843,0.1211,91,9.384,181,1.3643,2.7729,-18.9195,-0.0275,-0.0851,-0.0747,63
9.218,177,8.8827,-1.0631,-13.1822,0.0629,0.1662,0.122,91,9.436,182,1.2853,2.8067,-18.9663,0.0099,-0.0748,-0.0439,63
9.27,178,8.918,-0.9452,-13.1762,-0.0022,0.1615,0.1342,91,9.488,183,1.2186,2.8455,-19.0262,0.0047,-0.1008,0.008,63
9.322,179,8.9118,-1.1547,-13.068,-0.1591,0.1504,0.1594,91,9.54,184,1.2099,2.8172,-18.9655,0.0054,-0.1371,0.0541,63
9.374,180,8.9428,-1.1693,-13.1055,-0.1933,0.1194,0.1261,91,9.591,185,1.241,2.877,-18.8918,0.0254,-0.1458,0.0705,63
9.426,181,8.9557,-1.2965,-13.0648,-0.1824,0.0934,0.0917,91,9.643,186,1.2919,2.9759,-18.8567,0.0394,-0.1222,0.0731,63
9.478,182,9.0572,-1.1498,-13.0581,-0.1225,0.0648,0.0516,91,9.695,187,1.267,3.0315,-18.867,0.0181,-0.0978,0.0551,63
9.529,183,9.0158,-1.2732,-13.0456,-0.0665,0.0464,0.022,91,9.747,188,1.2964,3.0032,-18.9295,-0.0048,-0.0718,0.0283,63
9.581,184,8.8576,-1.65,-13.003,-0.0022,-0.0011,-0.0135,91,9.799,189,1.3949,2.9168,-18.9539,-0.0011,-0.035,-0.0138,63
9.633,185,8.9231,-1.447,-13.0447,0.1164,-0.0322,-0.0566,91,9.851,190,1.4602,2.8576,-18.8916,0.0413,0.0304,-0.0762,63
9.685,186,8.9651,-1.557,-12.9335,0.2346,-0.063,-0.108,91,9.902,191,1.3711,2.8474,-18.7893,0.0641,0.0919,-0.135,63
9.736,187,8.9556,-1.3702,-12.964,0.2297,-0.0838,-0.1148,91,9.954,192,1.2461,2.8847,-18.7687,0.0531,0.132,-0.1534,63
9.788,188,9.0239,-1.3935,-13.0662,0.2306,-0.1288,-0.1309,91,10.006,193,1.2042,2.8804,-18.8031,0.0017,0.1326,-0.1237,63
9.84,189,8.9868,-1.4174,-13.1399,0.1634,-0.124,-0.0916,91,10.058,194,1.1749,2.8952,-18.8523,-0.0421,0.1239,-0.1045,63
9.892,190,9.0394,-1.293,-13.1821,0.1731,-0.1417,-0.0966,91,10.11,195,1.221,2.9116,-18.8837,-0.0425,0.1248,-0.087,63
9.944,191,9.0139,-1.2019,-13.2476,0.1761,-0.1371,-0.0884,91,10.161,196,1.2863,2.9296,-18.957,-0.0539,0.1168,-0.0759,63
9.995,192,8.9595,-1.2498,-13.324,0.107,-0.1324,-0.0574,91,10.213,197,1.3256,2.9723,-18.9761,-0.0131,0.097,-0.0788,63
10.047,193,8.9827,-0.9504,-13.3497,-0.0308,-0.1073,-0.0151,91,10.265,198,1.3383,3.0019,-18.9189,0.0008,0.0696,-0.086,63
10.099,194,8.8969,-1.3424,-13.3864,-0.3429,-0.1358,0.0451,91,10.317,199,1.3583,3.0031,-18.8633,0.0031,0.0548,-0.0833,63
10.151,195,8.873,-1.2026,-13.585,-0.3513,-0.1892,0.0115,91,10.369,200,1.4203,2.9881,-18.8692,0.0105,0.0654,-0.0789,63
10.203,196,8.7696,-1.2839,-13.7248,-0.2974,-0.1811,-0.0149,91,10.42,201,1.3716,2.9879,-18.8933,0.0301,0.0725,-0.085,63
10.255,197,8.7996,-1.039,-13.8237,-0.1614,-0.1363,-0.0453,91,10.472,202,1.3268,2.99,-18.9157,0.0293,0.0524,-0.078,63
10.306,198,8.7398,-0.9593,-13.8607,-0.1345,-0.098,-0.0371,91,10.524,203,1.4042,2.9787,-18.9003,0.0273,0.0196,-0.0553,63
10.358,199,8.7853,-0.9919,-13.8516,-0.1548,-0.1206,-0.0377,91,10.576,204,1.6347,2.9392,-18.8446,-0.0156,0.0025,-0.0221,63
10.41,200,8.7194,-0.8677,-13.9814,-0.1028,-0.0932,-0.0404,91,10.628,205,1.7569,2.8235,-18.7912,-0.0313,0.039,0.0015,63
10.462,201,8.7159,-0.9096,-13.9632,-0.0029,-0.0974,-0.0566,91,10.679,206,1.6805,2.7039,-18.7656,-0.0239,0.0896,0.0158,63
10.514,202,8.7284,-0.7525,-14.0667,0.0205,-0.0783,-0.0441,91,10.731,207,1.5392,2.7749,-18.8326,0.0037,0.1193,0.067,63
10.565,203,8.7908,-0.6739,-14.0439,0.0188,-0.0527,-0.0275,91,10.783,208,1.4406,2.9519,-18.8923,-0.0394,0.073,0.1521,63
10.617,204,8.774,-0.748,-14.1293,0.0009,-0.0367,-0.0167,91,10.835,209,1.4098,2.9661,-18.8951,-0.1014,0.0152,0.2131,63
10.669,205,8.7318,-0.7457,-14.1101,-0.0017,-0.0098,-0.0023,91,10.886,210,1.429,2.9257,-18.89,-0.0999,-0.0283,0.2306,63
10.721,206,8.7288,-0.7268,-14.1004,0.0037,0.0017,0.0056,91,10.938,211,1.466,2.9708,-18.8939,-0.0847,-0.0506,0.2399,63
10.772,207,8.7268,-0.6956,-14.0864,0.002,0.0186,0.0166,91,10.99,212,1.5209,3.0339,-18.91,-0.0644,-0.0687,0.2378,63
10.824,208,8.7464,-0.6642,-14.0615,-0.0561,0.0179,0.0353,91,11.042,213,1.583,3.1034,-18.8778,-0.0683,-0.079,0.2222,63
10.876,209,8.7312,-0.726,-14.0589,-0.0782,0.0242,0.0458,91,11.094,214,1.5401,3.0602,-18.8203,-0.0552,-0.0655,0.1858,63
10.928,210,8.736,-0.7577,-14.0553,-0.0754,0.0441,0.0542,91,11.145,215,1.4693,3.0686,-18.7664,-0.0372,-0.0536,0.1432,63
10.98,211,8.7367,-0.7851,-14.0208,-0.0493,0.06,0.0544,91,11.197,216,1.5058,3.1083,-18.7484,-0.0225,-0.0334,0.11,63
11.031,212,8.7672,-0.8312,-13.9223,-0.0173,0.0538,0.05,91,11.249,217,1.5755,3.148,-18.7717,-0.0092,-0.021,0.0735,63
11.083,213,8.7763,-0.8164,-13.916,0.0003,0.0372,0.0384,91,11.301,218,1.6615,3.1535,-18.788,-0.0119,-0.0126,0.0402,63
11.135,214,8.7597,-0.8529,-13.9146,0.0209,0.02,0.0207,91,11.353,219,1.6476,3.0698,-18.8073,-0.0031,-0.0029,0.0047,63
11.187,215,8.7794,-0.8475,-13.9156,0.0576,0.0039,-0.0023,91,11.404,220,1.6097,3.0113,-18.7865,0.0216,0.0059,-0.0259,63
11.239,216,8.7476,-0.8793,-13.8736,0.0601,-0.0024,-0.0113,91,11.456,221,1.5951,3.0096,-18.7665,0.0319,0.0067,-0.041,63
11.29,217,8.7319,-0.8161,-13.8691,0.0498,-0.026,-0.0255,91,11.508,222,1.6551,3.0601,-18.7515,0.0377,0.0057,-0.0463,63
11.342,218,8.7514,-0.7685,-13.9397,0.031,-0.0251,-0.022,91,11.56,223,1.7325,3.0642,-18.7513,0.0297,0.0123,-0.0614,63
11.394,219,8.7795,-0.7943,-13.9512,-0.0052,-0.0149,-0.0074,91,11.612,224,1.7652,3.0127,-18.7355,0.0307,0.0309,-0.0796,63
11.445,220,8.7591,-0.846,-13.9738,-0.0154,-0.0054,-0.0071,91,11.663,225,1.7427,2.9737,-18.746,0.0287,0.0493,-0.0909,63
11.497,221,8.7108,-0.8677,-13.9838,0.0026,0.0095,-0.0073,91,11.715,226,1.7528,2.987,-18.7345,0.0363,0.0547,-0.0883,63
11.549,222,8.7125,-0.9036,-13.9593,0.0208,0.0127,-0.0015,91,11.767,227,1.7721,2.9749,-18.7082,0.0414,0.0681,-0.0856,63
11.601,223,8.7602,-0.827,-13.9614,0.0728,0.0238,-0.0066,91,11.819,228,1.7846,2.9503,-18.8006,0.0359,0.0771,-0.0834,63
11.653,224,8.7982,-0.8086,-13.9369,0.0562,0.0207,0.0108,91,11.87,229,1.7606,2.925,-18.8589,0.0291,0.0636,-0.0705,63
11.705,225,8.8031,-0.829,-13.9462,0.041,0.0352,0.0291,91,11.922,230,1.7035,2.829,-18.8476,0.0322,0.0395,-0.0529,63
11.757,226,8.8006,-0.858,-13.9115,0.0204,0.0339,0.0381,91,11.974,231,1.6611,2.8225,-18.8086,0.0195,0.0141,-0.0142,63
11.808,227,8.819,-0.8718,-13.8675,0.0208,0.0359,0.034,91,12.026,232,1.6781,2.8507,-18.8146,-0.0027,-0.0038,0.0283,63
11.86,228,8.8202,-0.8759,-13.85,0.0216,0.0355,0.0334,91,12.078,233,1.703,2.8913,-18.8484,0.0023,-0.0136,0.0521,63
11.912,229,8.8005,-0.9327,-13.8198,0.0069,0.0386,0.0466,91,12.129,234,1.7103,2.9172,-18.8335,0.0029,-0.0273,0.0549,63
11.963,230,8.8284,-0.9093,-13.7836,-0.0071,0.0434,0.048,91,12.181,235,1.7181,2.9253,-18.7568,-0.0025,-0.039,0.0524,63
12.015,231,8.8212,-0.9223,-13.782,-0.0397,0.0213,0.026,91,12.233,236,1.778,2.9094,-18.7021,-0.0167,-0.0307,0.0578,63
12.067,232,8.7968,-0.9257,-13.8191,-0.0581,0.0089,0.0046,91,12.284,237,1.8216,2.8923,-18.7098,-0.0211,-0.0008,0.0538,63
12.119,233,8.8079,-1.0827,-13.6943,-0.0449,0.0156,-0.0113,91,12.336,238,1.8212,2.9043,-18.7788,-0.0159,0.0252,0.0482,63
12.171,234,8.7189,-1.1345,-13.7101,0.0346,0.0055,-0.0325,91,12.388,239,1.7928,2.8929,-18.8,-0.0076,0.0363,0.0318,63
12.222,235,8.802,-1.0174,-13.6601,0.0829,-0.0006,-0.0443,91,12.44,240,1.8251,2.9153,-18.7954,-0.0057,0.0372,0.0142,63
12.274,236,8.8316,-0.9108,-13.7113,0.1213,0.0003,-0.0582,91,12.492,241,1.8712,2.9149,-18.7833,-0.0141,0.0462,-0.008,63
12.326,237,8.8135,-0.8863,-13.708,0.0793,0.0077,-0.0366,91,12.543,242,1.881,2.8601,-18.794,-0.0178,0.0598,-0.0417,63
12.378,238,8.7965,-0.8503,-13.7258,0.0185,0.0172,-0.0123,91,12.595,243,1.8916,2.7954,-18.7889,0.0086,0.0558,-0.0632,63
12.43,239,8.8202,-0.9398,-13.7576,-0.0453,0.0297,0.0034,91,12.647,244,1.8821,2.7995,-18.814,0.0324,0.0472,-0.058,63
12.481,240,8.84,-0.8472,-13.8132,-0.0725,0.0714,0.0134,91,12.699,245,1.84,3.0078,-19.0411,0.0306,0.031,-0.0441,63
12.533,241,8.877,-0.9337,-13.7162,-0.0939,0.1331,0.0122,91,12.751,246,2.2094,2.5203,-18.694,0.1336,0.1197,0.0347,63
12.585,242,8.9746,-0.9013,-13.3447,-0.0947,0.1363,-0.0127,91,12.802,247,2.7478,2.1201,-17.7642,0.1509,0.5023,0.2833,63
12.637,243,9.125,-0.6471,-13.1488,-0.0626,0.104,-0.0335,91,12.854,248,2.7801,1.7023,-16.7304,0.2919,0.9108,0.4578,63
12.689,244,8.851,-0.5795,-13.2323,-0.1166,0.1713,-0.0845,91,12.906,249,3.9407,1.5794,-15.2364,-0.0125,1.3497,0.5805,63
12.74,245,8.7203,-0.5831,-13.2132,-0.1133,0.2063,-0.0642,91,12.958,250,4.6686,1.2619,-13.5276,-0.5098,1.67,0.7838,63
