right_leg_timestamp,right_leg_index,right_leg_accel_x,right_leg_accel_y,right_leg_accel_z,right_leg_gyro_x,right_leg_gyro_y,right_leg_gyro_z,right_leg_battery_percentage,left_leg_timestamp,left_leg_index,left_leg_accel_x,left_leg_accel_y,left_leg_accel_z,left_leg_gyro_x,left_leg_gyro_y,left_leg_gyro_z,left_leg_battery_percentage
0.579,11,8.6286,1.2947,-14.8421,-0.4219,-1.8983,-0.8111,79,0.008,0,8.4634,3.0763,-11.0689,-0.0999,-0.0795,-0.0216,50
0.631,12,7.5208,1.6016,-14.992,-0.3617,-1.8891,-0.8147,79,0.059,1,8.4643,3.0136,-11.0835,0.0144,-0.0032,-0.0554,50
0.682,13,6.6171,2.3686,-15.1972,-0.1827,-1.7095,-0.8174,79,0.111,2,8.1426,3.7054,-11.0329,0.0269,-0.0015,-0.0277,50
0.734,14,5.9457,2.3854,-15.8439,-0.2275,-1.5188,-0.7348,79,0.163,3,8.2919,3.4293,-10.9986,-0.0591,-0.0373,-0.0177,50
0.786,15,5.2467,2.8064,-16.8391,-0.2032,-1.4138,-0.714,79,0.214,4,8.3542,3.2506,-11.0989,0.1052,0.0065,-0.0724,50
0.838,16,4.5429,2.9227,-17.2278,-0.0338,-1.358,-0.7633,79,0.267,5,8.1162,3.9325,-10.9142,0.3953,0.0477,-0.0586,50
0.89,17,3.8795,2.8814,-17.3906,-0.1351,-1.2731,-0.7507,79,0.318,6,8.3237,3.4981,-11.001,0.3733,0.0577,-0.0614,50
0.941,18,3.1002,2.7041,-17.6663,-0.0951,-1.1682,-0.6803,79,0.37,7,8.368,3.3628,-11.0582,0.5313,0.0712,-0.0925,50
0.993,19,2.5636,2.628,-18.0035,-0.1731,-1.0031,-0.5942,79,0.422,8,8.1356,3.7035,-11.1828,0.5274,0.0906,-0.0575,50
1.045,20,2.0277,2.7759,-17.6233,-0.0453,-0.7962,-0.5403,79,0.473,9,7.2881,4.7893,-11.0356,0.0228,-0.0206,0.0375,50
1.097,21,1.6693,2.8924,-17.8488,0.1005,-0.5799,-0.4114,79,0.525,10,7.8834,4.1542,-11.0269,0.1028,-0.0493,0.0203,50
1.149,22,1.5003,3.0266,-18.1181,0.127,-0.3789,-0.243,79,0.577,11,7.8356,4.3621,-11.0952,0.1243,-0.0581,0.018,50
1.2,23,1.2353,3.1799,-18.4992,0.2112,-0.1933,-0.1135,79,0.629,12,8.3565,3.2705,-11.0555,-0.1333,-0.1153,0.032,50
1.252,24,0.958,3.2124,-18.6973,0.136,-0.0893,-0.0718,79,0.681,13,8.4889,2.9997,-11.1831,-0.0329,-0.1238,-0.0067,50
1.304,25,0.8757,3.0857,-18.977,0.1742,-0.0357,-0.086,79,0.732,14,8.2043,3.7305,-11.3572,0.226,-0.0336,-0.0229,50
1.356,26,1.0293,3.0621,-19.2468,0.1721,0.0101,-0.1023,79,0.784,15,8.198,3.8756,-11.3746,0.2289,0.0318,0.0086,50
1.407,27,1.1841,3.0856,-19.1987,0.1245,0.0356,-0.1122,79,0.836,16,7.8472,4.2915,-11.3632,-0.0203,-0.0057,0.0118,50
1.459,28,1.206,3.0983,-19.2023,0.1862,0.038,-0.0683,79,0.888,17,8.593,3.0342,-11.3472,-0.2246,-0.0747,0.0583,50
1.511,29,1.1689,2.9876,-19.3264,0.0892,0.0513,0.0059,79,0.94,18,8.5389,3.1186,-11.451,-0.3252,-0.1345,0.0845,50
1.563,30,1.0747,2.8435,-19.2412,0.0257,0.0692,0.0254,79,0.991,19,8.4546,3.0036,-11.4204,-0.3208,-0.1335,0.073,50
1.615,31,0.9969,2.8056,-19.2134,0.0428,0.0808,0.0462,79,1.043,20,8.5292,2.7215,-11.4808,-0.1178,-0.0768,0.016,50
1.666,32,1.1228,2.9145,-19.4521,0.0128,0.0936,0.0735,79,1.095,21,8.1821,3.5223,-11.4788,0.0685,0.0059,-0.0054,50
1.718,33,1.2355,2.6831,-19.3744,-0.1256,0.1139,0.1245,79,1.147,22,8.2081,3.4982,-11.4357,-0.0722,-0.0145,0.024,50
1.77,34,1.3914,2.568,-19.5428,-0.1034,0.0651,0.098,79,1.199,23,8.183,3.4094,-11.3446,-0.1449,-0.0696,0.0453,50
1.822,35,1.3562,2.6016,-19.255,-0.0194,0.0153,0.0711,79,1.25,24,8.2293,3.2815,-11.4581,-0.1992,-0.1533,0.0582,50
1.874,36,1.4072,2.7595,-19.0915,0.0349,0.0391,0.1149,79,1.302,25,8.3701,3.0628,-11.5277,-0.2418,-0.1607,0.0238,50
1.925,37,1.6956,3.0296,-19.1806,0.0556,0.1186,0.1419,79,1.354,26,8.2979,3.182,-11.5754,-0.1776,-0.1096,-0.0352,50
1.977,38,1.6823,3.2344,-19.353,0.1126,0.1442,0.0616,79,1.406,27,8.3061,3.1326,-11.6051,-0.1443,-0.0529,-0.0789,50
2.029,39,1.6896,3.4012,-19.2262,0.2322,0.134,-0.1056,79,1.458,28,8.2611,3.1796,-11.5256,-0.1369,-0.031,-0.0819,50
2.081,40,1.776,3.56,-19.1064,0.1459,0.1811,-0.1596,79,1.509,29,8.3323,3.1716,-11.5401,-0.1059,-0.0285,-0.0755,50
2.133,41,1.7572,3.2811,-19.1484,0.0213,0.1714,-0.1709,79,1.561,30,8.2539,2.6945,-11.6341,0.3427,0.1678,-0.1074,50
2.184,42,1.7098,2.9058,-19.267,0.0305,0.1239,-0.1885,79,1.613,31,8.1865,3.0103,-11.5101,0.4719,0.1568,-0.0599,50
2.236,43,1.7541,2.9116,-19.3115,0.0039,0.1293,-0.1738,79,1.665,32,8.2706,3.1051,-11.4632,0.3582,0.1416,0.0184,50
2.288,44,1.6814,2.7136,-19.2653,-0.1425,0.1003,-0.1358,79,1.716,33,8.1165,3.3178,-11.5353,0.1525,0.1376,0.0227,50
2.34,45,1.6052,2.4177,-19.271,-0.0677,0.0308,-0.1038,79,1.768,34,8.2528,2.9524,-11.3775,0.1151,0.1395,0.006,50
2.392,46,1.7091,2.3354,-19.3933,-0.0298,-0.0522,-0.011,79,1.82,35,8.1928,3.3806,-11.4043,0.1005,0.0376,0.0866,50
2.443,47,1.8491,2.4029,-19.5416,0.0158,-0.1335,0.0787,79,1.872,36,8.2052,3.2458,-11.5443,-0.0398,0.0057,0.1152,50
2.495,48,1.885,2.6186,-19.2771,-0.0027,-0.1755,0.1355,79,1.924,37,8.1856,3.18,-11.4614,-0.1303,-0.0148,0.0923,50
2.547,49,1.8679,2.7973,-19.0157,0.0154,-0.1831,0.163,79,1.975,38,8.3204,3.0473,-11.4557,-0.0778,-0.0237,0.0404,50
2.599,50,1.7767,2.7668,-19.0061,0.021,-0.1415,0.1495,79,2.027,39,8.2032,3.1261,-11.4445,0.1391,0.0659,-0.0143,50
2.651,51,1.6412,2.7474,-19.0679,-0.0333,-0.07,0.1182,79,2.079,40,8.2083,3.1555,-11.4768,0.0783,0.0257,0.0251,50
2.702,52,1.6634,2.8489,-19.2503,-0.0031,-0.0312,0.057,79,2.131,41,8.2854,3.0095,-11.4781,0.0019,0.0251,0.0142,50
2.754,53,1.7438,2.7364,-19.281,-0.0302,-0.0092,-0.0374,79,2.182,42,8.1979,3.1948,-11.416,-0.0674,-0.0062,0.0123,50
2.806,54,1.7752,2.5286,-19.3045,-0.0179,-0.003,-0.1179,79,2.234,43,8.1661,3.2782,-11.3677,-0.0829,-0.0667,0.0378,50
2.857,55,1.6999,2.3706,-19.1752,-0.0129,0.0012,-0.1057,79,2.286,44,8.2388,3.2471,-11.4984,-0.0988,-0.1156,0.0631,50
2.909,56,1.6255,2.3282,-19.1087,-0.029,0.0471,-0.0256,79,2.338,45,8.2805,3.1417,-11.5776,-0.1356,-0.105,0.0634,50
2.961,57,1.6426,2.4661,-19.1304,0.0306,0.072,0.0348,79,2.39,46,8.2824,3.0936,-11.5523,-0.1304,-0.1061,0.0419,50
3.013,58,1.6701,2.6429,-19.2666,0.0796,0.0524,0.1008,79,2.441,47,8.2674,3.055,-11.6695,-0.1184,-0.0734,0.0008,50
3.065,59,1.7424,2.7981,-19.3275,0.0925,0.0322,0.1311,79,2.493,48,8.2553,3.1125,-11.5908,-0.0975,-0.0336,-0.0385,50
3.117,60,1.8068,3.0309,-19.1291,0.0935,0.04,0.1177,79,2.545,49,8.2544,3.1365,-11.5987,-0.0494,-0.0431,-0.0514,50
3.168,61,1.8113,3.0899,-18.9939,0.0275,0.0717,0.1154,79,2.597,50,8.3264,2.9932,-11.6782,0.0044,0.0003,-0.0967,50
3.22,62,1.8877,2.9377,-19.2442,0.0311,0.0802,0.0877,79,2.649,51,8.092,3.5501,-11.4978,0.3104,0.1332,-0.1402,50
3.272,63,1.8079,2.7715,-19.2524,-0.0348,0.0656,0.0248,79,2.7,52,8.0633,3.5357,-11.5407,0.331,0.0975,-0.1048,50
3.324,64,1.7619,2.6146,-19.2276,-0.0194,0.036,-0.0135,79,2.752,53,8.1345,3.4519,-11.7092,0.2369,0.0971,-0.074,50
3.375,65,1.8501,2.5156,-19.336,0.0551,-0.0051,-0.0426,79,2.804,54,8.1226,3.507,-11.5883,0.1884,0.1279,-0.0675,50
3.427,66,1.8783,2.6076,-19.2949,0.0984,-0.0326,-0.0597,79,2.856,55,8.0495,3.5489,-11.6037,0.0445,0.0762,-0.0298,50
3.479,67,1.8283,2.6957,-19.2353,0.0181,-0.0182,-0.0213,79,2.908,56,8.1473,3.4421,-11.5567,0.0052,0.0409,-0.0233,50
3.531,68,1.6883,2.377,-19.4815,-0.2223,-0.02,-0.0172,79,2.959,57,8.127,3.2452,-11.5651,0.1367,0.0749,-0.0377,50
3.583,69,1.5429,2.1095,-19.6558,-0.1423,-0.1286,-0.1113,79,3.011,58,8.0606,3.3919,-11.6346,0.1998,0.0417,-0.0159,50
3.634,70,1.379,2.2126,-19.5547,-0.0667,-0.2314,-0.144,79,3.063,59,8.0389,3.5558,-11.6974,0.0391,0.0123,0.0339,50
3.686,71,1.5196,2.6366,-19.1256,0.0269,-0.2869,-0.0696,79,3.115,60,8.0673,3.4909,-11.7025,-0.1706,-0.0579,0.0715,50
3.738,72,1.767,2.9666,-18.9693,0.1268,-0.2696,0.0109,79,3.166,61,8.1245,3.4546,-11.5644,-0.2108,-0.0774,0.0455,50
3.79,73,1.8694,3.2402,-18.9053,0.0849,-0.1447,0.0492,79,3.218,62,8.1838,3.3734,-11.6491,-0.1721,-0.0905,0.0076,50
3.842,74,1.6891,3.3233,-18.9158,0.0261,-0.0212,0.0655,79,3.27,63,8.3023,3.1024,-11.7587,-0.0703,-0.0201,-0.059,50
3.893,75,1.5158,3.1394,-19.2173,-0.0024,0.0412,0.0068,79,3.322,64,8.0549,3.6568,-11.6527,0.2413,0.1233,-0.1194,50
3.945,76,1.2933,2.9172,-19.2921,-0.0234,0.0633,-0.0599,79,3.374,65,8.0278,3.7966,-11.6628,0.2374,0.1198,-0.0886,50
3.997,77,1.2712,2.8577,-19.1221,-0.0433,0.0946,-0.0867,79,3.425,66,8.005,3.8294,-11.6705,0.1837,0.1192,-0.0558,50
4.049,78,1.3113,2.8322,-19.136,-0.0068,0.1188,-0.1162,79,3.477,67,8.0334,3.6728,-11.6027,0.1819,0.1249,-0.0483,50
4.101,79,1.5245,2.6926,-19.3059,-0.0023,0.126,-0.1885,79,3.529,68,8.0198,3.7465,-11.5378,0.2426,0.103,-0.028,50
4.152,80,1.629,2.5572,-19.3656,0.0396,0.1142,-0.2343,79,3.58,69,7.9844,3.6959,-11.6164,0.047,0.0483,0.025,50
4.204,81,1.5112,2.6276,-19.2629,0.046,0.1234,-0.1941,79,3.632,70,7.9653,3.815,-11.4464,-0.2277,-0.067,0.0785,50
4.256,82,1.4896,2.8512,-19.2189,0.0676,0.1289,-0.1479,79,3.684,71,8.1536,3.6869,-11.5785,-0.282,-0.1816,0.1046,50
4.308,83,1.4466,2.9744,-19.2318,0.0469,0.114,-0.134,79,3.736,72,8.2261,3.5192,-11.6161,-0.1589,-0.1192,0.0529,50
4.36,84,1.4356,2.864,-19.3201,0.0243,0.0757,-0.138,79,3.788,73,8.2735,3.4002,-11.6467,0.1004,-0.0208,-0.0136,50
4.411,85,1.4751,2.7374,-19.3745,0.0108,0.0403,-0.1412,79,3.839,74,8.1594,3.6164,-11.6987,0.1404,0.0138,-0.0164,50
4.463,86,1.4498,2.6354,-19.2251,-0.0296,0.0267,-0.1027,79,3.891,75,8.1672,3.5172,-11.7474,0.0791,0.0308,-0.0133,50
4.515,87,1.5123,2.578,-19.1707,0.0074,0.0226,-0.0553,79,3.943,76,8.1849,3.5085,-11.5844,0.1018,0.0724,-0.0348,50
4.567,88,1.5825,2.5384,-19.2107,-0.0154,0.0287,0.0128,79,3.995,77,8.1134,3.5695,-11.5672,0.1098,0.0623,-0.023,50
4.618,89,1.5298,2.5927,-19.3165,-0.0172,0.0215,0.1086,79,4.046,78,8.1644,3.486,-11.6448,-0.0207,0.0302,0.0136,50
4.67,90,1.6175,2.7336,-19.3952,0.0411,-0.0113,0.1657,79,4.098,79,8.0984,3.5273,-11.5281,-0.1209,-0.0217,0.042,50
4.722,91,1.6176,2.8769,-19.2064,0.0315,-0.0176,0.1705,79,4.151,80,8.2364,3.3429,-11.6824,-0.2146,-0.0674,0.0387,50
4.774,92,1.6103,2.8018,-19.0829,0.006,-0.0044,0.1762,79,4.202,81,8.3248,3.2656,-11.6292,-0.1681,-0.0105,-0.0172,50
4.826,93,1.6531,2.7285,-19.1849,-0.001,0.0239,0.1545,79,4.254,82,8.2922,3.2542,-11.4885,0.0028,0.0594,-0.0439,50
4.877,94,1.7754,2.6993,-19.2741,0.0142,0.0202,0.091,79,4.306,83,8.2891,3.3215,-11.558,-0.0569,0.0116,-0.0082,50
4.929,95,1.8724,2.5668,-19.3496,0.0489,-0.0111,0.0553,79,4.357,84,8.2836,3.274,-11.557,-0.1372,0.0674,-0.012,50
4.981,96,1.9355,2.6367,-19.1983,0.0629,-0.0217,0.0495,79,4.409,85,8.1542,3.5173,-11.3302,-0.2495,0.017,0.0171,50
5.033,97,1.9028,2.8382,-19.0645,0.0327,0.0157,0.0665,79,4.461,86,8.2739,3.3539,-11.3537,-0.2684,-0.0603,0.0272,50
5.085,98,1.7157,2.7824,-19.1183,-0.0999,0.0534,0.028,79,4.513,87,8.2989,3.1795,-11.404,-0.1299,-0.0194,-0.0294,50
5.136,99,1.6251,2.6207,-19.3465,-0.0134,0.0335,-0.0814,79,4.565,88,8.1757,3.5806,-11.3447,0.0732,0.0338,-0.0434,50
5.188,100,1.6514,2.5007,-19.3044,-0.0156,-0.0049,-0.1659,79,4.616,89,8.1208,3.5924,-11.4041,0.0611,0.021,-0.0009,50
5.24,101,1.7995,2.4963,-19.1344,0.0938,-0.0338,-0.1562,79,4.668,90,8.0579,3.5899,-11.4711,-0.0683,-0.0143,0.038,50
5.292,102,1.9057,2.6291,-19.0848,0.056,-0.0031,-0.0171,79,4.72,91,8.1289,3.4843,-11.3444,-0.2251,-0.0837,0.068,50
5.344,103,2.134,2.7048,-19.34,-0.0113,0.0059,0.1195,79,4.772,92,8.259,3.3356,-11.4654,-0.22,-0.1213,0.0738,50
5.395,104,2.1577,2.7928,-19.3989,-0.03,-0.0281,0.1583,79,4.823,93,8.2828,3.2352,-11.4919,-0.1923,-0.0664,0.037,50
5.447,105,2.0967,2.9141,-19.1335,-0.0872,-0.0316,0.1951,79,4.875,94,8.2684,3.1184,-11.441,-0.113,-0.0225,-0.0015,50
5.499,106,2.0111,2.8791,-18.9885,-0.1008,0.0187,0.2071,79,4.927,95,8.2591,3.371,-11.4176,0.1323,0.0625,-0.0572,50
5.551,107,1.7608,2.8273,-18.9058,-0.1586,0.0932,0.1892,79,4.979,96,8.1418,3.5583,-11.3889,0.2141,0.0859,-0.056,50
5.603,108,1.6541,2.7572,-18.9338,-0.1025,0.1155,0.1435,79,5.031,97,8.1934,3.5511,-11.4281,0.2227,0.0622,-0.0273,50
5.654,109,1.8111,2.706,-19.2766,-0.0257,0.0985,0.1098,79,5.082,98,8.137,3.6114,-11.421,0.2025,0.0685,-0.0142,50
5.706,110,1.93,2.7459,-19.3602,-0.0608,0.0601,0.089,79,5.134,99,8.0598,3.6746,-11.44,0.0963,0.0457,0.0103,50
5.758,111,2.0124,2.7672,-19.2509,-0.0485,0.0094,0.0723,79,5.186,100,8.2115,3.3714,-11.4149,-0.0316,-0.0007,0.0216,50
5.81,112,2.0192,2.7148,-19.1766,-0.0273,-0.0108,0.0454,79,5.238,101,8.2139,3.3232,-11.4471,-0.0126,-0.0161,0.0079,50
5.862,113,1.9898,2.7284,-19.0444,-0.043,0.0141,0.0369,79,5.289,102,8.1741,3.4055,-11.4629,-0.0561,-0.046,0.0275,50
5.913,114,1.9402,2.6695,-19.0529,-0.0407,0.0548,0.0238,79,5.341,103,8.2006,3.2461,-11.4727,-0.0693,-0.047,0.0208,50
5.965,115,1.9584,2.4967,-19.2596,0.0506,0.0387,-0.0326,79,5.393,104,8.1892,3.2491,-11.4707,-0.0015,-0.0145,-0.0015,50
6.017,116,1.9834,2.4231,-19.3422,0.0885,-0.0014,-0.0515,79,5.445,105,8.1024,3.3721,-11.4348,-0.026,-0.0167,0.016,50
6.069,117,2.0116,2.5199,-19.1245,0.0753,-0.0484,0.0232,79,5.497,106,8.1431,3.3323,-11.4569,-0.12,-0.0552,0.0479,50
6.121,118,2.2118,2.82,-19.0401,0.093,-0.0601,0.0806,79,5.548,107,8.2107,3.1894,-11.4345,-0.1548,-0.0805,0.0419,50
6.172,119,2.3724,3.107,-18.8838,0.0363,-0.0264,0.0359,79,5.6,108,8.2277,3.1967,-11.5157,-0.1448,-0.0762,0.0196,50
6.224,120,2.4038,3.0625,-18.7963,-0.0389,0.0376,-0.0077,79,5.652,109,8.3243,3.0428,-11.5541,-0.1225,-0.0247,-0.034,50
6.276,121,2.4074,2.9193,-18.952,-0.083,0.119,-0.0417,79,5.704,110,8.1933,3.4079,-11.436,0.0685,0.0556,-0.0789,50
6.328,122,2.4054,2.8322,-19.1437,-0.1222,0.1357,-0.0423,79,5.756,111,8.1778,3.3949,-11.5104,-0.0031,0.0388,-0.0599,50
6.379,123,2.3342,2.882,-19.1199,-0.1127,0.1358,-0.029,79,5.807,112,8.114,3.4246,-11.3822,-0.0062,0.0175,-0.0466,50
6.431,124,2.3055,2.9016,-19.0997,-0.1551,0.139,-0.014,79,5.859,113,8.2715,3.409,-11.3677,0.0571,0.0141,-0.0529,50
6.483,125,2.342,2.9417,-19.1004,-0.1283,0.1114,-0.0314,79,5.911,114,8.2897,3.4038,-11.3567,0.2753,0.0482,-0.0591,50
6.535,126,2.3726,2.8499,-19.0121,-0.1551,0.0671,-0.0344,79,5.963,115,8.2784,3.4589,-11.6132,0.3578,0.061,-0.0367,50
6.587,127,2.4649,2.7287,-18.9232,-0.1429,0.0444,0.0005,79,6.015,116,8.1826,3.5533,-11.5129,0.369,0.1252,-0.0247,50
6.638,128,2.5628,2.7809,-18.9271,-0.101,0.0652,0.033,79,6.066,117,8.0444,3.6349,-11.5154,0.2798,0.1087,-0.0061,50
6.69,129,2.5565,2.9688,-18.9571,-0.0602,0.0811,0.0526,79,6.118,118,8.1832,3.2894,-11.5002,0.1305,0.0614,0.0097,50
6.742,130,2.4668,3.1072,-18.9165,-0.0542,0.0721,0.0329,79,6.17,119,8.1917,3.271,-11.5343,0.0676,0.0077,0.0083,50
6.794,131,2.3528,3.0835,-18.8239,-0.0783,0.0348,0.0158,79,6.222,120,8.2973,3.1413,-11.5824,0.0101,0.0019,0.0068,50
6.846,132,2.3236,2.9267,-18.9431,-0.0153,-0.0161,0.015,79,6.273,121,8.2201,3.1986,-11.5389,0.0471,0.0187,0.004,50
6.897,133,2.4273,2.8582,-19.035,0.0575,-0.0731,0.0491,79,6.325,122,8.1872,3.2635,-11.5534,-0.0024,-0.0268,0.0159,50
6.949,134,2.5237,2.903,-19.1298,0.0584,-0.1278,0.1244,79,6.377,123,8.143,3.3233,-11.6328,-0.1528,-0.0679,0.0008,50
7.001,135,2.6361,2.9991,-19.0118,0.0744,-0.1616,0.1506,79,6.429,124,8.1164,3.3466,-11.6106,-0.2755,-0.1355,0.0049,50
7.053,136,2.5839,3.1489,-18.7839,0.0517,-0.1357,0.1836,79,6.481,125,8.1863,3.4211,-11.5472,-0.2036,-0.1266,-0.0066,50
7.105,137,2.6236,3.1557,-18.8629,0.0658,-0.1085,0.1945,79,6.532,126,8.1155,3.3989,-11.6288,-0.0014,-0.0611,-0.0278,50
7.156,138,2.6051,3.0678,-18.9415,0.0563,-0.0764,0.152,79,6.584,127,8.0042,3.6662,-11.6878,0.0932,-0.0199,-0.033,50
7.208,139,2.5227,3.0754,-18.902,0.0382,-0.0444,0.1079,79,6.636,128,7.9992,3.6992,-11.6459,0.0597,-0.0074,-0.0238,50
7.26,140,2.5097,3.1293,-18.9789,0.0435,-0.0185,0.0665,79,6.687,129,7.9829,3.596,-11.6276,0.0768,0.0142,-0.0251,50
7.312,141,2.5459,3.1114,-19.1269,0.049,-0.0197,0.0035,79,6.739,130,8.0423,3.6185,-11.6343,0.1285,-0.0028,-0.0151,50
7.364,142,2.4953,3.0212,-19.1438,0.0235,-0.0323,-0.0793,79,6.791,131,8.0924,3.5257,-11.6809,0.133,0.0335,-0.012,50
7.415,143,2.3113,2.9247,-18.9446,-0.0306,-0.018,-0.1406,79,6.843,132,8.1452,3.435,-11.6284,0.1375,0.0542,-0.0043,50
7.467,144,2.1712,2.8423,-18.8585,-0.0976,0.001,-0.156,79,6.895,133,8.2193,3.3375,-11.6268,0.2056,0.0534,-0.0058,50
7.519,145,2.0967,2.7284,-18.9628,-0.1062,0.0012,-0.1387,79,6.946,134,8.1724,3.3233,-11.6895,0.253,0.076,-0.0104,50
7.571,146,2.1725,2.6885,-18.9741,-0.0888,-0.0282,-0.0972,79,6.998,135,8.0557,3.4993,-11.6571,0.2333,0.0694,-0.0042,50
7.623,147,2.2114,2.7732,-19.0052,-0.0156,-0.061,-0.0182,79,7.05,136,8.1485,3.2163,-11.732,0.0958,0.0461,0.0162,50
7.674,148,2.345,2.912,-19.071,-0.0545,-0.0662,0.0494,79,7.102,137,8.159,3.2621,-11.6967,0.0456,0.0163,0.0185,50
7.726,149,2.3214,3.0564,-18.8843,-0.0481,-0.0524,0.0734,79,7.154,138,8.1097,3.3871,-11.7439,-0.0653,-0.0193,0.025,50
7.778,150,2.1835,3.0347,-18.7604,-0.0025,-0.0188,0.062,79,7.206,139,8.1439,3.4499,-11.6411,-0.0257,-0.012,0.0114,50
7.83,151,2.0476,3.0018,-18.8001,0.0281,0.0137,0.0735,79,7.258,140,8.1255,3.5279,-11.671,-0.0346,-0.0267,0.0127,50
7.881,152,2.2259,3.0146,-19.1459,0.1427,0.0094,0.1037,79,7.309,141,7.9512,3.6856,-11.6975,-0.1175,-0.0246,0.017,50
7.933,153,2.2769,3.1043,-19.2957,0.0749,-0.0151,0.1078,79,7.361,142,8.3014,3.1356,-11.6384,-0.4144,-0.1439,0.0556,50
7.985,154,2.2142,3.1484,-19.0461,0.0285,-0.0505,0.0865,79,7.413,143,8.3913,2.9851,-11.7506,-0.3624,-0.1369,0.0401,50
8.037,155,2.2308,3.0121,-18.8888,0.0336,-0.0567,0.0713,79,7.465,144,8.4508,3.0356,-11.5201,-0.195,-0.0532,0.0002,50
8.089,156,2.2546,2.7994,-18.8676,-0.0264,-0.0211,0.0929,79,7.517,145,8.3281,3.2192,-11.5482,0.0403,-0.0034,-0.0011,50
8.14,157,2.2829,2.5801,-18.9954,-0.0289,0.0134,0.1655,79,7.568,146,8.2921,3.2881,-11.6502,0.0661,0.0607,-0.0014,50
8.192,158,2.3183,2.5843,-19.1697,0.0166,0.0026,0.2334,79,7.62,147,8.0723,3.4786,-11.5789,-0.062,0.034,-0.0077,50
8.244,159,2.45,2.8352,-19.2555,0.0584,-0.0363,0.2485,79,7.672,148,8.2686,3.2636,-11.5132,-0.2074,-0.0564,0.0101,50
8.296,160,2.4739,3.0465,-19.0509,0.0171,-0.0526,0.217,79,7.724,149,8.2948,3.2048,-11.5751,-0.2352,-0.073,0.0165,50
8.348,161,2.389,3.0504,-18.8089,-0.0148,-0.0161,0.1484,79,7.776,150,8.3371,3.0978,-11.5909,-0.169,-0.0369,-0.0051,50
8.399,162,2.3687,2.9636,-18.8738,-0.0098,0.0443,0.0573,79,7.827,151,8.1796,3.3307,-11.5253,-0.0085,0.0087,-0.0236,50
8.451,163,2.4314,2.8903,-19.0704,0.0122,0.066,-0.0206,79,7.879,152,8.184,3.3554,-11.5876,0.0039,0.0007,-0.0132,50
8.503,164,2.4527,2.8503,-19.1889,-0.0067,0.0592,-0.0644,79,7.931,153,8.2465,3.3093,-11.5579,-0.0068,0.0314,-0.0188,50
8.555,165,2.3858,2.8989,-19.0005,-0.0095,0.0512,-0.1308,79,7.983,154,8.2419,3.3121,-11.4934,0.1138,0.0332,-0.0169,50
8.607,166,2.3942,2.9455,-18.8212,0.0195,0.0567,-0.2014,79,8.035,155,8.2842,3.2421,-11.6923,0.1868,0.0441,-0.0086,50
8.658,167,2.3045,2.7064,-18.8695,0.0258,0.0641,-0.237,79,8.086,156,8.3114,3.2321,-11.6521,0.2597,0.107,-0.0179,50
8.71,168,2.4052,2.4881,-19.0759,0.0805,0.0574,-0.2215,79,8.138,157,8.1803,3.4027,-11.5969,0.2591,0.1201,-0.0158,50
8.762,169,2.5197,2.6974,-19.1412,0.1973,0.0298,-0.1333,79,8.19,158,7.88,3.7248,-11.5626,0.0722,0.0867,-0.0191,50
8.814,170,2.5503,3.0287,-19.2016,0.071,0.0401,-0.0548,79,8.242,159,7.9758,3.5113,-11.4731,0.1019,0.0641,-0.0293,50
8.866,171,2.3756,3.1556,-18.9371,-0.0117,0.0471,-0.0376,79,8.294,160,8.1374,3.3369,-11.4966,0.126,0.0561,-0.023,50
8.917,172,2.3378,3.0628,-18.7731,-0.0541,0.0643,-0.0287,79,8.345,161,8.1582,3.4459,-11.4765,0.2522,0.0344,-0.0104,50
8.969,173,2.3779,2.8319,-18.9241,-0.0762,0.0757,-0.0463,79,8.397,162,8.0659,3.4998,-11.6218,0.2608,0.0498,0.0013,50
9.021,174,2.4815,2.7015,-18.9177,-0.0772,0.0468,-0.0461,79,8.449,163,8.0417,3.4924,-11.68,0.1838,0.0727,0.0288,50
9.073,175,2.6309,2.5833,-18.8998,-0.0693,0.0135,0.0143,79,8.501,164,8.1413,3.327,-11.6363,0.1028,0.128,0.0389,50
9.125,176,2.712,2.5212,-18.9702,-0.1239,0.0406,0.105,79,8.553,165,8.1189,3.2551,-11.4821,0.0418,0.1219,0.0419,50
9.176,177,2.7205,2.6196,-19.0142,-0.1694,0.0591,0.1507,79,8.605,166,7.841,3.7327,-11.4487,-0.1228,0.0454,0.0509,50
9.228,178,2.7772,2.6531,-19.2857,-0.0568,-0.0189,0.1535,79,8.656,167,8.1799,3.1041,-11.32,-0.2526,-0.0076,0.0516,50
9.28,179,2.7299,2.6664,-19.2156,-0.0708,-0.0801,0.1308,79,8.708,168,8.1073,3.318,-11.2734,-0.4001,-0.1186,0.1054,50
9.332,180,2.6261,2.715,-18.9569,-0.0374,-0.1108,0.1246,79,8.76,169,8.3028,3.2576,-11.4469,-0.5418,-0.2377,0.1401,50
9.384,181,2.5504,2.7375,-18.8847,0.0114,-0.1022,0.1289,79,8.812,170,8.288,3.1572,-11.3692,-0.4953,-0.2326,0.113,50
9.435,182,2.531,2.7747,-18.7855,0.0126,-0.0669,0.1377,79,8.863,171,8.3552,3.0879,-11.5108,-0.4225,-0.235,0.0918,50
9.487,183,2.5052,2.8943,-18.6967,0.0518,-0.016,0.1311,79,8.915,172,8.3548,2.9844,-11.4733,-0.2913,-0.1675,0.0378,50
9.539,184,2.5445,3.0021,-18.9224,0.0609,0.0351,0.0773,79,8.967,173,8.3211,2.9818,-11.5191,-0.1659,-0.1486,0.0039,50
9.591,185,2.6353,3.0135,-19.2339,0.0904,0.0199,0.0092,79,9.019,174,8.3013,2.9596,-11.649,-0.0472,-0.0815,-0.0315,50
9.642,186,2.6261,3.0033,-19.1565,0.055,-0.0235,-0.032,79,9.071,175,8.3147,2.8855,-11.6727,-0.0689,-0.0304,-0.0486,50
9.694,187,2.5157,2.9765,-18.874,0.0055,-0.0338,-0.0348,79,9.122,176,8.2995,2.9036,-11.5531,-0.0171,0.0133,-0.0667,50
9.746,188,2.5771,2.8636,-18.8372,0.0469,-0.0123,-0.0336,79,9.174,177,8.2995,2.8745,-11.5317,0.0597,0.0087,-0.0771,50
9.798,189,2.6184,2.7866,-18.9545,0.0597,0.0174,-0.0559,79,9.226,178,8.3587,2.8404,-11.5879,0.0334,0.0114,-0.0599,50
9.85,190,2.5743,2.7934,-18.9151,0.0648,0.0312,-0.0742,79,9.277,179,8.3934,2.7973,-11.6191,0.0261,0.0368,-0.0569,50
9.902,191,2.584,2.8481,-18.8777,0.0781,0.0391,-0.0804,79,9.329,180,8.3693,2.9374,-11.535,0.137,0.0925,-0.0716,50
9.953,192,2.5645,2.8373,-18.8068,0.047,0.0478,-0.1145,79,9.381,181,8.3633,2.9332,-11.5651,0.277,0.1024,-0.0569,50
10.005,193,2.5851,2.582,-18.8582,0.0368,0.0489,-0.1114,79,9.433,182,8.3206,3.0352,-11.6909,0.3112,0.115,-0.0366,50
10.057,194,2.73,2.284,-19.0673,0.0605,0.0399,-0.0332,79,9.485,183,8.2068,3.2041,-11.5622,0.2489,0.1669,-0.0336,50
10.109,195,2.7558,2.3061,-19.2271,0.0834,0.0209,0.0735,79,9.536,184,7.9191,3.4755,-11.5096,-0.049,0.0431,-0.009,50
10.161,196,2.7383,2.6331,-19.1538,0.1039,0.0014,0.1344,79,9.588,185,8.1238,3.2823,-11.4792,-0.1531,-0.0561,0.0181,50
10.212,197,2.6723,2.8549,-18.8562,0.0649,0.0139,0.1158,79,9.64,186,8.2475,3.1712,-11.573,-0.1806,-0.0606,0.0133,50
10.264,198,2.6259,2.7849,-18.6723,0.0351,0.0544,0.0498,79,9.692,187,8.2382,3.2096,-11.4521,-0.0039,0.0136,-0.0115,50
10.316,199,2.6493,2.6042,-18.8437,0.0292,0.0993,-0.0143,79,9.743,188,8.138,3.2945,-11.4829,0.0932,0.015,-0.0018,50
10.368,200,2.9018,2.5766,-19.171,0.0427,0.1091,-0.0271,79,9.795,189,8.0707,3.3762,-11.5592,0.0745,-0.0102,0.0271,50
10.42,201,3.0208,2.5677,-19.2368,-0.0558,0.0821,0.0446,79,9.847,190,8.096,3.5557,-11.5283,-0.1121,-0.04,0.0538,50
10.471,202,2.9695,2.5682,-19.0808,-0.1275,0.0623,0.1122,79,9.899,191,8.0837,3.4514,-11.2746,-0.1592,-0.0661,0.0497,50
10.523,203,2.8456,2.628,-18.8532,-0.1137,0.0645,0.1011,79,9.951,192,8.1818,3.2835,-11.3786,-0.1176,-0.1456,0.0624,50
10.575,204,2.8219,2.695,-18.8689,-0.0414,0.0676,0.0573,79,10.002,193,8.2158,3.2733,-11.5773,-0.1232,-0.117,0.0568,50
10.626,205,2.8751,2.744,-19.0866,0.003,0.0273,-0.0224,79,10.054,194,8.244,3.2753,-11.5354,-0.1275,-0.0683,0.0447,50
10.678,206,2.8668,2.696,-19.1348,0.0139,-0.0484,-0.1151,79,10.106,195,8.1935,3.3139,-11.5088,-0.154,-0.077,0.0628,50
10.73,207,2.9512,2.5599,-19.1156,0.0927,-0.1259,-0.1863,79,10.158,196,8.237,3.2838,-11.6082,-0.1566,-0.0652,0.0557,50
10.782,208,2.8927,2.5667,-18.8949,0.117,-0.1415,-0.2321,79,10.21,197,8.2252,3.2405,-11.5766,-0.1386,-0.0227,0.0334,50
10.834,209,2.795,2.7426,-18.586,0.0889,-0.0818,-0.2064,79,10.261,198,8.2535,3.1423,-11.5827,-0.0806,0.0049,0.0112,50
10.886,210,2.7971,2.628,-18.537,0.0758,0.0172,-0.1683,79,10.313,199,8.3079,3.2779,-11.4924,0.1922,0.1426,-0.0637,50
10.938,211,2.7527,2.3853,-18.7105,0.0561,0.1058,-0.1522,79,10.365,200,8.2057,3.4046,-11.3152,0.3702,0.1707,-0.0777,50
10.989,212,2.7583,2.2943,-18.9372,0.1028,0.1069,-0.1066,79,10.417,201,8.2691,3.3022,-11.5209,0.3695,0.1097,-0.0547,50
11.041,213,2.989,2.2471,-19.1387,0.0962,0.0734,-0.0471,79,10.468,202,8.2167,3.3057,-11.585,0.2463,0.1707,-0.0459,50
11.093,214,2.9907,2.3135,-18.9493,0.0898,0.0576,0.0029,79,10.52,203,8.0564,3.4764,-11.3031,0.0425,0.0947,-0.0154,50
11.144,215,2.9415,2.5076,-18.8587,0.0751,0.0865,0.04,79,10.572,204,8.143,3.3646,-11.3257,-0.0492,-0.0522,0.0276,50
11.196,216,2.9225,2.5727,-19.0308,0.0356,0.1061,0.0376,79,10.624,205,8.3069,3.0809,-11.4123,-0.1171,-0.0467,0.0179,50
11.248,217,2.9116,2.5201,-19.2424,0.0157,0.0801,-0.0091,79,10.676,206,8.2189,3.2178,-11.3152,-0.083,-0.0621,0.0162,50
11.3,218,2.8968,2.4331,-19.1268,-0.0266,0.0283,-0.017,79,10.727,207,8.3135,3.1948,-11.4572,-0.0971,-0.0968,0.0376,50
11.352,219,2.7652,2.2972,-18.9516,-0.0283,-0.0065,0.0144,79,10.779,208,8.2135,3.2366,-11.3957,-0.1291,-0.0964,0.0317,50
11.404,220,2.7892,2.3515,-18.9877,0.0447,-0.0223,0.0171,79,10.831,209,8.2255,3.1901,-11.4531,-0.1429,-0.1401,0.0486,50
11.456,221,2.7966,2.5722,-18.9049,0.059,-0.0142,0.0117,79,10.883,210,8.2707,3.0621,-11.6614,-0.131,-0.1195,0.042,50
11.507,222,2.902,2.7142,-18.7415,0.0075,0.0068,0.0175,79,10.934,211,8.3741,2.8179,-11.6388,-0.0102,-0.0339,-0.0237,50
11.559,223,3.0383,2.5479,-18.8045,-0.0338,0.0196,0.0076,79,10.986,212,8.1467,3.1577,-11.5653,0.227,0.0838,-0.0718,50
11.611,224,3.0947,2.2788,-18.9429,-0.0495,0.0134,0.0,79,11.038,213,8.1382,3.2502,-11.5782,0.245,0.0652,-0.0441,50
11.663,225,3.1482,2.1528,-18.9439,-0.0312,0.0011,0.022,79,11.09,214,8.166,3.2194,-11.7387,0.1544,0.0836,-0.0166,50
11.715,226,3.1824,2.1488,-18.8569,-0.006,-0.001,0.0814,79,11.142,215,8.2295,3.3299,-11.6512,-0.0465,0.1046,-0.0161,50
11.766,227,3.0847,2.2668,-18.7829,-0.0123,0.0372,0.1042,79,11.193,216,8.1853,3.2373,-11.4054,-0.1063,0.055,-0.0067,50
11.818,228,3.0748,2.356,-18.931,-0.0578,0.0753,0.0878,79,11.245,217,8.3045,3.1801,-11.5859,-0.1099,-0.0044,0.015,50
11.87,229,3.1503,2.3722,-19.199,-0.0412,0.0485,0.0063,79,11.297,218,8.3209,3.1356,-11.4914,-0.0804,0.0509,-0.0168,50
11.922,230,3.2387,2.2994,-19.1979,-0.0419,0.003,-0.0677,79,11.349,219,8.1971,3.2784,-11.3621,-0.1149,-0.0004,0.0075,50
11.974,231,3.1898,2.3071,-18.8858,-0.0623,-0.0157,-0.0685,79,11.401,220,8.2494,3.1836,-11.51,-0.1309,-0.0526,0.0209,50
12.025,232,3.0778,2.1741,-18.755,-0.0401,-0.0056,-0.0587,79,11.452,221,8.2681,3.1802,-11.4428,-0.1354,-0.0703,0.0039,50
12.077,233,3.0967,2.2091,-18.8255,0.0842,-0.0146,-0.0398,79,11.504,222,8.2675,3.0883,-11.511,-0.0999,-0.1065,0.0081,50
12.129,234,3.2736,2.6404,-18.8665,0.1468,-0.0377,0.0337,79,11.556,223,8.3208,3.0844,-11.7042,-0.1169,-0.0492,-0.0291,50
12.181,235,3.3712,2.9861,-18.493,0.0485,0.0183,0.0749,79,11.608,224,8.3488,3.0187,-11.4188,-0.1072,0.0159,-0.0908,50
12.233,236,3.0402,2.8809,-18.4656,-0.1973,0.1563,0.1079,79,11.66,225,8.3529,3.0757,-11.1996,0.2204,0.0807,-0.1288,50
12.284,237,2.9303,2.7032,-18.7698,-0.3689,0.233,0.0336,79,11.711,226,8.3544,3.3642,-11.4321,0.3031,0.0907,-0.119,50
12.336,238,3.114,2.5436,-19.2445,-0.2644,0.1855,-0.0892,79,11.763,227,8.2768,3.3691,-11.522,0.2987,0.1193,-0.0497,50
12.388,239,3.2822,2.4971,-19.0448,-0.221,0.0946,-0.1378,79,11.815,228,8.1455,3.5948,-11.5268,0.2378,0.168,0.0191,50
12.439,240,3.3225,2.5708,-18.6365,-0.1678,0.0416,-0.0837,79,11.867,229,8.1415,3.218,-11.3972,-0.0718,0.0154,0.054,50
12.491,241,3.4775,2.8237,-18.4503,-0.0635,0.0487,0.0062,79,11.918,230,8.2493,3.1177,-11.5358,-0.1466,-0.0696,0.0794,50
12.543,242,3.5898,3.0262,-18.4926,-0.0391,0.0594,0.1049,79,11.97,231,8.2006,3.1159,-11.6027,-0.1822,-0.1101,0.0876,50
12.595,243,3.6248,3.1472,-18.7117,-0.0499,0.035,0.1518,79,12.022,232,8.2342,3.0957,-11.6185,-0.1605,-0.0594,0.0386,50
12.647,244,3.7174,3.2922,-18.7863,0.0468,-0.0399,0.1213,79,12.074,233,8.2304,3.0937,-11.5031,-0.1167,-0.0459,0.0017,50
12.699,245,3.6757,3.4098,-18.5556,0.0766,-0.064,0.0468,79,12.125,234,8.215,3.0803,-11.5683,-0.1305,-0.0504,-0.0171,50
12.751,246,3.5024,3.4005,-18.194,-0.0185,-0.0116,-0.0175,79,12.177,235,8.223,2.9966,-11.4947,-0.0932,-0.0246,-0.0558,50
12.802,247,3.4824,3.2247,-18.3427,-0.0956,0.0692,-0.039,79,12.229,236,8.2979,3.263,-11.4851,0.1625,0.0696,-0.1007,50
12.854,248,3.5181,2.9525,-18.7391,-0.1894,0.0776,-0.0378,79,12.281,237,8.1805,3.4264,-11.4957,0.2472,0.1239,-0.0984,50
12.906,249,3.5075,2.925,-18.7659,-0.2166,0.0297,0.0146,79,12.332,238,8.0985,3.5479,-11.3919,0.2402,0.091,-0.0435,50
12.958,250,3.6001,3.052,-18.6083,-0.2451,-0.0059,0.0797,79,12.384,239,8.2584,3.3591,-11.4691,0.0831,0.0518,-0.0054,50
13.01,251,3.6027,3.1936,-18.3933,-0.1954,-0.0121,0.1083,79,12.436,240,8.3265,3.1499,-11.3956,0.0039,0.0168,0.0064,50
13.061,252,3.5878,3.3587,-18.2453,-0.1038,0.0096,0.1146,79,12.488,241,8.2704,3.2552,-11.4527,0.0368,0.0043,0.0167,50
13.113,253,3.6361,3.5024,-18.2408,-0.0777,0.046,0.0851,79,12.54,242,8.2638,3.2426,-11.4525,0.0275,0.0038,0.0193,50
13.165,254,3.6925,3.4984,-18.3111,-0.0372,0.0625,0.0364,79,12.591,243,8.2668,3.2641,-11.4811,0.0541,0.0053,0.0072,50
13.217,255,3.6748,3.5151,-18.3369,-0.042,0.0744,0.0102,79,12.643,244,8.1741,3.2835,-11.5083,0.0626,0.0196,0.0029,50
13.269,256,3.6461,3.5316,-18.3007,-0.0536,0.0786,0.0085,79,12.695,245,8.2273,3.2667,-11.5238,0.0523,0.0111,0.0052,50
13.32,257,3.6135,3.412,-18.3631,-0.0416,0.0677,-0.0035,79,12.747,246,8.261,3.2749,-11.5162,0.0598,0.0128,-0.0073,50
13.372,258,3.6294,3.3214,-18.4092,-0.0511,0.0421,-0.0088,79,12.799,247,8.2481,3.3045,-11.5192,0.0427,0.0033,0.0082,50
13.424,259,3.6933,3.2736,-18.434,-0.0415,0.0103,0.018,79,12.85,248,8.2499,3.244,-11.5508,-0.0506,-0.0215,0.0297,50
13.476,260,3.7732,3.3004,-18.3897,-0.0192,-0.0221,0.0667,79,12.902,249,8.2555,3.2297,-11.5094,-0.138,-0.0552,0.0415,50
13.528,261,3.857,3.4255,-18.328,-0.0064,-0.0351,0.1037,79,12.954,250,8.2947,3.1204,-11.5188,-0.1719,-0.0772,0.0435,50
13.579,262,3.8859,3.5251,-18.2341,-0.0086,-0.0314,0.1212,79,13.006,251,8.2938,3.098,-11.5526,-0.1544,-0.0704,0.0346,50
13.631,263,3.9057,3.5504,-18.217,-0.0233,-0.0225,0.1186,79,13.058,252,8.2879,3.0842,-11.5603,-0.1042,-0.0412,0.0121,50
13.683,264,3.9165,3.5104,-18.2275,-0.0275,-0.0082,0.0887,79,13.109,253,8.2514,3.1259,-11.5323,-0.0896,-0.0312,0.0157,50
13.734,265,3.9434,3.4681,-18.2099,-0.0241,0.0002,0.0704,79,13.161,254,8.2525,3.1429,-11.5383,-0.0956,-0.0302,0.0189,50
13.786,266,3.9602,3.4548,-18.2263,-0.0215,0.0095,0.0662,79,13.213,255,8.2616,3.1304,-11.5321,-0.0792,-0.0232,0.0102,50
13.838,267,3.9614,3.4367,-18.2325,-0.0093,0.0104,0.0577,79,13.265,256,8.2348,3.1528,-11.5482,-0.0801,-0.028,0.0154,50
13.89,268,3.9094,3.3949,-18.0172,0.0122,0.0139,0.0466,79,13.316,257,8.2314,3.1772,-11.5557,-0.0633,-0.0255,0.0144,50
13.942,269,3.8561,3.3146,-17.4707,-0.0197,0.0999,0.0527,79,13.368,258,8.2263,3.1731,-11.5464,-0.0622,-0.0276,0.0148,50
13.993,270,3.6988,2.6936,-16.2876,0.0354,0.2677,0.1526,79,13.42,259,8.2425,3.1356,-11.5841,-0.0293,-0.0251,0.011,50
14.045,271,3.0752,2.2966,-14.934,0.1963,0.6241,0.3273,79,13.472,260,8.2659,3.1259,-11.581,0.0866,0.0125,-0.0095,50
14.097,272,3.9346,2.037,-14.694,-0.1868,1.1339,0.7951,79,13.523,261,8.3097,3.0215,-11.5723,0.0817,0.0213,-0.0056,50
14.149,273,5.5531,1.5732,-15.0201,0.3687,1.5059,1.1007,79,13.575,262,8.3122,3.0826,-11.5993,0.1008,0.0501,-0.0117,50
14.201,274,9.2703,0.1118,-15.5041,0.9457,1.7774,1.3161,79,13.627,263,8.3066,3.0983,-11.6097,0.15,0.1155,-0.03,50
14.253,275,8.5477,0.2834,-12.1625,0.0929,1.4039,1.0001,79,13.679,264,8.2116,3.1559,-11.5464,0.1737,0.1656,-0.0565,50
