right_leg_timestamp,right_leg_index,right_leg_accel_x,right_leg_accel_y,right_leg_accel_z,right_leg_gyro_x,right_leg_gyro_y,right_leg_gyro_z,right_leg_battery_percentage,left_leg_timestamp,left_leg_index,left_leg_accel_x,left_leg_accel_y,left_leg_accel_z,left_leg_gyro_x,left_leg_gyro_y,left_leg_gyro_z,left_leg_battery_percentage
0.132,2,9.434,-0.649,-11.9963,0.019,0.0313,0.007,85,0.677,13,8.7711,1.9045,-10.1253,-0.1029,-0.0493,-0.0049,51
0.183,3,9.4601,-0.6921,-11.9767,0.0155,0.032,0.0078,85,0.729,14,8.905,1.4588,-10.2303,-0.3468,-0.1288,0.0341,51
0.235,4,9.4598,-0.6625,-11.9514,0.0169,0.0312,0.0037,85,0.78,15,8.9403,1.2563,-10.3417,-0.3371,-0.0822,0.013,51
0.287,5,9.4405,-0.6404,-11.9458,0.0228,0.0186,-0.0045,85,0.832,16,8.8385,1.2942,-10.235,-0.147,0.0201,-0.0333,51
0.338,6,9.4597,-0.6234,-11.9483,0.0213,0.0119,-0.0089,85,0.884,17,8.8438,1.6997,-10.1326,0.1614,0.0919,-0.092,51
0.39,7,9.4566,-0.6088,-11.9496,0.0158,0.0134,-0.0088,85,0.936,18,8.9656,1.5944,-10.2316,0.1639,0.0419,-0.1244,51
0.442,8,9.4737,-0.5742,-11.9251,0.0145,0.0268,-0.0048,85,0.987,19,8.8994,1.9834,-10.2436,0.215,0.0398,-0.1376,51
0.494,9,9.4992,-0.3827,-12.0629,0.0046,0.0885,0.0025,85,1.039,20,8.8123,2.0713,-10.151,0.1728,0.0387,-0.1018,51
0.546,10,9.616,-0.3896,-11.9127,-0.1247,0.1475,0.0336,85,1.091,21,8.6848,2.0831,-10.0664,0.1347,-0.0055,-0.0673,51
0.597,11,9.57,-0.6461,-11.8331,-0.1426,0.1725,0.0402,85,1.143,22,8.5526,2.056,-10.1311,-0.0573,-0.0821,-0.0455,51
0.649,12,9.3943,-0.3327,-11.956,-0.157,0.1276,-0.0037,85,1.195,23,8.6968,2.0374,-10.1935,-0.0029,-0.092,-0.0307,51
0.701,13,9.5528,-0.7872,-11.7307,-0.2818,-0.1006,-0.1066,85,1.246,24,8.6843,2.0894,-10.2561,0.016,-0.0995,-0.0108,51
0.753,14,11.4959,-0.8392,-16.3627,-0.702,-0.7468,-0.4385,85,1.298,25,8.7661,1.9467,-10.399,-0.0259,-0.1301,0.0066,51
0.805,15,12.9449,-0.1457,-18.4152,-0.7975,-1.2185,-0.9535,85,1.35,26,8.812,1.8745,-10.5408,-0.0997,-0.1062,0.0203,51
0.857,16,11.8732,0.1761,-17.3364,-0.3182,-1.5627,-1.2973,85,1.402,27,8.7826,1.7735,-10.4647,-0.2055,-0.0917,0.0205,51
0.909,17,10.4821,0.6756,-14.8159,0.1376,-1.8139,-1.3351,85,1.454,28,8.8008,1.6987,-10.5176,-0.1987,-0.1059,0.006,51
0.96,18,9.3301,0.9048,-13.6026,0.5145,-1.9973,-1.2825,85,1.506,29,8.8203,1.7617,-10.616,-0.1543,-0.0792,-0.0077,51
1.012,19,7.0746,0.5017,-14.6987,0.9643,-1.8112,-1.1299,85,1.557,30,8.7825,1.8717,-10.5792,-0.0696,-0.0343,-0.0197,51
1.064,20,5.1081,0.5855,-15.8162,0.9634,-1.4455,-0.8432,85,1.609,31,8.7567,2.0234,-10.5642,-0.0684,-0.0078,-0.0049,51
1.115,21,3.7699,0.445,-15.6144,0.3027,-0.86,-0.6429,85,1.661,32,8.7335,2.02,-10.5199,-0.1203,-0.0092,0.0029,51
1.167,22,2.5126,0.1314,-16.5634,0.1764,-0.3754,-0.5499,85,1.713,33,8.7507,1.9893,-10.5223,-0.1127,-0.0058,-0.0063,50
1.219,23,1.6981,0.2556,-17.7456,0.2926,-0.1138,-0.4978,85,1.765,34,8.7564,1.91,-10.4866,-0.1026,-0.0072,-0.0028,50
1.271,24,1.4524,0.1971,-18.5361,0.1309,0.0368,-0.4871,85,1.816,35,8.7543,1.9036,-10.4824,-0.0776,0.0002,-0.0047,50
1.323,25,1.3904,0.1494,-19.1639,0.2031,0.0677,-0.4497,85,1.868,36,8.7615,1.9756,-10.4187,0.0323,0.0074,-0.0056,50
1.374,26,1.3256,0.349,-19.3684,0.1597,0.0692,-0.3738,85,1.92,37,8.7518,1.8772,-10.4308,-0.0021,0.0056,0.006,50
1.426,27,1.1569,0.2777,-19.4444,0.0903,0.0767,-0.3364,85,1.972,38,8.7138,2.0387,-10.3859,-0.044,-0.0053,0.013,50
1.478,28,1.0206,0.2486,-19.4756,0.0698,0.0683,-0.3052,85,2.023,39,8.7455,2.0023,-10.3971,-0.0448,-0.011,0.0164,50
1.53,29,0.9569,0.1587,-19.5293,0.0774,0.0508,-0.2779,85,2.075,40,8.7421,1.9869,-10.4102,-0.0781,-0.0164,0.0169,50
1.581,30,1.0204,0.1148,-19.6273,0.0716,0.036,-0.2402,85,2.127,41,8.7364,2.0315,-10.4088,-0.0993,-0.0253,0.0162,50
1.633,31,1.1197,0.1174,-19.6221,0.0371,0.0294,-0.1801,85,2.179,42,8.7138,2.0411,-10.4019,-0.1041,-0.0319,0.0148,50
1.685,32,1.197,0.1309,-19.5964,0.0308,0.0262,-0.1201,85,2.23,43,8.7205,2.0365,-10.4208,-0.0667,-0.0282,0.0116,50
1.737,33,1.2357,0.0746,-19.7724,0.0494,0.0318,-0.0807,85,2.282,44,8.7216,2.0316,-10.4358,-0.0224,-0.0217,0.0091,50
1.789,34,1.1805,0.0412,-19.8628,0.0616,0.0043,-0.0564,85,2.334,45,8.7053,1.9946,-10.4135,-0.0256,-0.0235,0.0146,50
1.84,35,1.1102,0.0699,-19.705,0.0191,-0.0305,-0.014,85,2.386,46,8.7457,1.9669,-10.4455,-0.0212,-0.0307,0.017,50
1.892,36,1.1413,-0.011,-19.5615,0.0565,-0.0484,0.0211,85,2.437,47,8.8003,1.8556,-10.5023,-0.0157,-0.0092,0.013,50
1.944,37,1.1606,0.0835,-19.4987,0.079,-0.0374,0.0434,85,2.489,48,8.7755,1.8535,-10.4836,-0.0177,0.0012,0.0075,50
1.996,38,1.1457,0.1623,-19.4884,0.0626,-0.0014,0.0458,85,2.541,49,8.7231,1.834,-10.4514,0.0123,0.0037,0.0088,50
2.048,39,1.0929,0.2305,-19.3918,-0.0003,0.0452,0.0539,85,2.593,50,8.7268,1.9236,-10.4583,0.0586,-0.003,0.0267,50
2.1,40,0.943,0.6895,-18.6983,-0.2158,0.1654,0.0696,85,2.645,51,8.7535,1.9842,-10.5789,0.0756,0.0056,0.0638,50
2.151,41,0.9895,0.7935,-18.3869,-0.5141,0.3943,0.062,85,2.696,52,8.791,1.7839,-10.3453,0.3153,0.0617,0.0697,50
2.203,42,1.3022,1.3501,-17.5397,-0.7591,0.7429,0.0512,85,2.748,53,8.5667,2.4615,-9.8672,0.3481,-0.1019,0.1295,50
2.255,43,1.47,1.3015,-16.8587,-1.0913,1.2022,0.1714,85,2.8,54,9.3624,1.737,-10.1228,0.2973,-0.6134,0.1378,50
2.307,44,2.5909,1.845,-15.0555,-1.378,1.5558,0.4625,85,2.852,55,8.237,3.7099,-9.0639,-0.4281,-0.0693,0.3541,50
2.359,45,4.1023,1.5347,-15.502,-1.2146,1.8138,0.839,85,2.904,56,10.2198,-1.0723,-8.8813,0.2051,0.5751,0.1853,50
2.41,46,8.2598,3.8307,-19.3189,-0.5739,1.5103,0.8806,85,2.955,57,9.629,0.2844,-9.9711,-0.0979,0.5896,-0.0227,50
2.462,47,6.7723,2.647,-19.1825,-0.803,1.583,1.0889,85,3.007,58,9.3191,1.3996,-10.1825,0.4805,0.578,-0.0754,50
2.514,48,6.9456,3.0534,-17.1289,-0.7048,1.3364,1.0455,85,3.059,59,9.1546,1.672,-10.221,0.3223,0.4444,-0.0418,50
2.566,49,7.3331,2.2851,-16.3381,-0.2632,1.1482,0.8339,85,3.111,60,8.834,2.7935,-10.3768,0.1844,0.3598,0.0188,50
2.617,50,7.6916,1.5318,-15.2371,-0.2168,1.0421,0.6823,85,3.162,61,9.4391,1.3678,-10.7338,-0.5425,0.1699,0.0836,50
2.669,51,8.5764,1.2463,-13.9333,-0.1478,0.7852,0.5106,85,3.214,62,9.4421,1.521,-10.6482,-0.5105,0.1379,0.0008,50
2.721,52,10.5752,0.1826,-13.2312,-0.0456,0.0331,0.1113,85,3.266,63,9.2814,1.5223,-10.7353,-0.4018,0.1996,-0.0371,50
2.773,53,12.1666,0.7914,-17.6616,-0.017,-0.6492,-0.2614,85,3.318,64,9.0773,1.5548,-10.4221,-0.3329,0.1983,-0.0738,50
2.825,54,10.3756,0.9122,-17.7012,-0.1836,-1.1472,-0.5392,85,3.37,65,8.9969,1.6765,-10.3664,-0.2832,0.1523,-0.0915,50
2.876,55,8.6387,1.1316,-16.0946,0.0912,-1.5107,-0.708,85,3.421,66,8.8713,1.8483,-10.2956,-0.0634,0.1741,-0.1139,50
2.928,56,6.7114,1.3242,-14.9475,0.5367,-1.7424,-0.709,85,3.473,67,8.7296,2.2653,-10.298,0.2686,0.1648,-0.1245,50
2.98,57,5.3673,1.322,-14.6112,0.8654,-1.6567,-0.5914,85,3.525,68,8.7709,2.1961,-10.5173,0.2639,0.1028,-0.0862,50
3.032,58,4.0327,1.1694,-15.6684,1.1096,-1.3457,-0.4519,85,3.577,69,8.6697,2.4374,-10.3684,0.2999,0.101,-0.0557,50
3.084,59,3.4378,1.2537,-16.6878,0.88,-1.0097,-0.3401,85,3.628,70,8.6414,2.5318,-10.2411,0.1821,0.0612,-0.0255,50
3.135,60,3.436,1.4965,-17.3197,0.7052,-0.7405,-0.3263,85,3.68,71,8.8775,2.0047,-10.3179,0.1146,0.0599,-0.0263,50
3.187,61,3.3635,1.426,-18.0378,0.6738,-0.5682,-0.3537,85,3.732,72,8.8021,2.1048,-10.3631,0.12,0.0946,-0.0243,50
3.239,62,3.2375,1.1328,-18.5167,0.3659,-0.4049,-0.3246,85,3.784,73,8.7135,2.0655,-10.2699,0.0448,0.1046,0.0031,50
3.291,63,3.1265,0.9671,-18.6607,0.0373,-0.2488,-0.2571,85,3.836,74,8.8248,1.9508,-10.2065,-0.0431,0.0804,0.0248,50
3.342,64,2.9781,0.9134,-18.836,-0.065,-0.1177,-0.2059,85,3.887,75,8.7699,2.1952,-10.0461,-0.0577,0.0627,0.0247,50
3.394,65,2.8074,0.8222,-19.0123,-0.1003,-0.0327,-0.1455,85,3.939,76,8.8912,1.9169,-10.0115,-0.2644,0.0036,0.0172,50
3.446,66,2.6082,0.6237,-19.1793,-0.1578,0.0127,-0.101,85,3.991,77,8.8413,1.925,-9.9961,-0.179,0.0045,-0.0098,50
3.498,67,2.9307,0.4286,-19.2965,-0.1326,0.0306,-0.0758,85,4.043,78,8.8014,1.817,-9.9979,-0.1054,0.0051,-0.0221,50
3.55,68,3.193,0.4006,-19.3553,-0.0755,0.0578,-0.0382,85,4.094,79,8.8065,1.8781,-10.036,-0.0324,-0.0057,-0.0203,50
3.601,69,3.2619,0.6187,-19.3251,-0.0608,0.0772,0.0599,85,4.146,80,8.8316,1.8959,-10.0803,0.0525,-0.0002,-0.0182,50
3.653,70,3.197,0.7446,-19.2343,-0.0499,0.0654,0.1505,85,4.198,81,8.8489,1.8859,-10.1161,0.1798,0.0111,-0.0075,50
3.705,71,2.9417,0.736,-19.0905,-0.0142,0.0644,0.1662,85,4.25,82,8.741,2.07,-10.0864,0.1892,0.0167,0.0147,50
3.757,72,2.5961,0.7161,-18.9694,0.012,0.0759,0.1304,85,4.302,83,8.7151,2.2231,-10.0296,0.0296,-0.0064,0.0264,50
3.809,73,2.4304,0.669,-19.0117,0.1003,0.0798,0.1012,85,4.354,84,8.74,1.9208,-10.129,0.084,0.0294,0.0168,50
3.86,74,2.471,0.7672,-19.1635,0.1856,0.062,0.0976,85,4.405,85,8.7311,1.8821,-10.0685,0.0192,0.009,0.0268,50
3.912,75,2.7163,0.8419,-19.3517,0.1525,0.024,0.1011,85,4.457,86,8.7701,1.888,-10.0949,-0.0944,-0.009,0.0296,50
3.964,76,2.9051,0.8854,-19.4078,0.1112,-0.0112,0.0769,85,4.509,87,8.6877,2.1247,-10.0814,-0.0661,0.0058,0.0248,50
4.016,77,3.005,0.9297,-19.3321,0.0045,-0.0189,0.0536,85,4.561,88,8.6886,2.1381,-10.0415,-0.2299,-0.0239,0.0343,50
4.068,78,2.9736,0.8622,-19.2285,-0.0705,-0.0095,0.0193,85,4.613,89,8.6402,2.1655,-9.941,-0.4256,-0.0881,0.0401,50
4.119,79,2.8627,0.742,-19.1273,-0.0662,-0.0104,-0.0287,85,4.664,90,8.7153,1.9838,-10.0822,-0.3748,-0.1241,0.033,50
4.171,80,2.6984,0.6188,-19.0753,-0.0561,-0.0048,-0.0578,85,4.716,91,8.755,1.867,-10.2606,-0.2983,-0.1027,0.022,50
4.223,81,2.7452,0.5302,-19.1468,-0.0319,0.0012,-0.0787,85,4.768,92,8.7475,1.9807,-10.1931,-0.2163,-0.0595,0.0068,50
4.275,82,2.855,0.5005,-19.2442,-0.0251,-0.0069,-0.0716,85,4.82,93,8.7458,2.0139,-10.1276,-0.1626,-0.0518,0.0068,50
4.327,83,2.9372,0.4395,-19.2432,-0.0132,-0.0244,-0.0406,85,4.871,94,8.737,2.033,-10.1615,-0.1777,-0.0637,0.0031,50
4.378,84,2.9022,0.4005,-19.2135,0.0108,-0.0279,-0.0056,85,4.923,95,8.7288,1.986,-10.1842,-0.1348,-0.0605,-0.0001,50
4.43,85,2.8553,0.3405,-19.1957,0.0265,-0.0287,0.0145,85,4.975,96,8.7584,1.9363,-10.1913,-0.1003,-0.0605,0.0043,50
4.482,86,2.9128,0.3641,-19.1728,0.0703,-0.0235,0.034,85,5.027,97,8.7595,1.9274,-10.2111,-0.0933,-0.0532,0.0011,50
4.534,87,3.0159,0.5128,-19.1293,0.1121,-0.0082,0.0573,85,5.078,98,8.7463,1.9653,-10.2401,-0.0493,-0.0358,-0.0057,50
4.585,88,2.9152,0.5508,-19.1359,0.1114,0.024,0.0559,85,5.13,99,8.7684,2.0032,-10.2365,-0.0246,-0.0274,-0.0148,50
4.637,89,2.8433,0.542,-19.2178,0.1095,0.0417,0.0356,85,5.182,100,8.7611,1.9516,-10.2166,0.0311,-0.0156,-0.0313,50
4.689,90,2.8655,0.5118,-19.2606,0.0872,0.0356,0.0244,85,5.234,101,8.7346,2.0072,-10.2059,0.0003,-0.0288,-0.0535,50
4.741,91,2.893,0.4709,-19.3212,0.0432,0.0256,0.0183,85,5.285,102,8.798,1.9237,-10.2662,-0.0116,-0.0348,-0.0801,50
4.793,92,2.9581,0.369,-19.2976,0.0231,0.0086,0.0105,85,5.337,103,8.7897,2.0463,-10.2918,-0.0514,-0.029,-0.1219,50
4.844,93,2.9598,0.2996,-19.2047,0.0227,0.011,0.0103,85,5.389,104,8.7907,2.1514,-10.2999,-0.0928,-0.0112,-0.1455,50
4.896,94,2.9317,0.2041,-19.1245,0.0023,0.0354,0.0171,85,5.441,105,8.7271,2.2949,-10.2692,-0.1515,0.0019,-0.1525,50
4.948,95,2.9669,0.1646,-19.1459,0.0335,0.056,0.0204,85,5.493,106,8.613,2.4984,-10.1113,-0.1096,-0.0076,-0.1197,50
5.0,96,3.0277,0.1856,-19.1724,0.0115,0.0768,0.0465,85,5.544,107,8.5767,2.4485,-10.1619,-0.0789,-0.0783,-0.0834,50
5.052,97,3.0694,0.1021,-19.1331,-0.0573,0.1113,0.0729,85,5.596,108,8.6244,2.3822,-10.3026,0.004,-0.0752,-0.0823,50
5.103,98,3.0198,0.1067,-19.1829,-0.1547,0.1654,0.1284,85,5.648,109,8.674,2.1157,-10.4643,0.0673,-0.0397,-0.1302,50
5.155,99,2.8077,-0.1048,-19.2513,-0.2542,0.1789,0.1974,85,5.7,110,8.7859,2.1248,-10.4127,0.0886,0.0336,-0.2391,50
5.207,100,2.7522,-0.0705,-19.312,-0.1384,0.1078,0.2893,85,5.752,111,8.6567,2.4874,-10.3182,0.0345,0.08,-0.3164,50
5.259,101,3.1212,0.065,-19.3116,-0.0683,0.0076,0.4107,85,5.803,112,8.4414,2.8895,-10.1815,-0.0352,0.1515,-0.3489,50
5.311,102,3.7728,0.5475,-19.2421,-0.0518,-0.0523,0.5273,85,5.855,113,8.3608,3.1978,-10.0831,-0.0675,0.1365,-0.3083,50
5.362,103,4.017,0.9643,-19.0013,-0.156,-0.0059,0.4756,85,5.907,114,8.2673,3.4237,-10.013,-0.0562,0.0823,-0.2297,50
5.414,104,3.9298,1.0219,-18.78,-0.273,0.133,0.2874,85,5.959,115,8.2976,3.4428,-10.0533,-0.0562,0.0341,-0.1608,50
5.466,105,3.3081,0.6573,-18.9973,-0.3291,0.2646,0.0133,85,6.01,116,8.294,3.3834,-10.1422,-0.003,0.0494,-0.1334,50
5.518,106,2.8765,-0.1151,-19.2937,-0.2782,0.1986,-0.2834,85,6.062,117,8.3142,3.2815,-10.1059,0.0382,0.08,-0.1434,50
5.57,107,3.2106,0.3026,-19.3892,0.167,-0.0453,-0.386,85,6.114,118,8.3018,3.4328,-10.0439,0.0274,0.1074,-0.1333,50
5.621,108,3.7782,0.3619,-19.3771,0.2633,-0.149,-0.2629,85,6.166,119,8.2552,3.4514,-9.9388,0.0444,0.1074,-0.1057,50
5.673,109,3.8169,1.1844,-19.1078,-0.0657,-0.0818,0.0215,85,6.217,120,8.3442,3.3414,-9.982,0.055,0.1088,-0.0893,50
5.725,110,3.6921,1.5634,-18.8538,-0.1729,-0.031,0.1279,85,6.269,121,8.1907,3.7187,-9.9178,0.1344,0.1728,-0.0646,50
5.777,111,3.7649,1.5138,-18.8847,-0.148,0.0142,0.0002,85,6.321,122,8.1192,3.759,-9.7086,0.0655,0.1363,0.0027,50
5.828,112,3.5817,1.1332,-18.9136,-0.1332,0.0587,-0.1621,85,6.373,123,8.1753,3.7218,-9.7135,0.0391,0.0626,0.0834,50
5.88,113,3.3806,0.8938,-18.9749,-0.0001,0.0317,-0.2952,85,6.425,124,8.2379,3.5001,-9.7869,0.112,0.0355,0.1243,50
5.932,114,3.2727,1.0278,-19.0647,0.1868,-0.0186,-0.3219,85,6.476,125,8.2954,3.3715,-9.79,0.1601,0.0387,0.1196,50
5.984,115,3.1831,1.0542,-19.1854,0.0972,-0.0002,-0.1699,85,6.528,126,8.303,3.2617,-9.7387,0.1455,0.0084,0.1083,50
6.035,116,3.1387,1.0385,-19.2416,0.0238,-0.0259,-0.0955,85,6.58,127,8.3946,3.1784,-9.8096,0.1155,-0.0137,0.0676,50
6.087,117,3.1872,1.2417,-19.1981,0.1214,-0.0946,-0.0887,85,6.632,128,8.4342,3.1779,-9.8451,0.0891,-0.0087,0.0168,50
6.139,118,3.5,1.6237,-19.1694,0.1139,-0.1149,-0.0392,85,6.683,129,8.4422,3.215,-9.8548,0.0357,-0.0081,-0.0205,50
6.191,119,3.708,1.6184,-19.057,-0.0199,-0.0687,-0.0325,85,6.735,130,8.4283,3.2069,-9.8679,-0.019,-0.0129,-0.0341,50
6.243,120,3.6755,1.4565,-18.9109,-0.0981,-0.0056,-0.1727,85,6.787,131,8.4151,3.1925,-9.8522,-0.0663,-0.0092,-0.0461,50
6.294,121,3.5147,1.1522,-18.8494,-0.0313,0.0399,-0.3857,85,6.839,132,8.3685,3.2966,-9.8324,-0.0967,-0.0038,-0.0545,50
6.346,122,3.4334,0.9163,-18.8508,0.0307,0.0856,-0.4796,85,6.891,133,8.3406,3.3133,-9.8211,-0.1208,-0.0083,-0.0525,50
6.398,123,3.2278,0.5526,-18.9619,0.0058,0.146,-0.4344,85,6.942,134,8.3333,3.3579,-9.8234,-0.1194,-0.0049,-0.0455,50
6.45,124,3.0028,0.4356,-19.2493,0.0025,0.1367,-0.3201,85,6.994,135,8.3154,3.3764,-9.7991,-0.1163,0.0005,-0.0387,50
6.502,125,3.0239,0.6927,-19.2902,0.0345,0.0402,-0.1357,85,7.046,136,8.2973,3.3802,-9.7789,-0.1179,0.0015,-0.0262,50
6.554,126,3.116,0.9979,-19.1542,-0.0299,0.0082,0.036,85,7.097,137,8.3135,3.3101,-9.8047,-0.1117,-0.0049,-0.0266,50
6.605,127,3.1961,1.1896,-19.1285,-0.1068,-0.0042,0.1056,85,7.15,138,8.3267,3.2805,-9.7657,-0.0986,-0.0054,-0.034,50
6.657,128,3.2619,1.2125,-19.107,-0.11,-0.0373,0.1248,85,7.201,139,8.2939,3.365,-9.7431,-0.0812,0.0136,-0.0404,50
6.709,129,3.2908,1.2092,-19.049,-0.1366,-0.0393,0.1861,85,7.253,140,8.2743,3.4546,-9.7063,-0.0633,0.0246,-0.0418,50
6.761,130,3.2506,1.3319,-18.9848,-0.1689,-0.0239,0.2597,85,7.305,141,8.2604,3.5077,-9.6743,-0.0674,0.026,-0.0299,50
6.812,131,3.3385,1.5242,-18.9781,-0.1394,-0.0216,0.2664,85,7.357,142,8.2787,3.4823,-9.6515,-0.0716,0.0322,-0.0091,50
6.864,132,3.4341,1.5601,-18.9768,-0.124,-0.0171,0.2156,85,7.408,143,8.2957,3.4876,-9.6292,-0.0557,0.0408,0.0088,50
6.916,133,3.3802,1.4377,-18.9157,-0.1549,0.0062,0.1703,85,7.46,144,8.2682,3.3488,-9.5716,-0.0051,0.0419,0.0139,50
6.968,134,3.2911,1.3074,-18.9116,-0.096,0.0086,0.1525,85,7.512,145,8.2635,3.4477,-9.6436,-0.0185,0.0461,0.0245,50
7.02,135,3.3352,1.4094,-18.9598,-0.0309,0.002,0.1671,85,7.564,146,8.2517,3.5437,-9.5449,-0.0601,0.0472,0.0553,50
7.071,136,3.3544,1.5804,-18.9718,-0.0467,0.0036,0.1779,85,7.615,147,8.2292,3.5467,-9.4907,-0.072,0.0403,0.0851,50
7.123,137,3.3393,1.6012,-18.9894,-0.0543,0.0016,0.179,85,7.667,148,8.2263,3.3657,-9.3552,-0.0124,0.0056,0.1194,50
7.175,138,3.4355,1.6438,-19.0153,-0.0444,-0.0123,0.1703,85,7.719,149,8.1074,3.4367,-9.2757,0.1545,-0.1052,0.1183,50
7.227,139,3.5281,1.6618,-18.9001,-0.0284,-0.0147,0.13,85,7.771,150,8.2457,3.5412,-9.5805,0.1375,-0.2282,0.1628,50
7.278,140,3.3458,1.4429,-18.7256,-0.0444,0.0307,0.1025,85,7.822,151,8.3085,3.1682,-9.726,0.0164,-0.2598,0.2428,50
7.33,141,3.2049,1.2582,-18.8524,0.0237,0.0687,0.1532,85,7.874,152,8.2425,2.6325,-9.7644,-0.0489,-0.3482,0.3282,50
7.382,142,3.2831,1.371,-19.3594,0.0095,0.0325,0.2834,85,7.926,153,8.8865,2.8159,-10.324,0.0978,-0.4769,0.3347,50
7.434,143,3.3652,1.5618,-19.2959,-0.1362,-0.0484,0.4111,85,7.978,154,8.883,2.565,-10.8298,0.1156,-0.3465,0.3087,50
7.486,144,2.6259,2.2061,-18.0436,-0.3903,-0.0095,0.5346,85,8.03,155,8.7387,2.5428,-10.7618,0.0671,-0.1914,0.2822,50
7.537,145,2.1624,2.9584,-15.5987,-0.9601,0.2603,0.8701,85,8.081,156,8.6376,2.4989,-10.6995,-0.0554,-0.1503,0.2814,50
7.589,146,3.0833,3.2262,-13.712,-1.2113,0.8683,1.2984,85,8.133,157,8.5141,1.8871,-10.8758,0.0302,-0.1247,0.1869,50
7.641,147,5.1223,3.5165,-14.0009,-1.273,1.3121,1.2235,85,8.185,158,7.9979,1.6952,-11.1281,0.0781,-0.0653,0.087,50
7.693,148,6.7968,3.9296,-18.2234,-0.3195,1.636,0.9276,85,8.237,159,8.7886,1.42,-10.9578,0.2805,0.0173,0.0147,50
7.745,149,10.2264,1.32,-15.5195,-0.1897,0.7585,0.7399,85,8.288,160,8.8534,1.2356,-11.1634,0.1512,-0.0191,-0.0116,50
7.796,150,9.3788,2.9999,-15.0386,-0.6041,0.6369,0.7543,85,8.34,161,9.0357,1.3316,-11.0995,0.3063,0.0357,-0.0627,50
7.848,151,8.9828,2.1808,-14.9049,-0.4004,0.4071,0.6641,85,8.392,162,8.9062,1.6307,-11.1022,0.319,0.0674,-0.0713,50
7.9,152,8.92,1.9466,-14.6865,-0.3795,0.3125,0.4931,85,8.444,163,8.7116,2.0566,-11.1171,0.2698,0.1048,-0.0432,50
7.952,153,8.7944,1.8506,-14.4791,-0.0738,0.2287,0.2655,85,8.496,164,8.693,2.0899,-11.0698,0.1988,0.1223,0.0039,50
8.004,154,8.7729,1.9351,-14.2643,-0.0981,0.1383,0.1651,85,8.547,165,8.8324,1.7788,-10.9003,0.0225,0.1025,0.0452,50
8.055,155,9.0534,2.1052,-14.0034,-0.083,0.0385,0.0738,85,8.599,166,8.7601,1.9837,-10.7962,0.0173,0.0657,0.0568,50
8.107,156,9.3831,1.9839,-13.9063,-0.0251,-0.0189,0.0275,85,8.651,167,8.7717,1.9775,-10.7468,-0.0108,0.0254,0.0718,50
