right_leg_timestamp,right_leg_index,right_leg_accel_x,right_leg_accel_y,right_leg_accel_z,right_leg_gyro_x,right_leg_gyro_y,right_leg_gyro_z,right_leg_battery_percentage,left_leg_timestamp,left_leg_index,left_leg_accel_x,left_leg_accel_y,left_leg_accel_z,left_leg_gyro_x,left_leg_gyro_y,left_leg_gyro_z,left_leg_battery_percentage
0.05,0,9.3077,-1.6404,-11.3402,0.1469,-0.2262,-0.0802,88,0.085,1,6.531,-3.2384,-18.0256,-0.4811,-1.864,1.8766,52
0.102,1,9.2441,-1.7386,-11.6785,0.0113,-0.0737,0.013,88,0.137,2,5.7016,-1.9838,-16.9974,-0.1862,-1.6165,1.3683,52
0.154,2,9.2076,-2.0717,-11.6947,-0.079,-0.0123,0.0248,88,0.188,3,5.5512,-1.6137,-16.7072,0.369,-1.1561,0.3418,52
0.205,3,9.3681,-2.3174,-11.6255,0.1955,0.0062,-0.1369,88,0.24,4,5.4613,-1.552,-16.9775,0.8557,-0.8749,-0.4219,52
0.257,4,9.3638,-1.5253,-11.7345,0.356,0.0209,-0.204,88,0.292,5,5.238,-2.2419,-16.1139,1.2992,-0.5363,-0.9202,52
0.309,5,9.4451,-1.2908,-11.4073,0.395,0.0655,-0.133,88,0.344,6,4.7903,-2.7704,-15.6454,1.0786,-0.3296,-1.0239,52
0.361,6,9.427,-1.1781,-11.0999,0.3038,0.0859,-0.0728,88,0.396,7,4.3801,-3.5221,-15.5195,0.6721,-0.2807,-0.9346,52
0.413,7,9.5302,-1.2787,-11.1124,0.2092,0.0813,-0.0654,88,0.447,8,4.0589,-4.9107,-15.5008,0.7704,-0.2082,-0.9688,52
0.464,8,9.5386,-1.4001,-11.0386,0.1519,0.0941,-0.0405,88,0.499,9,3.7098,-5.5782,-15.2532,0.886,-0.095,-0.9827,52
0.516,9,9.407,-1.5397,-11.0985,0.1509,0.0712,-0.0156,88,0.551,10,3.6077,-6.087,-15.1502,0.549,-0.003,-0.8424,52
0.568,10,9.4548,-1.5633,-10.9421,0.1789,0.0454,0.01,88,0.603,11,3.5053,-6.8348,-15.2979,0.4574,0.0463,-0.7132,52
0.62,11,9.5093,-1.5359,-10.9547,0.14,0.0551,0.058,88,0.655,12,3.5326,-6.9615,-15.3106,0.4772,0.0532,-0.5911,52
0.671,12,9.3229,-1.9147,-10.9582,0.023,0.0341,0.0655,88,0.706,13,3.5477,-7.3891,-15.2944,0.4199,0.0348,-0.4397,52
0.723,13,9.4302,-1.7497,-10.8781,0.0307,0.0175,0.0591,88,0.758,14,3.6298,-7.321,-15.3181,0.5573,0.0268,-0.3401,52
0.775,14,9.5086,-1.5315,-11.0518,-0.0882,0.0054,0.0758,88,0.81,15,3.5899,-7.1791,-15.2632,0.3326,-0.006,-0.1825,52
0.827,15,9.5451,-1.6584,-11.0656,-0.037,0.0191,0.0735,88,0.862,16,3.7603,-7.3432,-15.2371,0.1173,-0.0999,-0.0878,52
0.879,16,9.5855,-1.5316,-11.1751,-0.0401,0.0906,0.0942,88,0.914,17,3.8808,-8.5148,-15.9874,0.5039,-0.3457,0.0684,52
0.93,17,9.4886,-1.9135,-11.0732,0.0466,0.1311,0.1316,88,0.965,18,3.625,-9.9885,-16.5385,0.6195,-0.6949,0.4049,52
0.982,18,9.5344,-1.9331,-10.6803,0.0687,0.1125,0.1276,88,1.017,19,3.001,-10.4524,-16.1238,0.6556,-0.9504,0.7326,52
1.034,19,9.5103,-1.8998,-10.846,-0.0605,0.0149,0.1007,88,1.069,20,2.522,-9.7109,-15.4346,0.6997,-1.0316,1.0347,52
1.086,20,9.6259,-1.8857,-11.0148,-0.2403,0.0368,0.1285,88,1.121,21,1.8002,-9.0029,-14.838,0.6992,-1.0016,1.1607,52
1.138,21,9.5648,-1.8588,-10.9247,-0.4085,0.0691,0.1203,88,1.172,22,1.1154,-7.7638,-14.3054,0.6915,-0.8707,1.1465,52
1.189,22,9.4184,-2.2514,-11.07,-0.615,0.1286,0.094,88,1.224,23,0.7195,-6.9898,-14.0839,0.3834,-0.6889,1.145,52
1.241,23,9.2951,-2.9528,-10.9275,-0.6393,0.1872,0.0599,88,1.276,24,0.0085,-6.5654,-13.81,0.1957,-0.5084,1.0033,52
1.293,24,9.6753,-1.7109,-10.769,-0.3134,0.1105,-0.0307,88,1.328,25,-0.5149,-6.8713,-14.0642,0.0724,-0.3311,0.7649,52
1.345,25,9.6217,-1.8868,-11.037,-0.223,0.0548,-0.0712,88,1.38,26,-1.0319,-7.2962,-14.0799,0.0116,-0.2336,0.4215,52
1.396,26,9.6628,-1.4155,-10.793,0.0643,0.0782,-0.0644,88,1.431,27,-1.3064,-8.0529,-13.8871,0.0594,-0.1723,0.0796,52
1.448,27,9.4694,-1.8241,-10.8082,0.1139,0.0131,-0.0246,88,1.483,28,-1.2371,-8.9988,-14.0384,0.0205,-0.139,-0.0872,52
1.5,28,9.5944,-1.7209,-10.8119,0.1271,-0.0488,-0.0286,88,1.535,29,-1.6292,-8.9882,-13.8849,0.1168,-0.1201,-0.0801,52
1.552,29,9.6186,-1.375,-10.8152,0.0048,-0.055,-0.0184,88,1.586,30,-2.0951,-8.8959,-13.9308,0.1049,-0.086,0.0209,52
1.604,30,9.5861,-1.774,-10.9959,-0.3937,-0.0781,-0.0152,88,1.638,31,-2.1738,-8.8932,-13.9872,-0.0183,-0.0441,0.1708,52
1.656,31,9.2675,-2.447,-11.3072,-0.437,-0.0191,-0.0169,88,1.69,32,-2.431,-8.809,-14.201,-0.088,-0.016,0.2314,52
1.707,32,9.2339,-2.1005,-11.1659,-0.0317,-0.0327,-0.1074,88,1.742,33,-2.5743,-8.5234,-14.4424,-0.1552,-0.0528,0.2775,52
1.759,33,9.408,-1.8897,-11.2017,-0.0633,-0.0608,-0.1227,88,1.794,34,-2.699,-8.6582,-14.5547,-0.1512,-0.1082,0.2727,52
1.811,34,9.4758,-1.7304,-11.3194,0.067,0.0209,-0.071,88,1.845,35,-2.8903,-8.8623,-14.7574,0.0406,-0.2385,0.094,52
1.863,35,9.3529,-1.8002,-10.9632,0.2445,-0.0426,-0.061,88,1.897,36,-2.8993,-8.826,-14.3392,0.0748,-0.3237,0.035,52
1.915,36,9.4249,-1.8058,-11.1246,0.3158,-0.1536,-0.0924,88,1.949,37,-2.9241,-8.5161,-14.061,0.0332,-0.3051,0.0759,52
1.966,37,9.565,-1.554,-11.1823,0.3203,-0.1519,-0.0853,88,2.001,38,-2.861,-8.1653,-13.9817,-0.0702,-0.2296,0.0368,52
2.018,38,9.447,-1.7634,-11.2174,0.253,-0.1324,-0.0762,88,2.052,39,-2.7132,-8.3315,-14.0382,-0.1737,-0.1832,-0.0509,52
2.07,39,9.3927,-1.7395,-11.2036,0.221,-0.1583,-0.0842,88,2.104,40,-2.6789,-8.689,-14.5924,-0.2556,-0.2115,-0.0461,52
2.122,40,9.4006,-1.6543,-11.3624,0.2255,-0.2011,-0.0918,88,2.156,41,-2.864,-9.8408,-15.157,-0.0693,-0.4229,0.0521,52
2.174,41,9.4539,-1.6658,-11.4378,0.1973,-0.1907,-0.0625,88,2.208,42,-3.2673,-10.576,-15.6747,0.1476,-0.7447,0.2635,52
2.225,42,9.4029,-1.6349,-11.5098,0.163,-0.17,-0.0293,88,2.26,43,-3.8233,-10.8355,-15.1341,0.4009,-1.0924,0.5399,52
2.277,43,9.554,-1.3123,-11.4661,0.0237,-0.1033,0.0155,88,2.311,44,-4.3072,-10.2687,-14.0301,0.5631,-1.3457,0.8748,52
2.329,44,9.432,-1.6984,-11.5017,-0.1123,-0.0631,0.0465,88,2.363,45,-4.5611,-9.1915,-12.7238,0.7645,-1.3993,1.0878,52
2.381,45,9.5015,-1.6128,-11.4878,-0.2069,-0.0348,0.047,88,2.415,46,-4.8456,-7.978,-11.4484,0.789,-1.2644,1.0469,52
2.433,46,9.4365,-1.7,-11.6783,-0.2315,0.0285,0.0394,88,2.467,47,-4.8911,-7.2485,-10.9421,0.655,-0.9775,0.7782,52
2.484,47,9.3461,-1.8102,-11.6793,-0.1897,0.0924,0.0368,88,2.518,48,-5.0165,-6.7564,-10.8314,0.497,-0.6957,0.4939,52
2.536,48,9.3761,-1.6569,-11.452,-0.2076,0.0903,0.0205,88,2.57,49,-5.1437,-6.8141,-11.0231,0.3594,-0.4784,0.2304,52
2.588,49,9.4268,-1.7016,-11.4603,-0.1746,0.0379,-0.014,88,2.622,50,-5.4102,-7.017,-11.0325,0.2073,-0.3746,0.0086,52
2.64,50,9.4903,-1.8526,-11.4866,-0.1466,0.0443,-0.0135,88,2.674,51,-5.8219,-7.6543,-10.7916,0.1227,-0.3239,-0.1434,52
2.691,51,9.4251,-1.5119,-11.4929,-0.0945,0.0144,-0.019,88,2.726,52,-6.1225,-8.1024,-10.4939,0.0927,-0.2899,-0.1968,52
2.743,52,9.4908,-1.5072,-11.4811,-0.0738,-0.0294,-0.0145,88,2.777,53,-6.3099,-8.4772,-10.2711,0.0569,-0.2494,-0.1224,52
2.795,53,9.5027,-1.4596,-11.4648,-0.0642,-0.0102,-0.0098,88,2.829,54,-6.179,-8.5566,-10.0562,0.1038,-0.2228,-0.0748,52
2.847,54,9.4374,-1.5641,-11.462,-0.0774,-0.0122,0.0153,88,2.881,55,-5.8941,-8.3975,-9.9921,0.0972,-0.1713,-0.0318,52
2.899,55,9.5373,-1.584,-11.5155,-0.0574,-0.0113,0.0214,88,2.933,56,-5.7085,-8.2698,-9.9011,0.0926,-0.0819,-0.0269,52
2.95,56,9.5722,-1.3939,-11.5437,-0.0774,0.0046,0.0206,88,2.984,57,-5.728,-8.0017,-9.9095,0.041,0.0183,-0.0369,52
3.002,57,9.4262,-1.4024,-11.5549,-0.2006,0.0334,0.0463,88,3.036,58,-5.8002,-7.6555,-10.168,-0.0311,0.1182,-0.0291,52
3.054,58,9.3992,-1.5742,-11.6392,-0.299,0.0683,0.0661,88,3.088,59,-6.1312,-7.7657,-10.4373,-0.135,0.1586,-0.0168,52
3.106,59,9.3927,-1.6557,-11.489,-0.3412,0.1058,0.0747,88,3.14,60,-6.5012,-7.8769,-10.6587,-0.18,0.1264,-0.0933,52
3.158,60,9.1708,-2.1269,-11.3797,-0.2463,0.0426,0.058,88,3.192,61,-6.5895,-8.1173,-10.7324,-0.1896,0.0521,-0.1876,52
3.21,61,9.1244,-1.895,-11.5549,0.1472,-0.0295,-0.0333,88,3.243,62,-6.2651,-8.5139,-10.6504,-0.1866,-0.0172,-0.2578,52
3.261,62,9.1204,-2.2386,-11.6355,0.1623,-0.088,-0.035,88,3.295,63,-5.6769,-8.6742,-10.5602,-0.1538,-0.0505,-0.3113,52
3.313,63,9.4818,-1.4877,-11.57,0.2673,-0.1137,-0.0467,88,3.347,64,-5.3049,-8.8806,-10.3507,-0.1206,-0.0163,-0.3188,52
3.365,64,9.5433,-1.5343,-11.72,0.1224,-0.062,0.0031,88,3.399,65,-5.2662,-9.2187,-10.1166,-0.072,0.0695,-0.2856,52
3.417,65,9.5052,-1.3959,-11.5894,-0.1072,-0.0419,0.0351,88,3.451,66,-5.1844,-9.0693,-10.2986,-0.0539,0.1728,-0.1997,52
3.468,66,9.4376,-1.5926,-11.8437,-0.2618,-0.0354,0.0629,88,3.502,67,-5.1278,-8.9897,-10.6389,-0.0829,0.2634,-0.059,52
3.52,67,9.4057,-1.6711,-11.8836,-0.3852,0.0257,0.0889,88,3.554,68,-5.1864,-8.638,-10.8271,-0.0831,0.3153,-0.0304,52
3.572,68,9.0809,-2.1624,-12.0602,-0.3737,0.0446,0.0805,88,3.606,69,-5.174,-8.3863,-11.0051,-0.1145,0.3527,-0.0429,52
3.624,69,9.2861,-1.7549,-11.9548,-0.3738,0.0824,0.0774,88,3.658,70,-5.2527,-8.3503,-11.2422,-0.1515,0.3945,-0.0406,52
3.676,70,9.1619,-2.1132,-11.927,-0.2975,0.1119,0.0803,88,3.71,71,-5.5597,-8.4818,-11.5081,-0.2334,0.4057,-0.0447,52
3.727,71,9.2575,-1.8776,-11.7618,-0.2041,0.1024,0.0605,88,3.761,72,-5.7503,-8.5226,-11.796,-0.2491,0.3649,-0.0974,52
3.779,72,9.1359,-1.9702,-11.8147,-0.1332,0.0839,0.0271,88,3.813,73,-5.8884,-8.5453,-12.0633,-0.27,0.2954,-0.0831,52
3.831,73,9.2224,-2.1021,-11.7467,0.1284,0.0355,-0.0173,88,3.865,74,-6.0222,-8.5735,-12.305,-0.2352,0.1685,-0.0597,52
3.883,74,9.2136,-2.2415,-11.7679,0.1003,-0.0148,-0.0207,88,3.916,75,-6.0835,-8.59,-12.4757,-0.265,0.0415,-0.0377,52
3.934,75,9.0805,-2.4964,-11.8355,0.3245,-0.034,-0.069,88,3.968,76,-6.1075,-8.7872,-12.3667,-0.2755,-0.0851,-0.0896,52
3.986,76,9.1216,-1.9464,-11.7667,0.4723,-0.0694,-0.093,88,4.02,77,-5.8573,-8.5997,-12.4076,-0.509,-0.2273,-0.1542,52
4.038,77,9.3923,-2.0291,-11.4924,0.588,-0.1844,-0.1019,88,4.072,78,-5.3626,-9.0541,-12.6074,-0.4264,-0.2489,-0.1995,52
4.09,78,9.5008,-2.0215,-11.6587,0.5043,-0.1881,-0.0705,88,4.124,79,-4.7861,-8.7763,-12.7368,-0.3907,-0.2512,-0.1874,52
4.141,79,9.5026,-2.0419,-11.7035,0.4498,-0.1281,-0.0554,88,4.175,80,-4.5168,-8.8436,-12.5379,-0.2418,-0.2055,-0.1599,52
4.193,80,9.5211,-1.7919,-11.5611,0.3616,-0.094,-0.0436,88,4.227,81,-4.4001,-8.8998,-12.3633,-0.1947,-0.13,-0.131,52
4.245,81,9.6897,-1.2754,-11.496,0.1584,-0.0762,-0.0308,88,4.279,82,-4.3357,-8.6816,-12.4161,-0.1829,-0.0121,-0.0735,52
4.297,82,9.4943,-1.6734,-11.6476,-0.0232,-0.0159,0.0137,88,4.331,83,-4.4366,-8.6992,-12.6907,-0.183,0.1065,0.0328,52
4.349,83,9.5064,-1.6815,-11.5632,-0.1338,0.0562,0.0575,88,4.382,84,-4.5594,-8.6397,-12.9296,-0.1562,0.1735,0.0737,52
4.401,84,9.365,-1.771,-11.5747,-0.2,0.0583,0.0711,88,4.434,85,-4.5325,-8.367,-13.0757,-0.125,0.2077,0.0957,52
4.453,85,9.3744,-1.9417,-11.6244,-0.1763,0.0496,0.0682,88,4.486,86,-4.5479,-8.1822,-13.1748,-0.1124,0.2449,0.1216,52
4.504,86,9.3848,-1.957,-11.6039,-0.1747,0.0682,0.0692,88,4.538,87,-4.5804,-8.1737,-13.2679,-0.1353,0.2757,0.1369,52
4.556,87,9.4202,-1.8882,-11.4906,-0.1044,0.0683,0.0489,88,4.59,88,-5.0641,-8.2799,-13.3291,-0.1205,0.2987,0.1172,52
4.608,88,9.399,-1.7814,-11.4874,-0.106,0.0283,0.037,88,4.641,89,-5.0192,-8.1265,-13.6366,-0.1197,0.2914,0.1283,52
4.66,89,9.4254,-1.8384,-11.5516,-0.0943,0.0096,0.0263,88,4.693,90,-5.0602,-8.0266,-13.8921,-0.1821,0.2758,0.1959,52
4.712,90,9.2813,-2.0888,-11.7568,-0.0412,0.0258,0.0258,88,4.745,91,-5.0465,-7.765,-13.9563,-0.2005,0.2372,0.1828,52
4.763,91,9.3398,-1.7127,-11.5259,0.0388,0.0599,0.0304,88,4.797,92,-5.2827,-7.8187,-14.0215,-0.2109,0.1943,0.0785,52
4.815,92,9.3873,-1.7435,-11.4199,0.0467,0.0395,0.0301,88,4.848,93,-5.4486,-7.8694,-14.143,-0.1543,0.1364,-0.065,52
4.867,93,9.3761,-1.7442,-11.3974,0.0573,0.0018,0.005,88,4.9,94,-5.2762,-7.816,-14.3935,-0.176,0.0781,-0.1043,52
4.919,94,9.3562,-1.8576,-11.4536,0.0894,-0.0294,-0.0086,88,4.952,95,-5.1566,-7.8817,-14.434,-0.1772,0.0136,-0.0907,52
4.971,95,9.2888,-1.9176,-11.4736,0.1487,-0.04,-0.0237,88,5.004,96,-4.8659,-7.8416,-14.3649,-0.181,-0.042,-0.1334,52
5.022,96,9.3299,-1.9223,-11.4403,0.2072,-0.0727,-0.0261,88,5.056,97,-4.7124,-7.8223,-14.2184,-0.1626,-0.0643,-0.2188,52
5.074,97,9.4057,-1.7842,-11.5405,0.1937,-0.0982,-0.0454,88,5.107,98,-4.6009,-7.9406,-14.1693,-0.1426,-0.0464,-0.3017,52
5.126,98,9.448,-1.6088,-11.5831,0.1259,-0.09,-0.0443,88,5.159,99,-4.4742,-8.0782,-14.3207,-0.1655,-0.0048,-0.2989,52
5.177,99,9.2753,-2.0101,-11.7569,0.0542,-0.1071,-0.0487,88,5.211,100,-4.3394,-8.221,-14.4756,-0.1529,0.027,-0.2326,52
5.229,100,9.312,-1.7961,-11.7775,0.072,-0.0993,-0.0626,88,5.263,101,-4.2483,-8.1498,-14.5359,-0.1557,0.0297,-0.1808,52
5.281,101,9.379,-1.7513,-11.8264,0.0682,-0.0867,-0.0485,88,5.315,102,-4.186,-7.9948,-14.5572,-0.1504,0.0371,-0.161,52
5.333,102,9.3987,-1.7817,-11.7421,0.0577,-0.0664,-0.0349,88,5.366,103,-4.1241,-7.8866,-14.6249,-0.1834,0.0607,-0.1613,52
5.385,103,9.3734,-1.8073,-11.7649,0.0865,-0.0764,-0.0447,88,5.418,104,-4.0579,-7.9389,-14.7889,-0.1867,0.0767,-0.1937,52
5.437,104,9.3573,-1.7799,-11.8105,0.1078,-0.0917,-0.0498,88,5.47,105,-3.9066,-7.9753,-14.9411,-0.1697,0.0718,-0.2328,52
5.489,105,9.32,-1.8336,-11.8781,0.1217,-0.0775,-0.0534,88,5.522,106,-3.819,-8.0852,-14.9685,-0.1539,0.0617,-0.2446,52
5.54,106,9.3393,-1.6843,-11.8681,0.1204,-0.0708,-0.0513,88,5.573,107,-3.6595,-8.1296,-14.954,-0.1312,0.0592,-0.2469,52
5.592,107,9.3149,-1.6754,-11.8545,0.1025,-0.0699,-0.0413,88,5.625,108,-3.5017,-8.1525,-14.9674,-0.1054,0.0809,-0.2087,52
5.644,108,9.3772,-1.6071,-11.8821,0.0675,-0.0766,-0.0383,88,5.677,109,-3.4721,-8.0869,-14.9867,-0.1176,0.1119,-0.132,52
5.696,109,9.4182,-1.5424,-11.8145,-0.0101,-0.0762,-0.0315,88,5.729,110,-3.4535,-8.024,-15.0481,-0.1202,0.1505,-0.0672,52
5.747,110,9.4092,-1.569,-11.8854,-0.0192,-0.0571,-0.0253,88,5.781,111,-3.4279,-8.0308,-15.1511,-0.1327,0.1806,-0.0091,52
5.799,111,9.3664,-1.6834,-11.8708,-0.0268,-0.0549,-0.0213,88,5.832,112,-3.5515,-8.1493,-15.2796,-0.1191,0.1817,0.0228,52
5.851,112,9.3554,-1.5813,-11.9746,-0.0246,-0.0512,-0.0055,88,5.884,113,-3.598,-8.0909,-15.3195,-0.0568,0.1526,0.0014,52
5.903,113,9.3388,-1.6491,-12.0737,-0.0312,-0.0221,0.0217,88,5.936,114,-3.5746,-7.9791,-15.3724,-0.0343,0.1327,-0.0104,52
5.955,114,9.3166,-1.7005,-12.0094,-0.01,0.0005,0.029,88,5.987,115,-3.5132,-7.9521,-15.4156,-0.0152,0.1123,-0.0116,52
6.006,115,9.1977,-1.8414,-11.9129,-0.0108,-0.0483,0.0109,88,6.039,116,-3.4488,-7.9015,-15.5297,-0.0389,0.0838,0.0132,52
6.058,116,9.2397,-1.6928,-12.0553,-0.0001,-0.0848,-0.0047,88,6.091,117,-3.4145,-8.081,-15.6392,-0.0326,0.0276,0.0378,52
6.11,117,9.3078,-1.6696,-12.2148,0.004,-0.0615,0.0003,88,6.143,118,-3.4227,-7.9657,-15.6234,-0.0107,-0.0388,0.0472,52
6.162,118,9.2748,-1.6523,-12.2745,0.0272,0.0304,0.0189,88,6.195,119,-3.4638,-7.9092,-15.5983,-0.019,-0.056,0.0653,52
6.213,119,9.299,-1.6503,-12.0663,0.0827,0.092,0.0337,88,6.246,120,-3.4827,-7.8979,-15.5596,0.0319,-0.0712,0.0415,52
6.265,120,9.2892,-1.6435,-11.9638,0.0845,0.0422,0.0148,88,6.298,121,-3.5622,-7.9457,-15.5712,0.0583,-0.088,0.0112,52
6.317,121,9.3109,-1.6354,-12.0333,0.0724,0.0315,0.0159,88,6.35,122,-3.6049,-8.0544,-15.4768,0.126,-0.1189,0.0011,52
6.369,122,9.3134,-1.7189,-11.9846,0.0393,0.0684,0.032,88,6.402,123,-3.5956,-8.2154,-15.2668,0.1963,-0.129,0.005,52
6.421,123,9.3201,-1.7495,-11.9273,0.0613,0.1089,0.0389,88,6.454,124,-3.4772,-8.2928,-15.0591,0.2459,-0.1067,0.0308,52
6.472,124,9.3306,-1.7193,-11.8006,0.0327,0.1126,0.0442,88,6.505,125,-3.3837,-8.3453,-14.8901,0.2641,-0.0744,0.0893,52
6.524,125,9.2636,-1.7562,-11.8582,-0.0064,0.1144,0.0539,88,6.557,126,-3.4463,-8.2221,-14.6938,0.273,-0.0333,0.1362,52
6.576,126,9.2859,-1.7854,-11.7717,-0.0358,0.126,0.0649,88,6.609,127,-3.5396,-8.0585,-14.6052,0.2459,0.0288,0.1568,52
6.628,127,9.317,-1.8675,-11.6248,-0.0688,0.1269,0.0651,88,6.661,128,-3.5529,-7.9542,-14.6905,0.2085,0.0708,0.1462,52
6.68,128,9.3243,-1.882,-11.5457,-0.059,0.0968,0.0491,88,6.713,129,-3.5495,-7.8667,-14.7242,0.1732,0.0769,0.1263,52
6.731,129,9.3571,-1.8858,-11.61,-0.0474,0.0922,0.0415,88,6.764,130,-3.5246,-7.7451,-14.7012,0.1246,0.0689,0.0929,52
6.783,130,9.4133,-1.8107,-11.5753,-0.0678,0.1249,0.0526,88,6.816,131,-3.551,-7.7198,-14.6676,0.0688,0.0832,0.0368,52
6.835,131,9.349,-1.8558,-11.4398,-0.0685,0.1453,0.0504,88,6.868,132,-3.6029,-7.8535,-14.7185,0.0284,0.0958,-0.0413,52
6.887,132,9.2793,-1.9964,-11.3249,-0.0667,0.1088,0.0302,88,6.92,133,-3.5416,-7.8794,-14.8275,0.0127,0.09,-0.1013,52
6.938,133,9.3536,-1.9887,-11.4047,-0.0192,0.062,-0.0076,88,6.971,134,-3.6154,-8.0222,-14.8752,-0.0281,0.0849,-0.1078,52
6.99,134,9.3898,-1.8987,-11.4258,0.0286,0.0621,-0.0185,88,7.023,135,-3.6393,-8.1004,-14.9131,-0.0432,0.0736,-0.1175,52
7.042,135,9.3164,-2.0229,-11.173,0.0224,0.0476,-0.0212,88,7.075,136,-3.5886,-8.0961,-14.9294,-0.0571,0.0595,-0.1091,52
7.094,136,9.3216,-1.946,-11.1726,0.0594,0.0208,-0.0347,88,7.127,137,-3.5976,-8.102,-14.9313,-0.0576,0.0402,-0.1079,52
7.146,137,9.3356,-1.908,-11.2325,0.1069,0.0102,-0.0399,88,7.179,138,-3.4658,-8.1394,-14.8943,-0.0543,0.0342,-0.1374,52
7.197,138,9.3533,-1.854,-11.2035,0.1219,0.0024,-0.0354,88,7.23,139,-3.2104,-8.1914,-14.9217,-0.0419,0.029,-0.1884,52
7.249,139,9.3755,-1.8141,-11.1906,0.1133,-0.0088,-0.0247,88,7.282,140,-2.8871,-8.1779,-14.8659,-0.0159,0.0289,-0.2361,52
7.301,140,9.5143,-1.7219,-11.1519,0.0342,0.0164,0.0086,88,7.334,141,-2.6182,-8.2686,-14.7772,-0.0228,0.0605,-0.2621,52
7.353,141,9.4961,-1.6923,-11.0971,-0.1242,0.0289,0.0347,88,7.386,142,-2.4046,-8.3397,-14.7161,-0.0252,0.114,-0.2668,52
7.405,142,9.4248,-1.8965,-11.1795,-0.2222,-0.0254,0.0259,88,7.437,143,-2.4143,-8.4367,-14.6776,-0.043,0.1737,-0.2229,52
7.457,143,9.5221,-1.6235,-11.233,-0.3398,-0.0387,0.0306,88,7.489,144,-2.7431,-8.358,-14.7136,-0.0863,0.2072,-0.1822,52
7.508,144,9.4215,-1.811,-11.3705,-0.448,-0.0244,0.0476,88,7.541,145,-2.8466,-8.2212,-14.9125,-0.1101,0.222,-0.1879,52
7.56,145,9.2586,-2.6544,-11.3517,-0.4709,0.0061,0.0565,88,7.593,146,-2.6738,-8.3493,-15.1021,-0.1096,0.2187,-0.2034,52
7.612,146,9.0355,-3.1247,-11.3319,-0.0336,-0.0743,-0.0213,88,7.644,147,-2.5262,-8.4747,-15.1593,-0.0799,0.1847,-0.2073,52
7.664,147,9.3915,-1.8855,-11.4808,0.0243,-0.1654,-0.0721,88,7.696,148,-2.3653,-8.436,-15.1495,-0.0631,0.1748,-0.183,52
7.716,148,9.52,-1.7683,-11.6929,0.0036,-0.1042,-0.0625,88,7.748,149,-2.1131,-8.4141,-15.1217,-0.0546,0.1961,-0.1467,52
7.767,149,9.4979,-1.6592,-11.6471,-0.067,-0.0182,-0.0257,88,7.8,150,-1.732,-8.3195,-15.2228,-0.0622,0.2185,-0.1156,52
7.819,150,9.3602,-1.995,-11.7201,-0.1091,0.0095,-0.0025,88,7.852,151,-1.6365,-8.4441,-15.2957,-0.0452,0.2359,-0.0949,52
7.871,151,9.4706,-1.7787,-11.6757,-0.0961,0.0487,0.0134,88,7.904,152,-1.6245,-8.4237,-15.2861,-0.0405,0.2539,-0.0569,52
7.923,152,9.462,-1.6244,-11.6475,-0.1528,0.0807,0.0301,88,7.955,153,-1.6084,-8.3152,-15.3418,-0.0529,0.2788,0.0077,52
7.974,153,9.4393,-1.8022,-11.6302,-0.2436,0.1141,0.0606,88,8.007,154,-1.5061,-8.2052,-15.4426,-0.0548,0.2964,0.0425,52
8.026,154,9.3457,-2.0966,-11.4968,-0.2008,0.1099,0.0744,88,8.059,155,-1.5012,-8.339,-15.5256,-0.0108,0.2598,-0.0068,52
8.078,155,9.3744,-1.9321,-11.4269,-0.1619,0.0842,0.0774,88,8.111,156,-1.4575,-8.4166,-15.4101,0.023,0.2082,-0.0843,52
8.13,156,9.394,-1.9157,-11.4598,-0.09,0.059,0.0655,88,8.162,157,-1.4127,-8.4571,-15.4095,0.0705,0.1679,-0.1979,52
8.182,157,9.4145,-1.8765,-11.35,-0.0759,0.0396,0.0666,88,8.214,158,-1.2944,-8.3458,-15.6164,0.1503,0.0786,-0.2728,52
8.233,158,9.4226,-1.8698,-11.3883,-0.0749,-0.018,0.043,88,8.266,159,-1.565,-8.5252,-15.8358,0.1766,-0.0925,-0.2549,52
8.285,159,9.4636,-1.902,-11.6755,-0.1207,-0.022,0.0214,88,8.318,160,-1.6628,-8.2923,-15.5819,0.2828,-0.2639,-0.2662,52
8.337,160,9.321,-2.614,-11.5297,-0.1259,0.0477,0.0044,88,8.37,161,-1.4855,-8.1128,-15.1462,0.2694,-0.2961,-0.2684,52
8.389,161,9.158,-2.9397,-11.4791,0.1692,0.0169,-0.0309,88,8.421,162,-1.1219,-8.329,-14.7279,0.2325,-0.2396,-0.3197,52
8.441,162,9.2558,-2.0881,-11.4077,0.2885,-0.0524,-0.0702,88,8.473,163,-0.4623,-8.4495,-14.4941,0.2535,-0.168,-0.3815,52
8.492,163,9.3107,-1.7969,-11.5131,0.3573,-0.0638,-0.0811,88,8.525,164,0.0016,-8.7355,-14.4196,0.2014,-0.1186,-0.3044,52
8.544,164,9.6257,-1.6553,-11.6296,0.3022,-0.0599,-0.0589,88,8.577,165,0.0507,-8.7729,-14.2968,0.1063,-0.0613,-0.1411,52
8.596,165,9.5997,-1.3628,-11.5377,-0.0145,-0.0422,-0.0319,88,8.628,166,-0.4697,-8.6121,-14.3133,-0.0309,0.0253,0.0256,52
8.648,166,9.403,-1.5336,-11.6189,-0.2139,0.0029,0.0002,88,8.68,167,-0.8791,-8.5935,-14.5924,-0.0751,0.1337,0.1049,52
8.7,167,9.2563,-2.1491,-11.4701,-0.2985,0.0065,0.0163,88,8.732,168,-0.6686,-8.6643,-14.7038,-0.019,0.1577,0.0613,52
8.751,168,9.0372,-2.6201,-11.5473,-0.0322,-0.0166,-0.011,88,8.784,169,-0.3156,-8.7575,-14.8041,0.0278,0.0999,-0.0285,52
8.803,169,9.5957,-1.2284,-11.2892,0.1101,-0.0721,-0.0101,88,8.835,170,-0.0525,-8.8471,-14.6582,0.0731,0.0349,-0.0482,52
8.855,170,9.625,-1.4663,-11.229,-0.0084,-0.0619,0.0184,88,8.887,171,-0.0703,-8.7034,-14.4078,0.1282,0.012,-0.0205,52
8.907,171,9.5058,-1.5805,-11.4418,-0.2127,-0.1038,0.0145,88,8.939,172,-0.3404,-8.463,-14.4246,0.0055,0.1018,0.1035,52
8.959,172,9.516,-1.2189,-11.458,-0.3739,-0.1207,0.0296,88,8.991,173,-0.7145,-8.6175,-14.6689,-0.032,0.1786,0.1239,52
9.01,173,9.2929,-1.7361,-11.5522,-0.5024,-0.1788,0.0469,88,9.043,174,-0.6297,-8.5824,-15.0424,-0.0408,0.1676,0.0668,52
9.062,174,8.9958,-2.5285,-11.9586,-0.3446,-0.2381,0.0442,88,9.094,175,-0.6598,-8.8315,-15.2396,-0.0263,0.0725,0.0271,52
9.114,175,9.471,-1.2445,-12.1379,0.0348,-0.2396,-0.0929,88,9.146,176,-0.7551,-8.7724,-15.0832,0.0078,-0.0456,-0.0097,52
9.166,176,9.2754,-1.4634,-12.4364,0.0069,-0.1704,-0.0754,88,9.198,177,-0.7325,-8.7654,-14.8018,0.0393,-0.0901,-0.0271,52
9.217,177,9.23,-1.5796,-12.4089,0.0398,-0.1146,-0.0823,88,9.25,178,-0.577,-8.6944,-14.5523,0.0067,-0.064,0.0031,52
9.269,178,9.3182,-1.305,-12.3955,0.2998,-0.0935,-0.1663,88,9.302,179,-0.8187,-8.9656,-14.6201,0.0197,-0.0461,-0.0093,52
9.321,179,9.3536,-1.1409,-12.3878,0.1581,-0.0243,-0.0976,88,9.354,180,-0.947,-9.0517,-14.9134,-0.0246,-0.074,-0.0178,52
9.373,180,9.2677,-1.602,-12.4408,0.0463,0.0508,-0.0372,88,9.406,181,-0.9401,-9.2267,-14.9263,0.0796,-0.1372,-0.0271,52
9.425,181,9.203,-1.86,-12.2745,0.1233,0.1122,-0.0394,88,9.457,182,-0.6778,-9.3593,-14.6675,0.18,-0.1693,-0.0262,52
9.476,182,9.2314,-1.5524,-12.2083,0.3882,0.1042,-0.0777,88,9.509,183,-0.6452,-10.0139,-14.0836,0.4283,-0.1286,-0.0476,52
9.528,183,9.2787,-1.5798,-12.1187,0.3405,0.1385,-0.0605,88,9.561,184,-0.4721,-9.8918,-13.8933,0.4921,-0.0699,-0.0545,52
9.58,184,9.2081,-1.5531,-11.9803,0.2722,0.1417,-0.0453,88,9.613,185,-0.4078,-9.757,-13.8464,0.5374,-0.003,0.0207,52
9.632,185,9.2069,-1.5982,-11.7643,0.338,0.0641,-0.0714,88,9.665,186,-0.4796,-10.3483,-13.6912,0.6178,0.0212,0.1776,52
9.683,186,9.2921,-1.3594,-11.877,0.2661,-0.026,-0.0679,88,9.716,187,-0.6594,-9.977,-13.1973,0.7344,0.0721,0.4138,52
9.735,187,9.3429,-1.2881,-11.9296,0.1726,0.0175,-0.0557,88,9.768,188,-0.8054,-9.7484,-13.0364,0.5592,0.204,0.6737,52
9.787,188,9.3453,-1.2814,-11.7276,0.0624,0.0732,-0.0057,88,9.82,189,-1.1643,-9.011,-13.1268,0.4676,0.2839,0.8084,52
9.839,189,9.2068,-1.644,-11.2277,-0.1218,-0.0472,-0.0352,88,9.872,190,-1.6173,-8.501,-13.5943,0.2897,0.2342,0.87,52
9.891,190,9.3682,-1.7505,-11.7651,-0.0541,-0.1656,-0.1081,88,9.924,191,-2.2558,-7.8055,-13.8285,0.1911,0.113,0.8683,52
9.943,191,9.4044,-1.7671,-11.9699,0.0584,-0.1423,-0.1047,88,9.975,192,-2.8008,-7.7716,-13.7768,0.2093,-0.0645,0.642,52
9.994,192,9.3,-1.481,-12.0735,0.1488,-0.0995,-0.0641,88,10.027,193,-3.1281,-7.5793,-13.369,0.2959,-0.2598,0.2927,52
10.046,193,9.5842,-1.2232,-11.921,0.2308,-0.1404,-0.0642,88,10.079,194,-2.8751,-7.8043,-12.6247,0.3185,-0.3734,0.0247,52
10.098,194,9.6152,-1.1653,-12.0884,0.1987,-0.083,-0.0246,88,10.131,195,-2.463,-8.64,-12.0509,0.2416,-0.4016,-0.1766,52
10.15,195,9.561,-1.1247,-11.9434,0.11,-0.0328,0.0523,88,10.183,196,-2.2162,-9.5234,-11.5315,0.2978,-0.3645,-0.3421,52
10.202,196,9.4701,-0.8507,-11.9411,0.0062,-0.0249,0.0629,88,10.234,197,-1.9968,-9.9344,-11.2144,0.1985,-0.2531,-0.324,52
10.253,197,9.5347,-1.1029,-12.0259,-0.2208,-0.032,0.0974,88,10.286,198,-2.0753,-10.0869,-11.1519,0.1337,-0.1045,-0.1691,52
10.305,198,9.3112,-1.1436,-12.3262,-0.3847,-0.0108,0.1163,88,10.338,199,-2.2999,-9.9236,-11.1445,0.0159,0.0398,0.0857,52
10.357,199,9.1304,-1.3891,-12.293,-0.5456,0.095,0.1741,88,10.39,200,-2.7068,-9.6568,-11.5781,-0.2179,0.0864,0.2662,52
10.409,200,9.0595,-2.0729,-12.1373,-0.5732,0.1326,0.1892,88,10.441,201,-2.9811,-9.3022,-11.9587,-0.1655,0.0834,0.272,52
10.461,201,9.0226,-2.4686,-12.0767,-0.4575,0.1658,0.1597,88,10.493,202,-3.2882,-9.3861,-12.1958,-0.1287,-0.0205,0.181,52
10.512,202,9.1984,-2.0187,-12.0473,-0.2008,0.1406,0.1211,88,10.545,203,-3.5399,-9.9297,-12.1392,0.0001,-0.121,0.0533,52
10.564,203,9.2276,-1.785,-11.9178,-0.1576,0.1589,0.115,88,10.597,204,-3.5048,-10.0177,-11.8072,0.1136,-0.1867,-0.0319,52
10.616,204,9.1715,-2.1411,-11.7456,-0.0146,0.1087,0.0787,88,10.649,205,-3.2397,-10.6693,-11.6704,0.1553,-0.2305,-0.0765,52
10.668,205,9.1287,-1.8702,-11.9568,0.1471,0.027,0.005,88,10.701,206,-3.1334,-10.3532,-10.642,0.2409,-0.1587,-0.1408,52
10.719,206,9.4542,-1.5672,-11.8494,0.3265,0.0199,-0.0739,88,10.752,207,-2.4497,-9.8589,-10.1798,0.0653,0.1406,-0.1425,52
10.771,207,9.6367,-1.6383,-11.646,0.2003,0.0539,-0.0515,88,10.804,208,-2.1351,-8.9071,-10.0335,-0.1495,0.5332,-0.0975,52
10.823,208,9.9379,-0.9085,-11.6058,0.0011,0.1296,-0.0125,88,10.856,209,-1.9082,-7.7241,-9.8244,-0.4868,0.991,-0.1783,52
10.875,209,9.7474,-1.1911,-11.4014,-0.3707,0.1662,0.0404,88,10.908,210,-1.3338,-7.1481,-10.9403,-1.0216,1.4082,-0.1675,52
10.927,210,9.4901,-1.8331,-11.6783,-0.5111,0.1541,0.0154,88,10.96,211,-0.9569,-7.6257,-12.7019,-0.9063,1.6526,-0.3639,52
10.979,211,9.3626,-1.7373,-11.7544,-0.3058,0.2136,0.0088,88,11.011,212,-0.6955,-7.4075,-13.9575,-0.7156,1.5435,-0.46,52
11.03,212,9.3609,-1.7477,-11.6529,-0.0159,0.1557,0.0062,88,11.063,213,-0.3155,-8.05,-14.941,-0.8562,1.3992,-0.4587,52
11.082,213,9.5402,-1.4004,-11.4145,0.0398,0.1843,0.0418,88,11.115,214,0.0709,-8.5601,-15.3053,-0.4894,1.1672,-0.5292,52
11.134,214,9.3523,-1.2308,-11.0154,0.1661,0.0823,0.0235,88,11.167,215,0.406,-8.6131,-15.1294,-0.5778,0.989,-0.3827,52
11.186,215,9.753,-0.5854,-11.4191,0.2096,0.0742,0.0329,88,11.218,216,0.2927,-9.1883,-15.3499,-0.6058,0.8842,-0.2861,52
11.238,216,9.8161,-0.4341,-11.1267,-0.0202,0.2033,0.0811,88,11.27,217,0.5672,-8.9408,-15.811,-0.3323,0.6636,-0.2434,52
11.289,217,9.3478,-2.093,-11.6465,-0.1616,-0.0137,0.0225,88,11.322,218,0.7282,-8.9984,-16.0882,-0.0825,0.4383,-0.2422,52
11.341,218,9.5705,-1.7633,-11.5464,0.0455,0.0462,-0.0083,88,11.374,219,0.9461,-8.9591,-15.6592,0.0421,0.1913,-0.2068,52
11.393,219,9.4007,-1.4487,-11.2835,0.3769,-0.0431,-0.0287,88,11.425,220,1.0858,-9.1634,-15.2426,0.2337,-0.0841,-0.0927,52
11.445,220,9.4208,-1.4648,-11.052,0.4232,-0.1718,-0.084,88,11.477,221,1.1919,-8.7983,-15.0395,0.3228,-0.2984,0.0008,52
11.496,221,9.511,-1.4916,-11.5512,0.3075,-0.1662,-0.1072,88,11.529,222,1.8492,-9.6406,-15.582,0.5459,-0.8075,0.1344,52
11.548,222,9.4971,-1.322,-11.289,0.2406,-0.0808,-0.0988,88,11.581,223,1.7914,-8.6568,-14.8142,1.0061,-1.2561,0.3211,52
11.6,223,9.3559,-1.3184,-11.3899,0.1435,-0.136,-0.1135,88,11.633,224,1.2604,-8.5741,-13.9207,0.6758,-1.4942,0.6507,52
11.652,224,9.4773,-1.3523,-11.5273,0.0755,-0.1279,-0.1002,88,11.684,225,0.35,-8.1596,-13.3779,0.569,-1.4708,0.7857,52
11.704,225,9.398,-1.7132,-11.3453,0.0726,-0.063,-0.0646,88,11.736,226,-0.5351,-8.3722,-13.1931,0.2042,-1.3863,0.8981,52
11.756,226,9.4063,-1.6949,-11.3713,0.1756,-0.041,-0.0571,88,11.788,227,-1.6505,-7.9665,-12.7809,0.2032,-1.2414,0.7836,52
11.807,227,9.2387,-1.6277,-11.469,0.3538,-0.0111,-0.0854,88,11.84,228,-2.6625,-8.298,-12.4839,-0.0211,-1.0479,0.5691,52
11.859,228,9.5894,-0.9166,-10.7279,0.4134,-0.0735,-0.0698,88,11.891,229,-3.3035,-8.904,-12.374,-0.0038,-0.8302,0.2605,52
11.911,229,9.4668,-0.9097,-10.8588,0.3717,-0.2478,-0.0975,88,11.943,230,-3.3979,-8.9706,-12.4231,-0.1086,-0.6785,0.1099,52
