right_leg_timestamp,right_leg_index,right_leg_accel_x,right_leg_accel_y,right_leg_accel_z,right_leg_gyro_x,right_leg_gyro_y,right_leg_gyro_z,right_leg_battery_percentage,left_leg_timestamp,left_leg_index,left_leg_accel_x,left_leg_accel_y,left_leg_accel_z,left_leg_gyro_x,left_leg_gyro_y,left_leg_gyro_z,left_leg_battery_percentage
0.664,12,5.5058,2.2136,-14.996,-0.2023,-0.8157,-0.0903,75,0.086,1,8.4859,3.0387,-10.3588,0.3645,-0.0922,-0.1787,51
0.715,13,5.3248,2.2508,-15.6085,-0.2458,-0.4681,-0.1272,75,0.138,2,8.3191,3.1698,-10.5471,0.3036,0.0062,-0.0882,51
0.767,14,5.1356,2.136,-16.3237,-0.1667,-0.2112,-0.1515,75,0.19,3,8.1812,3.4086,-10.6199,0.077,0.0673,0.0271,51
0.819,15,5.0994,2.1904,-16.903,-0.1475,-0.072,-0.1534,75,0.241,4,8.3200,3.3179,-10.56,-0.0269,0.0801,0.0955,51
0.871,16,5.1585,2.2405,-17.3887,-0.1164,-0.0319,-0.1181,75,0.293,5,8.3714,3.0634,-10.3827,-0.0763,0.0574,0.13,51
0.923,17,5.2044,2.3921,-17.5331,-0.0539,-0.0441,-0.061,75,0.345,6,8.3883,3.0987,-10.3154,-0.0859,0.0398,0.0962,51
0.974,18,5.2206,2.5402,-17.531,-0.0309,-0.0523,-0.0035,75,0.397,7,8.4029,3.0686,-10.1673,-0.0944,0.016,0.0743,51
1.026,19,5.219,2.6323,-17.5551,-0.0247,-0.0313,0.0258,75,0.449,8,8.4452,3.0198,-10.1222,-0.0844,-0.0187,0.0617,51
1.078,20,5.1862,2.7288,-17.5931,-0.0125,-0.0206,0.0345,75,0.501,9,8.4743,2.9236,-10.1333,-0.0843,-0.0342,0.0702,51
1.13,21,5.1567,2.7777,-17.5952,-0.0645,-0.031,0.0546,75,0.552,10,8.5132,2.8719,-10.1393,-0.0815,-0.0482,0.0617,51
1.182,22,5.1953,2.7178,-17.6241,-0.0892,-0.0323,0.0616,75,0.604,11,8.5271,2.8602,-10.1517,-0.0774,-0.0491,0.0533,51
1.233,23,5.1844,2.7758,-17.6482,-0.0839,-0.0165,0.05,75,0.656,12,8.5356,2.7926,-10.1539,-0.0562,-0.0443,0.0392,51
1.285,24,5.2154,2.7611,-17.6908,-0.0808,-0.0115,0.0333,75,0.708,13,8.5713,2.7155,-10.1779,-0.0195,-0.0663,0.022,51
1.337,25,5.2199,2.6672,-17.7049,-0.0518,0.005,0.0099,75,0.76,14,8.5757,2.7036,-10.2461,0.0172,-0.0574,-0.0448,51
1.389,26,5.2419,2.6065,-17.6698,-0.0494,0.0183,0.0058,75,0.811,15,8.5555,2.8274,-10.285,0.0343,-0.045,-0.0761,51
1.441,27,5.2924,2.564,-17.6329,-0.0594,0.0294,0.0337,75,0.863,16,8.5812,2.7565,-10.1718,0.0578,-0.0305,-0.0639,51
1.492,28,5.2895,2.5807,-17.6649,-0.0788,0.0144,0.0779,75,0.915,17,8.5173,2.8284,-10.3957,0.0828,-0.0216,-0.0326,51
1.544,29,5.3299,2.6642,-17.6731,-0.0826,-0.0285,0.1078,75,0.967,18,8.5164,2.841,-10.3085,0.0464,0.0128,-0.0211,51
1.596,30,5.4502,2.8047,-17.632,-0.072,-0.0506,0.0992,75,1.018,19,8.4400,3.0354,-10.1707,0.0173,0.05,-0.0177,51
1.648,31,5.4803,2.9091,-17.5124,-0.0607,-0.0397,0.057,75,1.07,20,8.4401,3.0419,-10.1988,0.0017,0.0209,-0.0088,51
1.7,32,5.4799,2.9058,-17.5349,-0.0588,-0.0198,0.025,75,1.122,21,8.4646,2.9378,-10.1708,0.0307,-0.0146,-0.0351,51
1.751,33,5.47,2.849,-17.5929,-0.0545,-0.0055,-0.0077,75,1.174,22,8.4174,3.0644,-10.2191,0.1232,-0.0593,-0.1008,51
1.803,34,5.433,2.6946,-17.6017,-0.028,-0.0006,-0.0256,75,1.226,23,8.4458,3.0675,-10.303,0.1173,-0.0549,-0.0587,51
1.855,35,5.3886,2.5968,-17.5597,-0.0121,0.007,-0.0158,75,1.277,24,8.4815,3.0093,-10.3171,0.1255,-0.0514,-0.0548,51
1.907,36,5.4449,2.5573,-17.5559,-0.0218,0.0071,0.0263,75,1.329,25,8.4394,3.0578,-10.4204,0.1351,-0.0237,-0.0536,51
1.959,37,5.4949,2.5449,-17.5643,-0.029,0.013,0.0649,75,1.381,26,8.4332,3.0329,-10.4795,0.1112,-0.0095,-0.0299,51
2.01,38,5.4964,2.5876,-17.594,-0.022,0.0196,0.0855,75,1.433,27,8.3712,3.1178,-10.6166,0.0389,0.0056,0.0129,51
2.062,39,5.4963,2.671,-17.617,-0.0093,0.0204,0.0896,75,1.484,28,8.4045,3.0919,-10.4255,-0.0294,0.0352,0.0457,51
2.114,40,5.4718,2.7329,-17.6239,0.0134,0.0154,0.0684,75,1.536,29,8.4539,3.0001,-10.4345,-0.0674,0.0018,0.0732,51
2.166,41,5.4611,2.809,-17.584,0.0265,0.0169,0.0289,75,1.588,30,8.4524,2.9339,-10.4644,-0.0761,-0.0111,0.0622,51
2.218,42,5.4382,2.8321,-17.539,0.0262,0.0195,-0.0121,75,1.64,31,8.4657,2.9192,-10.4608,-0.0599,-0.0227,0.0361,51
2.269,43,5.4304,2.7668,-17.5786,0.0413,0.0252,-0.0492,75,1.692,32,8.4684,2.9027,-10.458,-0.0374,-0.0147,0.0051,51
2.321,44,5.4224,2.7439,-17.5507,0.0642,0.0333,-0.0839,75,1.743,33,8.4895,2.8953,-10.5357,-0.0155,-0.0146,0.0014,51
2.373,45,5.4274,2.7314,-17.5278,0.0643,0.0432,-0.0923,75,1.795,34,8.4908,2.8767,-10.5077,0.0144,-0.0119,-0.0074,51
2.425,46,5.4586,2.7208,-17.5706,0.0687,0.0449,-0.0868,75,1.847,35,8.4681,2.9151,-10.5672,0.0726,-0.0324,-0.0264,51
2.477,47,5.4716,2.774,-17.5605,0.0725,0.0349,-0.0781,75,1.899,36,8.4558,3.0012,-10.6123,0.0636,-0.0117,-0.0204,51
2.528,48,5.4704,2.8045,-17.5363,0.0686,0.0266,-0.0679,75,1.951,37,8.4472,3.0241,-10.5626,0.065,-0.0216,-0.013,51
2.58,49,5.487,2.8175,-17.5598,0.0626,0.0207,-0.0601,75,2.002,38,8.4452,3.0,-10.5983,0.0758,-0.0136,-0.0237,51
2.632,50,5.4501,2.766,-17.5691,0.0568,0.0111,-0.0556,75,2.054,39,8.4365,2.9993,-10.6028,0.0806,-0.0274,-0.0327,51
2.684,51,5.4112,2.6955,-17.4902,0.0592,-0.0016,-0.048,75,2.106,40,8.4418,3.0156,-10.6719,0.0859,-0.0315,-0.0341,51
2.736,52,5.4136,2.6559,-17.3932,0.0475,-0.0018,-0.0183,75,2.158,41,8.4316,3.0335,-10.6659,0.0939,-0.0149,-0.0406,51
2.787,53,5.5711,2.6937,-17.3618,0.0038,0.0116,0.0416,75,2.209,42,8.4230,3.0375,-10.7186,0.0957,0.0088,-0.0418,51
2.839,54,5.7497,2.734,-17.4485,-0.0579,0.0314,0.1225,75,2.261,43,8.3522,3.133,-10.7354,0.0737,0.041,-0.0332,51
2.891,55,5.7464,2.7039,-17.5371,-0.0779,0.0436,0.1469,75,2.313,44,8.3512,3.1574,-10.7582,0.0172,0.0505,-0.0034,51
2.942,56,5.5892,2.6576,-17.5105,-0.0763,0.0411,0.1355,75,2.365,45,8.4325,3.0156,-10.6827,-0.0462,0.0494,0.0479,51
2.994,57,5.4812,2.5026,-17.4608,-0.0541,0.0353,0.106,75,2.417,46,8.4930,2.8822,-10.6752,-0.0711,0.0099,0.0514,51
3.046,58,5.4509,2.4308,-17.4506,-0.0296,0.0303,0.0781,75,2.468,47,8.4821,2.9416,-10.6932,-0.0624,0.0107,0.0459,51
3.098,59,5.6299,2.3985,-17.4882,-0.0141,0.0098,0.0876,75,2.52,48,8.4779,2.9184,-10.7043,-0.0612,0.0072,0.0582,51
3.15,60,5.7493,2.3923,-17.5159,0.0008,-0.0038,0.1194,75,2.572,49,8.4720,2.9751,-10.6904,-0.0577,0.0291,0.0691,51
3.202,61,5.7728,2.478,-17.5144,0.008,-0.0078,0.1366,75,2.624,50,8.4963,2.8728,-10.6293,-0.0912,0.035,0.1021,51
3.254,62,5.7479,2.5488,-17.4739,0.0177,-0.0079,0.1285,75,2.675,51,8.4783,2.8671,-10.4891,-0.0973,0.0312,0.1193,51
3.305,63,5.6569,2.5337,-17.4317,0.0177,0.0055,0.0946,75,2.727,52,8.4912,2.8124,-10.4701,-0.0947,0.0069,0.1208,51
3.357,64,5.6501,2.5188,-17.4479,0.0234,0.0141,0.0642,75,2.779,53,8.5058,2.7577,-10.4748,-0.0811,-0.0143,0.1208,51
3.409,65,5.6984,2.4556,-17.5045,0.0201,0.0117,0.0483,75,2.831,54,8.5552,2.6681,-10.4531,-0.0648,-0.0203,0.089,51
3.461,66,5.7103,2.4005,-17.5383,0.0217,0.0007,0.0335,75,2.882,55,8.5620,2.6425,-10.4844,-0.0554,-0.0278,0.0798,51
3.513,67,5.6894,2.4093,-17.5105,0.034,-0.0131,0.0186,75,2.934,56,8.5717,2.6165,-10.484,-0.0525,-0.0279,0.0818,51
3.564,68,5.6449,2.3886,-17.4896,0.0345,-0.0279,0.0104,75,2.986,57,8.5812,2.5558,-10.5021,-0.0466,-0.0298,0.0688,51
3.616,69,5.6335,2.3467,-17.4644,0.0474,-0.0263,0.0039,75,3.038,58,8.6127,2.5319,-10.4982,-0.0484,-0.0302,0.0489,51
3.668,70,5.5771,2.3107,-17.4863,0.0428,-0.0304,0.009,75,3.089,59,8.6116,2.4899,-10.4979,-0.0465,-0.0315,0.0304,51
3.72,71,5.6411,2.2759,-17.5471,0.0442,-0.0463,0.0312,75,3.141,60,8.6188,2.4665,-10.4918,-0.0308,-0.0253,0.0098,51
3.772,72,5.7197,2.3299,-17.5782,0.0469,-0.0504,0.0414,75,3.193,61,8.6280,2.4706,-10.4894,-0.0286,-0.0168,0.0047,51
3.823,73,5.7108,2.3885,-17.5484,0.0355,-0.0522,0.0375,75,3.245,62,8.6315,2.5045,-10.5159,-0.0167,-0.0125,0.0219,51
3.875,74,5.6621,2.3543,-17.5152,0.0214,-0.0551,0.016,75,3.297,63,8.6264,2.4557,-10.5032,-0.0023,-0.0184,0.0034,51
3.927,75,5.6802,2.3202,-17.4984,0.0161,-0.0457,-0.0004,75,3.348,64,8.6274,2.508,-10.5394,-0.0045,-0.012,-0.0203,51
3.979,76,5.6618,2.281,-17.5464,0.0106,-0.027,-0.008,75,3.4,65,8.6193,2.507,-10.512,-0.0176,-0.0018,-0.0304,51
4.031,77,5.6567,2.229,-17.5845,0.0207,-0.0092,-0.0301,75,3.452,66,8.5708,2.7121,-10.5819,0.0322,0.0124,-0.1144,51
4.082,78,5.6173,2.1888,-17.5842,0.0328,0.0058,-0.0401,75,3.504,67,8.5577,2.703,-10.5697,0.0268,0.0125,-0.0826,51
4.134,79,5.563,2.1617,-17.6064,0.0354,0.0093,-0.0333,75,3.556,68,8.5547,2.5933,-10.5619,0.0563,-0.0192,-0.0788,51
4.186,80,5.5434,2.1875,-17.6291,0.0277,0.0005,-0.0136,75,3.608,69,8.5466,2.6564,-10.6765,0.0667,-0.013,-0.0535,51
4.237,81,5.5836,2.177,-17.6684,0.0122,-0.0121,0.0052,75,3.659,70,8.5574,2.6273,-10.634,0.066,-0.0024,-0.0251,51
4.289,82,5.637,2.2261,-17.6765,0.0085,-0.0318,0.0177,75,3.711,71,8.5583,2.6129,-10.6963,0.0336,0.0156,-0.0216,51
4.341,83,5.678,2.315,-17.636,-0.0076,-0.0425,0.023,75,3.763,72,8.5583,2.6626,-10.5971,-0.0066,0.05,-0.0257,51
4.393,84,5.681,2.3671,-17.5957,-0.035,-0.0478,0.0085,75,3.815,73,8.5846,2.6183,-10.57,-0.0081,0.0207,-0.0175,51
4.445,85,5.6984,2.3746,-17.5633,-0.0481,-0.0495,-0.0204,75,3.866,74,8.5738,2.6409,-10.5826,0.0081,0.0377,-0.0132,51
4.496,86,5.7043,2.3673,-17.5391,-0.0896,-0.0404,-0.0335,75,3.918,75,8.5842,2.6168,-10.502,-0.0195,0.037,-0.0123,51
4.549,87,5.6523,2.2564,-17.5212,-0.0715,-0.0235,-0.0376,75,3.97,76,8.5866,2.6369,-10.4796,0.0018,0.0086,-0.0287,51
4.6,88,5.5445,2.2481,-17.4337,-0.0357,0.0025,-0.0398,75,4.022,77,8.6151,2.5956,-10.4827,0.0469,0.0037,-0.0808,51
4.652,89,5.5018,2.2097,-17.4278,-0.0147,0.0329,-0.0239,75,4.073,78,8.5625,2.7235,-10.5257,0.0393,-0.0092,-0.0643,51
4.704,90,5.5409,2.1812,-17.5178,-0.0066,0.0581,-0.0094,75,4.125,79,8.5659,2.7332,-10.5463,0.0459,-0.0418,-0.0572,51
4.756,91,5.5979,2.2384,-17.6216,0.0286,0.062,-0.0049,75,4.177,80,8.4977,2.8093,-10.6258,0.0505,-0.0063,-0.041,51
4.808,92,5.6235,2.3159,-17.6425,0.0399,0.0509,-0.0137,75,4.229,81,8.5330,2.8134,-10.6084,0.0262,0.0131,-0.0244,51
4.859,93,5.6588,2.3977,-17.61,0.0419,0.0405,-0.0247,75,4.281,82,8.5468,2.7815,-10.593,-0.0136,0.0414,-0.0204,51
4.911,94,5.6145,2.4735,-17.5474,0.0454,0.0381,-0.0515,75,4.332,83,8.5389,2.8233,-10.529,-0.0164,0.0271,-0.017,51
4.963,95,5.5897,2.4505,-17.4979,0.0467,0.0392,-0.0724,75,4.384,84,8.5072,2.8678,-10.5085,-0.0064,0.0178,0.0086,51
5.014,96,5.5392,2.4023,-17.4927,0.0457,0.0473,-0.0845,75,4.436,85,8.5291,2.8107,-10.4414,0.0027,0.0057,-0.0077,51
5.066,97,5.5674,2.4005,-17.5387,0.0369,0.0484,-0.0761,75,4.488,86,8.5179,2.8087,-10.4819,0.0548,-0.0397,-0.0206,51
5.118,98,5.6242,2.3776,-17.6188,0.0323,0.0402,-0.0681,75,4.539,87,8.4950,2.8561,-10.5266,0.0754,-0.0316,-0.0215,51
5.17,99,5.6147,2.3215,-17.5745,0.0365,0.0191,-0.0556,75,4.591,88,8.4869,2.8689,-10.5962,0.0649,-0.0153,-0.0114,51
5.222,100,5.5579,2.2169,-17.4815,0.0293,-0.0016,-0.0332,75,4.643,89,8.4873,2.8694,-10.5391,0.0379,0.0009,-0.0008,51
5.273,101,5.5644,2.1963,-17.4714,0.0371,-0.0112,0.0042,75,4.695,90,8.5117,2.8592,-10.5669,0.0347,-0.0084,-0.007,51
5.325,102,5.6603,2.2596,-17.5157,0.0505,-0.0038,0.0135,75,4.747,91,8.4902,2.8631,-10.6318,0.0216,0.0137,-0.0044,51
5.377,103,5.7356,2.3504,-17.5499,0.0803,0.0024,-0.0108,75,4.798,92,8.4797,2.8636,-10.5856,-0.0243,0.0342,0.0157,51
5.429,104,5.7189,2.4432,-17.5304,0.0708,0.0027,-0.0264,75,4.85,93,8.5256,2.8288,-10.4825,-0.0957,0.0499,-0.0081,51
5.481,105,5.6822,2.4617,-17.5468,0.0427,-0.0019,-0.0293,75,4.902,94,8.4887,2.8787,-10.4926,-0.0711,0.0004,-0.0379,51
5.532,106,5.6765,2.4323,-17.5243,0.036,-0.0065,-0.0389,75,4.954,95,8.4909,2.9476,-10.5422,-0.0502,-0.0207,-0.0367,51
5.584,107,5.6765,2.347,-17.4984,0.0287,-0.0025,-0.0418,75,5.006,96,8.4850,2.9478,-10.504,-0.047,-0.0214,-0.0252,51
5.636,108,5.6673,2.2872,-17.5081,0.0319,0.0098,-0.038,75,5.057,97,8.4998,2.9134,-10.5158,0.0253,-0.0382,-0.0312,51
5.688,109,5.651,2.3134,-17.5116,0.0361,0.0225,-0.0301,75,5.109,98,8.4770,2.9597,-10.5408,0.0774,-0.0504,-0.0371,51
5.74,110,5.6406,2.2898,-17.5594,0.0336,0.0273,-0.0186,75,5.161,99,8.4600,2.9792,-10.5989,0.0674,-0.0601,-0.0226,51
5.791,111,5.6158,2.2574,-17.5822,0.0357,0.0255,-0.0069,75,5.213,100,8.4779,2.9397,-10.6385,0.0467,-0.0436,-0.0212,51
5.843,112,5.6079,2.2226,-17.5715,0.0292,0.0183,0.0114,75,5.264,101,8.4741,2.9598,-10.6648,0.0327,-0.0264,-0.0156,51
5.895,113,5.6321,2.23,-17.5143,0.0084,0.0056,0.0456,75,5.316,102,8.4639,2.9653,-10.673,0.0195,-0.0077,-0.0127,51
5.947,114,5.7464,2.2772,-17.4969,-0.0408,0.0064,0.0867,75,5.368,103,8.4786,2.9819,-10.6633,0.0112,0.0047,-0.0094,51
5.999,115,5.8116,2.3031,-17.4999,-0.0593,0.0174,0.0987,75,5.42,104,8.4563,2.9655,-10.7122,-0.0174,0.0499,0.0099,51
6.05,116,5.783,2.3048,-17.4888,-0.0738,0.0224,0.0809,75,5.471,105,8.4625,2.9336,-10.6347,-0.0702,0.0884,0.016,51
6.103,117,5.795,2.3225,-17.484,-0.0711,0.0226,0.0571,75,5.523,106,8.4640,2.9119,-10.546,-0.0641,0.0356,0.0366,51
6.154,118,5.789,2.3117,-17.4664,-0.0413,0.0221,0.01,75,5.575,107,8.4719,2.8939,-10.5437,-0.0447,-0.0203,0.0395,51
6.206,119,5.7589,2.2672,-17.4315,-0.0185,0.0194,-0.0257,75,5.627,108,8.5116,2.8532,-10.4965,-0.0307,-0.0787,0.0322,51
6.258,120,5.6854,2.2277,-17.4213,0.008,0.0196,-0.0414,75,5.679,109,8.5305,2.8205,-10.5964,0.0514,-0.1047,-0.0178,51
6.309,121,5.6824,2.2156,-17.4675,0.0242,0.0168,-0.048,75,5.73,110,8.5259,2.8599,-10.6771,0.0769,-0.0848,-0.0516,51
6.361,122,5.712,2.2165,-17.465,0.0366,0.0041,-0.0527,75,5.782,111,8.4871,2.8985,-10.7297,0.0785,-0.056,-0.0403,51
6.413,123,5.7129,2.2256,-17.4774,0.0423,-0.0031,-0.0358,75,5.834,112,8.4720,2.9023,-10.7743,0.0543,-0.0249,-0.0327,51
6.465,124,5.7239,2.2692,-17.5275,0.0346,-0.0086,-0.0143,75,5.886,113,8.5006,2.8861,-10.7455,0.0239,-0.0071,-0.0304,51
6.517,125,5.7079,2.2947,-17.5413,0.0275,-0.0187,0.0013,75,5.937,114,8.4441,2.9653,-10.758,0.0305,0.0152,-0.0184,51
6.568,126,5.6705,2.3014,-17.5189,0.0082,-0.0282,0.0163,75,5.989,115,8.4763,2.8957,-10.7391,0.0174,0.0108,-0.007,51
6.62,127,5.6712,2.2855,-17.4946,-0.0247,-0.0319,0.0438,75,6.041,116,8.4582,2.9146,-10.7557,0.0144,0.01,-0.0163,51
6.672,128,5.7276,2.3276,-17.5423,-0.0435,-0.0312,0.0641,75,6.093,117,8.4566,2.9284,-10.7571,0.0068,0.0089,-0.0162,51
6.724,129,5.724,2.3317,-17.5961,-0.0565,-0.0439,0.0693,75,6.145,118,8.4424,2.9495,-10.7878,-0.0041,0.0063,0.0001,51
6.776,130,5.716,2.3056,-17.5972,-0.0312,-0.0584,0.052,75,6.196,119,8.4828,2.8729,-10.6713,-0.0562,0.0458,0.0304,51
6.827,131,5.6682,2.3283,-17.4919,0.0041,-0.0586,0.0096,75,6.248,120,8.4830,2.8744,-10.6705,-0.0195,0.0169,0.0093,51
6.879,132,5.6185,2.334,-17.4108,0.0046,-0.0508,-0.0177,75,6.3,121,8.5103,2.8785,-10.5852,0.0265,-0.0324,-0.0202,51
6.931,133,5.6337,2.2749,-17.4488,0.0035,-0.0394,-0.0164,75,6.352,122,8.5533,2.8663,-10.6576,0.0742,-0.0577,-0.0619,51
6.983,134,5.666,2.2112,-17.5322,-0.0046,-0.0318,-0.0085,75,6.404,123,8.4252,3.012,-10.8278,0.0862,-0.025,-0.0744,51
7.035,135,5.7028,2.1716,-17.6056,0.025,-0.0359,-0.003,75,6.455,124,8.3571,3.0948,-10.9578,0.0498,0.0345,-0.0465,51
7.086,136,5.6516,2.1896,-17.5872,0.0284,-0.0437,0.0035,75,6.507,125,8.3614,3.053,-10.8434,0.0405,0.0191,-0.0424,51
7.138,137,5.5581,2.2141,-17.5368,0.0269,-0.0475,0.0205,75,6.559,126,8.3567,3.0501,-10.8669,0.0173,0.0246,-0.0331,51
7.19,138,5.5205,2.2352,-17.5328,0.0166,-0.0393,0.0312,75,6.611,127,8.3761,3.0523,-10.824,0.005,0.027,-0.0324,51
7.242,139,5.5584,2.2823,-17.6015,0.0205,-0.0312,0.0228,75,6.663,128,8.4085,3.0727,-10.9103,-0.0082,0.0224,-0.0081,51
7.293,140,5.6018,2.3413,-17.6556,0.0184,-0.0348,0.0107,75,6.714,129,8.5599,2.8468,-10.8357,-0.0575,0.0506,0.0123,51
7.345,141,5.5641,2.3454,-17.6571,0.0001,-0.0489,0.0056,75,6.766,130,8.5598,2.8815,-10.7999,-0.0397,0.0144,0.0008,51
7.397,142,5.5381,2.3208,-17.6637,-0.0028,-0.0628,0.0069,75,6.818,131,8.5111,2.9301,-10.7973,-0.0166,-0.0056,-0.0136,51
7.449,143,5.4999,2.2867,-17.6751,-0.0049,-0.0669,-0.0057,75,6.87,132,8.4749,3.0019,-10.8137,0.0089,-0.0301,-0.0189,51
7.501,144,5.472,2.2385,-17.6883,0.0305,-0.0698,-0.0306,75,6.921,133,8.4394,3.0506,-10.846,0.0148,-0.0284,-0.0088,51
7.553,145,5.3811,2.1936,-17.6158,0.0255,-0.0661,-0.0424,75,6.973,134,8.4744,3.0007,-10.8528,0.029,-0.0238,-0.0157,51
7.604,146,5.2827,2.1386,-17.5561,0.0028,-0.0423,-0.0021,75,7.025,135,8.4304,3.0535,-10.8745,0.0574,0.0044,-0.0295,51
7.656,147,5.3791,2.107,-17.7231,-0.0426,-0.0263,0.0819,75,7.077,136,8.3395,3.1412,-10.9229,0.0651,0.04,-0.026,51
7.708,148,5.4345,2.1262,-17.893,-0.0424,-0.0351,0.1243,75,7.129,137,8.2197,3.2847,-11.0198,0.0404,0.0445,0.0064,51
7.76,149,5.3978,2.1799,-17.8252,-0.0397,-0.0486,0.1245,75,7.18,138,8.3957,3.0734,-10.4248,-0.0586,0.0925,0.0844,51
7.812,150,5.3663,2.2572,-17.7057,-0.0385,-0.0478,0.1206,75,7.232,139,8.4615,3.0367,-10.61,-0.0689,0.0105,0.088,51
7.863,151,5.3704,2.2357,-17.704,-0.0358,-0.0304,0.097,75,7.284,140,8.4542,2.9933,-10.6523,-0.0598,0.0166,0.061,51
7.915,152,5.3615,2.1344,-17.7619,-0.0253,-0.016,0.0613,75,7.336,141,8.4537,2.9614,-10.6915,-0.0434,0.0136,0.0483,51
7.967,153,5.3902,2.07,-17.7932,-0.009,-0.0126,0.041,75,7.387,142,8.4681,2.9474,-10.6065,-0.0439,0.032,0.0527,51
8.019,154,5.3625,2.0614,-17.7909,-0.014,-0.0175,0.0401,75,7.439,143,8.4563,2.9475,-10.645,-0.034,0.0236,0.0353,51
8.071,155,5.4031,2.1148,-17.8176,-0.0153,-0.0231,0.0387,75,7.491,144,8.4606,2.9684,-10.6613,-0.0385,0.0425,0.0195,51
8.122,156,5.415,2.1297,-17.7963,-0.0054,-0.0199,0.0075,75,7.543,145,8.4684,2.9909,-10.6101,-0.0599,0.066,0.0206,51
8.174,157,5.3795,2.1585,-17.7719,-0.0034,-0.0125,-0.0205,75,7.595,146,8.4781,2.9568,-10.587,-0.11,0.0889,0.0651,51
8.226,158,5.398,2.2091,-17.7664,0.002,-0.0078,-0.0429,75,7.646,147,8.4966,2.9744,-10.4571,-0.1245,0.0595,0.0701,51
8.278,159,5.407,2.2413,-17.7633,0.0062,-0.0049,-0.0534,75,7.698,148,8.5121,2.953,-10.4314,-0.1177,0.0443,0.0716,51
8.329,160,5.4035,2.2474,-17.7958,0.0109,-0.0054,-0.06,75,7.75,149,8.5338,2.8722,-10.301,-0.1096,0.0519,0.0333,51
8.381,161,5.3734,2.2483,-17.7913,0.0261,-0.0048,-0.0705,75,7.802,150,8.5059,2.859,-10.3222,-0.0232,0.0179,-0.0371,51
8.433,162,5.3287,2.3112,-17.6948,0.0354,0.0106,-0.0962,75,7.854,151,8.5024,2.9269,-10.3856,0.0409,-0.0543,-0.0441,51
8.485,163,5.2821,2.3357,-17.6427,0.0362,0.0382,-0.1185,75,7.905,152,8.5237,2.9243,-10.4465,0.0758,-0.0703,-0.0464,51
8.537,164,5.3074,2.3247,-17.7568,0.0417,0.0611,-0.1363,75,7.957,153,8.5004,2.9208,-10.5167,0.0796,-0.0326,-0.0723,51
8.588,165,5.325,2.2732,-17.8605,0.05,0.0542,-0.1375,75,8.009,154,8.4451,3.0307,-10.516,0.0914,-0.0114,-0.0783,51
8.64,166,5.3004,2.2799,-17.8089,0.0529,0.0258,-0.1184,75,8.061,155,8.4177,3.106,-10.4972,0.0888,0.0139,-0.07,51
8.692,167,5.2632,2.2901,-17.6934,0.0325,0.0058,-0.0761,75,8.113,156,8.4308,3.0322,-10.5124,0.0916,0.0309,-0.0756,51
8.744,168,5.2908,2.2623,-17.7066,0.0256,0.0054,-0.0327,75,8.164,157,8.4311,3.061,-10.5233,0.0748,0.043,-0.0737,51
8.796,169,5.3258,2.2666,-17.7089,0.0269,-0.0056,-0.006,75,8.216,158,8.3899,3.1656,-10.5253,0.0595,0.0323,-0.0646,51
8.847,170,5.3012,2.2549,-17.6305,-0.0011,-0.0177,0.0255,75,8.268,159,8.3711,3.1675,-10.5042,0.0378,0.0289,-0.0399,51
8.899,171,5.3785,2.2655,-17.6186,-0.0553,-0.0302,0.085,75,8.32,160,8.3793,3.1503,-10.5432,0.0286,0.0212,-0.0356,51
8.951,172,5.565,2.255,-17.7576,-0.0726,-0.0311,0.1235,75,8.372,161,8.3467,3.2176,-10.575,0.0131,0.038,-0.0252,51
9.003,173,5.5278,2.2899,-17.7435,-0.0717,-0.0263,0.108,75,8.423,162,8.2717,3.3385,-10.6198,-0.0502,0.0901,0.0203,51
9.055,174,5.4547,2.2706,-17.7099,-0.0539,-0.0167,0.0818,75,8.475,163,8.3346,3.306,-10.3509,-0.076,0.0772,0.0781,51
9.107,175,5.3704,2.2124,-17.7077,-0.0285,-0.0009,0.0526,75,8.527,164,8.3845,3.1961,-10.312,-0.1093,-0.0005,0.1136,51
9.158,176,5.3691,2.1951,-17.7352,-0.0144,0.0133,0.0419,75,8.579,165,8.4515,3.0618,-10.3617,-0.0973,-0.0229,0.097,51
9.21,177,5.3492,2.2263,-17.7711,-0.0076,0.0201,0.0419,75,8.631,166,8.4762,2.9767,-10.3358,-0.0552,-0.0438,0.0703,51
9.262,178,5.3211,2.2568,-17.7987,-0.0004,0.0131,0.0368,75,8.682,167,8.4659,2.985,-10.3765,-0.0249,-0.0465,0.0621,51
9.314,179,5.3265,2.2871,-17.8296,-0.0003,-0.0017,0.0357,75,8.734,168,8.5090,2.8427,-10.4515,-0.0531,0.0007,0.0731,51
9.365,180,5.3433,2.3332,-17.8272,0.0067,-0.0151,0.0186,75,8.786,169,8.5381,2.8229,-10.4764,-0.0595,-0.0121,0.0577,51
9.417,181,5.343,2.341,-17.7785,0.0173,-0.0221,-0.0106,75,8.838,170,8.5231,2.8078,-10.44,-0.0427,-0.0015,0.058,51
9.469,182,5.3134,2.3213,-17.7421,0.0066,-0.0225,-0.0208,75,8.89,171,8.5349,2.7666,-10.4136,-0.0148,-0.0181,0.0366,51
9.521,183,5.3087,2.3085,-17.7567,-0.0068,-0.0218,-0.0132,75,8.941,172,8.5561,2.8317,-10.4598,0.0152,-0.031,0.006,51
9.573,184,5.3337,2.268,-17.8238,-0.0105,-0.0209,-0.0125,75,8.993,173,8.5483,2.8062,-10.4597,0.0133,-0.0215,0.0136,51
9.624,185,5.3337,2.242,-17.8324,0.0043,-0.0291,-0.0145,75,9.045,174,8.5528,2.7982,-10.4482,-0.0097,-0.0041,0.0263,51
9.676,186,5.3198,2.2414,-17.7963,0.006,-0.0365,-0.0088,75,9.097,175,8.5560,2.7865,-10.4408,-0.0211,-0.0008,0.0197,51
15.944,307,5.5824,2.2726,-17.5417,0.0124,0.0128,-0.0194,75,15.622,301,8.5704,2.6311,-10.6579,-0.0584,-0.0058,0.007,51
15.996,308,5.5791,2.3174,-17.5448,0.0247,0.0079,-0.0044,75,15.673,302,8.5734,2.6235,-10.6622,-0.0381,-0.0144,0.0078,51
16.047,309,5.6275,2.3831,-17.5441,0.0297,-0.0036,0.0107,75,15.725,303,8.5792,2.6154,-10.6601,-0.0379,-0.0143,0.0152,51
16.099,310,5.6437,2.4024,-17.53,0.024,-0.0137,0.0223,75,15.777,304,8.5715,2.621,-10.6596,-0.0213,-0.0169,0.0178,51
16.151,311,5.6834,2.4388,-17.5203,0.0119,-0.0149,0.0316,75,15.829,305,8.5644,2.6007,-10.6788,-0.0029,-0.0164,-0.001,51
16.203,312,5.6775,2.4413,-17.5047,0.0017,-0.0125,0.0341,75,15.881,306,8.5597,2.6201,-10.7021,-0.0058,-0.0079,-0.0046,51
16.255,313,5.6577,2.4255,-17.5292,0.0033,-0.0105,0.0229,75,15.932,307,8.5517,2.6459,-10.7088,-0.0168,-0.0023,0.0054,51
16.307,314,5.6641,2.3869,-17.5412,0.0039,-0.0124,0.0134,75,15.984,308,8.5488,2.6206,-10.7005,-0.0222,-0.0032,0.0023,51
16.358,315,5.6544,2.3486,-17.529,-0.002,-0.0158,0.02,75,16.036,309,8.5454,2.6322,-10.6937,-0.0167,-0.0043,-0.0085,51
16.41,316,5.6374,2.3328,-17.5052,0.0003,-0.0123,0.032,75,16.087,310,8.5494,2.6409,-10.7167,-0.0154,-0.0089,-0.0083,51
16.462,317,5.6619,2.3543,-17.521,-0.0047,-0.0068,0.0398,75,16.139,311,8.5573,2.6308,-10.7058,-0.0182,-0.0074,-0.0098,51
16.514,318,5.6741,2.382,-17.536,-0.0039,-0.0101,0.039,75,16.191,312,8.5501,2.6444,-10.7029,-0.0169,-0.0068,-0.0102,51
16.566,319,5.708,2.3983,-17.5252,-0.0075,-0.0174,0.0299,75,16.243,313,8.5612,2.6295,-10.7204,-0.0152,-0.0091,-0.0082,51
16.617,320,5.6973,2.386,-17.5172,-0.0086,-0.0156,0.0214,75,16.295,314,8.5747,2.635,-10.7134,-0.0185,-0.0067,-0.0136,51
16.669,321,5.6845,2.3701,-17.5279,-0.0091,-0.015,0.0101,75,16.346,315,8.5606,2.6497,-10.7268,-0.0104,-0.0089,-0.015,51
16.721,322,5.6722,2.3728,-17.5266,-0.0065,-0.0133,-0.004,75,16.398,316,8.5543,2.6444,-10.7234,-0.0013,-0.0119,-0.0171,51
16.773,323,5.6554,2.3673,-17.5351,-0.0028,-0.0136,-0.0239,75,16.45,317,8.5546,2.6471,-10.7404,0.0134,-0.0324,0.0084,51
16.825,324,5.6364,2.3695,-17.4858,0.0016,-0.0133,-0.037,75,16.502,318,8.5634,2.622,-10.7634,0.0078,-0.0261,0.0204,51
16.876,325,5.6569,2.3289,-17.4893,0.0096,-0.0103,-0.0375,75,16.554,319,8.5678,2.6221,-10.7654,0.0054,-0.022,0.0223,51
16.928,326,5.6981,2.311,-17.5238,0.0131,-0.0064,-0.0278,75,16.606,320,8.5599,2.6011,-10.7795,0.0053,-0.02,0.0403,51
16.98,327,5.6954,2.3241,-17.5258,0.0209,-0.0026,-0.0172,75,16.658,321,8.7507,2.7609,-10.7089,-0.0164,0.0464,0.0229,51
17.032,328,5.6539,2.3354,-17.5202,0.0178,-0.0001,-0.0063,75,16.709,322,8.7105,2.6926,-10.733,-0.0061,0.0232,0.0197,51
17.083,329,5.6374,2.3337,-17.5379,0.0171,0.0077,-0.0015,75,16.761,323,8.6582,2.6867,-10.7997,-0.0012,0.0152,0.0192,51
17.135,330,5.6446,2.3509,-17.5631,0.0285,0.0126,-0.004,75,16.813,324,8.6332,2.6383,-10.818,-0.0092,0.0231,0.0382,51
17.187,331,5.6228,2.3647,-17.5844,0.0323,0.0083,-0.0081,75,16.865,325,8.6246,2.6021,-10.7805,-0.0178,0.0299,0.0292,51
17.239,332,5.5845,2.342,-17.5741,0.024,0.0028,-0.004,75,16.917,326,8.6309,2.5638,-10.734,-0.0167,0.0318,0.0289,51
17.291,333,5.573,2.3228,-17.5898,0.0193,0.0,0.0051,75,16.968,327,8.6260,2.5668,-10.7114,-0.0194,0.0348,0.0273,51
17.342,334,5.5803,2.3159,-17.5793,0.0061,-0.0062,0.0184,75,17.02,328,8.6179,2.5433,-10.7022,-0.0223,0.0272,0.0225,51
17.394,335,5.5782,2.3036,-17.5864,-0.0001,-0.013,0.0337,75,17.072,329,8.6047,2.5202,-10.6863,-0.0194,0.028,0.0205,51
17.446,336,5.6059,2.3079,-17.5785,-0.0102,-0.0183,0.0469,75,17.124,330,8.6075,2.4904,-10.6922,-0.0168,0.014,0.0143,51
17.498,337,5.6246,2.3231,-17.5562,-0.0171,-0.0202,0.0538,75,17.176,331,8.6044,2.4803,-10.6649,-0.0133,0.0052,-0.0013,51
17.55,338,5.5936,2.3137,-17.5386,-0.0211,-0.0168,0.0533,75,17.227,332,8.5949,2.4647,-10.718,0.055,-0.0022,-0.046,51
17.602,339,5.5636,2.293,-17.5248,-0.002,-0.0107,0.0406,75,17.279,333,8.5976,2.4449,-10.7524,0.1016,-0.0014,-0.0611,51
17.653,340,5.5471,2.268,-17.5219,0.0175,-0.0069,0.018,75,17.331,334,8.6253,2.4883,-10.7582,0.1397,-0.0061,-0.0603,51
17.705,341,5.5139,2.2685,-17.5401,0.0502,-0.0127,-0.0013,75,17.383,335,8.6098,2.5515,-10.7854,0.1473,0.0039,-0.0565,51
17.757,342,5.2853,2.137,-17.4096,0.0937,-0.018,0.0024,75,17.435,336,8.5831,2.5886,-10.7995,0.1368,0.011,-0.0403,51
17.809,343,4.8527,2.136,-16.6606,0.1614,0.058,0.0315,75,17.486,337,8.5512,2.625,-10.826,0.113,0.0243,-0.0131,51
17.861,344,4.4877,2.1149,-15.7797,0.3147,0.3137,0.0604,75,17.538,338,8.5669,2.5839,-10.7911,0.0243,0.0573,-0.0191,51
17.912,345,5.2146,2.5026,-15.5326,-0.1581,0.7767,0.0981,75,17.59,339,8.5702,2.6052,-10.7357,-0.0428,0.0987,-0.0256,51
17.964,346,5.9186,1.7994,-15.5524,-0.2776,1.1534,0.2151,75,17.642,340,8.5594,2.5636,-10.6475,-0.0613,0.0822,-0.012,51
