right_leg_timestamp,right_leg_index,right_leg_accel_x,right_leg_accel_y,right_leg_accel_z,right_leg_gyro_x,right_leg_gyro_y,right_leg_gyro_z,right_leg_battery_percentage,left_leg_timestamp,left_leg_index,left_leg_accel_x,left_leg_accel_y,left_leg_accel_z,left_leg_gyro_x,left_leg_gyro_y,left_leg_gyro_z,left_leg_battery_percentage
0.429,8,8.6005,-3.9812,-12.3328,-0.0241,0.0641,0.048,87,0.012,0,9.5554,-3.3472,-14.3739,-0.974,2.1008,-1.9117,52
0.48,9,8.5662,-4.1417,-12.2419,-0.0272,0.0574,-0.0077,87,0.064,1,12.0912,-5.3291,-18.4719,-1.3518,1.7117,-2.0666,52
0.532,10,8.5734,-3.8578,-12.2881,-0.0175,0.0361,-0.0364,87,0.116,2,9.2309,-6.3222,-17.2994,-0.649,1.1094,-1.6257,52
0.584,11,8.5526,-3.7837,-12.2955,-0.0067,0.036,-0.0353,87,0.168,3,8.5869,-5.1859,-15.7869,-0.8723,0.91,-1.1439,52
0.636,12,8.5989,-3.7691,-12.284,0.0746,0.0038,-0.0163,87,0.22,4,8.6375,-5.6986,-16.7696,-0.7906,0.8275,-0.9814,52
0.688,13,8.6538,-3.6306,-12.259,0.102,0.0045,0.0276,87,0.271,5,7.4988,-3.5835,-15.2241,-0.7017,0.6661,-0.7656,52
0.739,14,8.6535,-3.6087,-12.225,0.0319,0.0428,0.0857,87,0.323,6,7.3508,-2.5852,-14.6422,-0.4525,0.5307,-0.5895,52
0.791,15,8.6893,-3.5786,-12.1884,0.0575,0.0525,0.1361,87,0.375,7,7.7069,-1.7256,-14.072,-0.2867,0.4386,-0.4965,52
0.843,16,8.7196,-3.6548,-12.1177,0.0065,0.1149,0.1826,87,0.427,8,7.9455,-1.204,-13.7234,-0.31,0.3344,-0.338,52
0.895,17,8.6045,-3.8798,-11.9555,-0.1294,0.1608,0.1604,87,0.479,9,8.2024,-0.7919,-13.3474,-0.2527,0.2056,-0.1965,52
0.947,18,8.4845,-4.0915,-11.8842,-0.2405,0.1416,0.0928,87,0.53,10,8.4588,-0.6436,-13.2316,-0.138,0.1107,-0.0931,52
0.999,19,8.4966,-4.063,-11.9602,-0.3012,0.1011,0.0368,87,0.582,11,8.6376,-0.5412,-13.214,0.0178,0.0505,-0.0308,52
1.05,20,8.4688,-4.0041,-12.0274,-0.3019,0.0801,-0.013,87,0.634,12,8.5475,-0.5237,-13.414,0.2026,0.058,-0.0831,52
1.102,21,8.4687,-3.9014,-12.1363,-0.2806,0.0658,-0.0567,87,0.686,13,8.3316,-0.4712,-13.1666,0.2523,0.0965,-0.1492,52
1.154,22,8.3254,-3.9786,-12.2316,-0.2093,0.0526,-0.0848,87,0.737,14,8.1437,-0.4319,-12.9453,0.0373,0.1438,-0.0972,52
1.206,23,8.4151,-3.8615,-12.2097,-0.1514,0.0391,-0.1006,87,0.789,15,8.3087,-0.3595,-12.7224,-0.2792,0.1558,-0.0287,52
1.258,24,8.4804,-3.7367,-12.2395,-0.0866,0.0268,-0.1007,87,0.841,16,8.428,-0.0925,-12.7096,-0.3086,0.157,-0.0362,52
1.309,25,8.5748,-3.6365,-12.205,-0.0527,0.0261,-0.0834,87,0.893,17,8.4841,0.0448,-12.6501,-0.2397,0.1573,-0.0875,52
1.361,26,8.6296,-3.5867,-12.2159,-0.0192,0.0202,-0.0657,87,0.945,18,8.4994,0.1341,-12.5444,-0.11,0.1594,-0.1323,52
1.413,27,8.6298,-3.5999,-12.2074,0.0077,0.0193,-0.05,87,0.996,19,8.5233,0.1618,-12.3871,-0.1056,0.1296,-0.1283,52
1.465,28,8.6394,-3.6212,-12.1613,0.0075,0.0248,-0.0404,87,1.048,20,8.6124,0.3306,-12.2641,-0.0784,0.087,-0.1108,52
1.516,29,8.614,-3.5831,-12.1847,0.0249,0.0213,-0.0371,87,1.1,21,8.6133,0.3983,-12.1695,-0.0649,0.0338,-0.0695,52
1.568,30,8.6041,-3.6093,-12.1842,0.0822,0.0042,-0.0366,87,1.152,22,8.6153,0.418,-12.1595,-0.0677,-0.0223,-0.0246,52
1.62,31,8.6148,-3.5771,-12.1594,0.1427,-0.0068,-0.0152,87,1.204,23,8.656,0.3818,-12.2567,-0.0739,-0.0631,0.0052,52
1.672,32,8.7682,-3.4759,-12.0569,0.1259,0.0013,0.0023,87,1.256,24,8.6868,0.3539,-12.3208,-0.0605,-0.0727,0.0123,52
1.724,33,8.774,-3.4756,-12.0067,0.1051,-0.0089,-0.0013,87,1.307,25,8.677,0.3251,-12.3595,-0.0587,-0.0792,0.0165,52
1.776,34,8.6972,-3.5769,-12.0205,0.0607,-0.0128,-0.0123,87,1.359,26,8.6196,0.4001,-12.3799,-0.061,-0.08,0.0197,52
1.827,35,8.7059,-3.5543,-12.0433,0.0331,-0.0198,-0.0199,87,1.411,27,8.6177,0.3993,-12.4072,-0.0513,-0.0706,0.0135,52
1.879,36,8.6907,-3.5598,-12.0627,0.0201,-0.0248,-0.0166,87,1.463,28,8.6565,0.4029,-12.4196,-0.0523,-0.0638,0.0201,52
1.931,37,8.6759,-3.5766,-12.0943,0.0272,-0.0398,-0.0215,87,1.514,29,8.67,0.3715,-12.4782,-0.0453,-0.0658,0.0341,52
1.983,38,8.6801,-3.5455,-12.1126,0.0446,-0.0439,-0.0036,87,1.566,30,8.6617,0.3218,-12.5489,-0.0335,-0.059,0.0397,52
2.034,39,8.6919,-3.4994,-12.1187,0.0597,-0.0435,0.0185,87,1.618,31,8.6218,0.3064,-12.583,-0.0162,-0.0477,0.0382,52
2.086,40,8.6932,-3.5097,-12.1023,0.0483,-0.0305,0.0488,87,1.67,32,8.605,0.2953,-12.5907,-0.0079,-0.0392,0.0385,52
2.138,41,8.6774,-3.5664,-12.0859,-0.0026,-0.0144,0.0792,87,1.722,33,8.5992,0.2895,-12.5875,-0.0045,-0.0443,0.0523,52
2.19,42,8.6544,-3.6153,-12.1107,-0.024,-0.0071,0.0878,87,1.773,34,8.6074,0.2311,-12.6411,0.0052,-0.044,0.0627,52
2.242,43,8.6512,-3.7126,-12.1258,-0.0231,-0.0025,0.0873,87,1.825,35,8.6125,0.172,-12.6749,0.0078,-0.0377,0.0653,52
2.293,44,8.6365,-3.7707,-12.1039,-0.03,-0.0068,0.067,87,1.877,36,8.6126,0.1192,-12.6923,0.0098,-0.0319,0.0693,52
2.345,45,8.5997,-3.7704,-12.1148,-0.0217,-0.0153,0.0398,87,1.928,37,8.7067,0.1231,-12.6779,0.0195,-0.0443,0.0875,52
2.397,46,8.6503,-3.7474,-12.1521,0.0012,-0.0332,0.0169,87,1.98,38,8.666,0.008,-12.7234,0.0874,-0.0487,0.1207,52
2.449,47,8.602,-3.8063,-12.12,-0.0029,-0.0375,-0.0012,87,2.032,39,8.7204,0.208,-12.7679,0.2277,-0.1195,0.1121,52
2.501,48,8.6407,-3.7377,-12.183,0.0083,-0.0454,-0.0143,87,2.084,40,8.5087,0.0738,-13.0538,0.4218,-0.1801,0.0694,52
2.552,49,8.6239,-3.7063,-12.2459,0.0452,-0.0518,-0.018,87,2.136,41,8.3158,-0.2721,-13.61,0.5796,-0.2713,0.0299,52
2.604,50,8.6184,-3.6987,-12.2169,0.0623,-0.0454,-0.009,87,2.187,42,8.848,-0.1164,-11.8128,0.5885,-0.2935,0.019,52
2.656,51,8.5686,-3.7791,-12.2099,0.0793,-0.0425,-0.0022,87,2.239,43,8.6156,0.2366,-11.9909,0.4489,-0.1527,0.0143,52
2.708,52,8.6004,-3.7614,-12.2217,0.1029,-0.0494,-0.005,87,2.291,44,8.4894,-0.2676,-11.9442,0.1185,-0.0707,0.0336,52
2.76,53,8.4816,-3.8142,-12.2212,0.1155,-0.0514,-0.0123,87,2.343,45,8.4006,-0.1513,-12.5244,0.0897,-0.0354,-0.0207,52
2.811,54,8.5799,-3.8183,-12.1536,0.1242,-0.0905,-0.0364,87,2.394,46,8.4681,-0.1457,-12.7633,0.1352,0.0045,-0.0609,52
2.863,55,8.6074,-3.8196,-12.2529,0.1131,-0.0968,-0.0582,87,2.446,47,8.5411,-0.3086,-12.825,0.0597,0.0256,-0.0416,52
2.915,56,8.6474,-3.837,-12.2647,0.0854,-0.0837,-0.0754,87,2.498,48,8.7185,-0.3778,-12.8434,0.0491,0.0313,-0.023,52
2.967,57,8.6357,-3.7456,-12.3018,0.0757,-0.0526,-0.0746,87,2.55,49,8.8905,-0.3081,-12.6173,0.1234,-0.0047,0.066,52
3.019,58,8.6461,-3.663,-12.2729,0.0666,-0.0474,-0.0768,87,2.602,50,9.0823,-1.2706,-14.6206,0.0901,-0.2192,0.4572,52
3.07,59,8.6429,-3.6076,-12.304,0.0672,-0.0494,-0.0496,87,2.653,51,10.2624,-2.8006,-17.2456,0.2476,-0.8251,1.0141,52
3.122,60,8.6246,-3.6252,-12.3255,0.0613,-0.0436,-0.0085,87,2.705,52,10.2814,-3.3308,-17.8883,0.4303,-1.269,1.4205,52
3.174,61,8.5603,-3.727,-12.391,0.0652,-0.0243,0.0368,87,2.757,53,9.0631,-3.7701,-17.6344,0.2376,-1.593,1.7171,52
3.226,62,8.5479,-3.7939,-12.3271,0.0806,-0.0088,0.0555,87,2.809,54,7.7282,-3.7137,-16.5219,0.3616,-1.8294,1.9332,52
3.278,63,8.5849,-3.7323,-12.2889,0.0822,-0.002,0.056,87,2.861,55,6.2558,-3.648,-14.6803,0.5922,-2.002,2.0488,52
3.329,64,8.656,-3.5969,-12.258,0.0376,0.0202,0.0759,87,2.912,56,3.8271,-3.908,-14.6162,0.526,-1.9249,2.1627,52
3.381,65,8.4617,-4.0471,-12.3556,-0.1633,0.071,0.1052,87,2.964,57,2.3596,-4.5109,-15.1909,0.4653,-1.9223,1.8355,52
3.433,66,8.5545,-3.8957,-12.2884,-0.2194,0.0842,0.1049,87,3.016,58,1.3586,-4.7563,-14.4019,0.559,-1.7299,1.4932,52
3.485,67,8.547,-3.9339,-12.222,-0.2171,0.076,0.0956,87,3.068,59,0.1385,-4.909,-14.3117,0.302,-1.4185,1.2812,52
3.537,68,8.4337,-3.961,-12.2484,-0.1841,0.0741,0.0644,87,3.119,60,-0.8751,-5.2034,-14.582,0.3476,-1.0809,0.9202,52
3.588,69,8.3333,-3.9962,-12.3441,-0.0809,0.0391,0.0262,87,3.171,61,-1.6032,-5.3882,-14.766,0.3486,-0.7629,0.6706,52
3.64,70,8.3725,-3.994,-12.2664,0.0644,-0.0102,0.0081,87,3.223,62,-2.1734,-5.9336,-15.4176,0.331,-0.5083,0.4765,52
3.692,71,8.3663,-4.0436,-12.2784,0.0687,-0.015,-0.0057,87,3.275,63,-2.4857,-6.2472,-15.8801,0.3139,-0.3494,0.3874,52
3.744,72,8.4385,-3.9181,-12.2753,0.0826,-0.026,-0.0178,87,3.327,64,-2.6761,-6.5048,-16.25,0.3069,-0.2516,0.3479,52
3.795,73,8.5008,-3.8562,-12.2469,0.0493,-0.0162,-0.0144,87,3.378,65,-2.7809,-6.5906,-16.3685,0.2361,-0.1892,0.3006,52
3.847,74,8.5481,-3.7497,-12.1874,0.0017,-0.0068,0.0004,87,3.43,66,-2.9085,-6.5429,-16.25,0.1756,-0.1231,0.1923,52
3.899,75,8.5329,-3.808,-12.2729,-0.0108,-0.0145,-0.004,87,3.482,67,-3.1464,-6.4083,-16.2203,0.0906,-0.0483,0.065,52
3.951,76,8.5072,-3.8333,-12.3027,-0.0172,-0.0091,0.002,87,3.534,68,-3.4559,-6.4362,-16.3642,-0.0114,0.0297,-0.0827,52
4.003,77,8.477,-3.8766,-12.2884,-0.0217,-0.0077,0.0065,87,3.585,69,-3.5285,-6.7704,-16.4492,-0.0575,0.0608,-0.1695,52
4.055,78,8.5131,-3.8765,-12.2484,-0.0141,-0.0194,0.0075,87,3.637,70,-3.5441,-7.2041,-16.5273,-0.0982,0.0513,-0.1801,52
4.106,79,8.5473,-3.858,-12.2563,0.0059,-0.0511,0.0188,87,3.689,71,-3.5365,-7.4786,-16.4781,-0.0897,0.004,-0.163,52
4.158,80,8.5785,-3.8499,-12.3025,-0.0119,-0.046,0.0329,87,3.741,72,-3.5539,-7.581,-16.3779,0.0124,-0.0354,-0.1118,52
4.21,81,8.5508,-3.8394,-12.3211,-0.0185,-0.0342,0.0472,87,3.793,73,-3.5169,-7.6123,-16.2101,0.0924,-0.054,-0.0502,52
4.262,82,8.5171,-3.8754,-12.3299,-0.0381,-0.0249,0.0522,87,3.844,74,-3.4345,-7.6551,-16.1239,0.195,-0.0476,0.0079,52
4.313,83,8.5102,-3.8544,-12.3553,-0.036,-0.0228,0.0449,87,3.896,75,-6.2229,-0.8647,-15.4534,0.4873,-0.3611,-0.029,52
4.365,84,8.4318,-3.9511,-12.422,-0.031,-0.0211,0.0276,87,3.948,76,-6.3164,-1.9131,-16.1346,0.2946,-0.7523,0.3336,52
4.417,85,8.4034,-4.0,-12.4533,-0.0001,-0.0264,0.0015,87,4.0,77,-5.4472,-4.0018,-16.2864,0.2921,-0.5256,0.3925,52
4.469,86,8.4413,-3.9659,-12.441,0.0076,-0.0263,-0.011,87,4.052,78,-5.3628,-3.9452,-16.1724,0.602,-0.1961,0.4248,52
4.521,87,8.4443,-3.9698,-12.4336,0.0026,-0.0155,-0.004,87,4.103,79,-4.8578,-4.7243,-16.1142,0.5561,-0.0675,0.4306,52
4.572,88,8.4115,-4.0146,-12.4394,0.0302,-0.0135,-0.0083,87,4.155,80,-4.4293,-5.3392,-16.0979,0.5141,0.0107,0.4158,52
4.624,89,8.3928,-4.0191,-12.4132,0.0598,-0.0292,-0.0281,87,4.207,81,-4.0497,-5.8397,-16.0726,0.4541,0.0587,0.3588,52
4.676,90,8.3928,-3.9876,-12.392,0.0755,-0.0511,-0.0483,87,4.259,82,-3.8253,-6.3834,-16.0571,0.4471,0.0982,0.2661,52
4.728,91,8.435,-3.9315,-12.3821,0.0843,-0.0677,-0.0614,87,4.311,83,-3.7285,-6.7804,-15.9119,0.5284,0.1123,0.1582,52
4.78,92,8.4854,-3.8541,-12.4117,0.0792,-0.0707,-0.0586,87,4.362,84,-3.7496,-7.1886,-15.7741,0.4518,0.0701,0.1163,52
4.831,93,8.4645,-3.8489,-12.4625,0.0661,-0.0562,-0.0538,87,4.414,85,-3.7658,-7.7291,-15.5569,0.3806,0.0091,0.115,52
4.883,94,8.5195,-3.769,-12.4462,0.0504,-0.0463,-0.0562,87,4.466,86,-3.7157,-7.3231,-15.2922,0.315,-0.1145,0.1235,52
4.935,95,8.5092,-3.8101,-12.5111,0.0489,-0.0386,-0.0436,87,4.517,87,-3.7841,-7.5514,-15.0705,0.1177,-0.1632,0.1223,52
4.987,96,8.4938,-3.8271,-12.4718,0.0527,-0.0243,-0.0241,87,4.569,88,-3.8622,-7.3951,-14.841,-0.0205,-0.2029,0.1005,52
5.039,97,8.4545,-3.8662,-12.4522,0.0525,-0.0157,-0.0218,87,4.621,89,-4.1127,-7.2219,-14.8794,-0.3854,-0.2421,0.1154,52
5.09,98,8.4282,-3.9284,-12.4709,0.0364,-0.0001,-0.0262,87,4.673,90,-4.4442,-7.3908,-14.831,-0.265,-0.2375,0.0096,52
5.142,99,8.4752,-3.8293,-12.4603,0.0493,0.0111,-0.0264,87,4.725,91,-4.338,-7.587,-14.987,-0.1988,-0.2091,-0.0853,52
5.194,100,8.5002,-3.7972,-12.4267,0.0542,0.0244,-0.0186,87,4.776,92,-4.336,-7.7578,-15.0941,-0.2017,-0.2201,-0.0841,52
5.246,101,8.4775,-3.8578,-12.4362,0.0688,0.0396,0.0012,87,4.828,93,-4.4564,-7.6246,-15.1541,-0.3327,-0.281,0.0861,52
5.298,102,8.4907,-3.8627,-12.3671,0.0888,0.0522,0.0217,87,4.88,94,-4.437,-7.5458,-15.2746,-0.5004,-0.3546,0.2935,52
5.349,103,8.5214,-3.8185,-12.2916,0.0713,0.0622,0.0291,87,4.932,95,-4.5744,-7.3721,-15.4037,-0.5319,-0.4055,0.3675,52
5.401,104,8.3899,-3.9635,-12.2122,-0.0856,0.1176,0.0424,87,4.983,96,-4.6247,-7.226,-15.5764,-0.4961,-0.4731,0.3737,52
5.453,105,8.4655,-3.8182,-12.1968,-0.0272,0.0988,0.0378,87,5.035,97,-4.7752,-7.0542,-15.7189,-0.3992,-0.5022,0.3015,52
5.505,106,8.429,-3.9037,-12.1568,0.0448,0.0819,0.0411,87,5.087,98,-4.8692,-6.9535,-15.7691,-0.3095,-0.512,0.2092,52
5.557,107,8.3913,-4.0189,-12.1191,0.0741,0.0576,-0.0025,87,5.139,99,-4.9901,-6.8805,-15.6887,-0.2714,-0.5147,0.1094,52
5.608,108,8.4595,-3.9631,-12.1098,0.08,0.0351,-0.0378,87,5.191,100,-5.0624,-6.8551,-15.5934,-0.2298,-0.5062,0.0122,52
5.66,109,8.4914,-3.9423,-12.0488,0.0575,0.0378,-0.0429,87,5.242,101,-5.106,-6.8494,-15.4832,-0.1779,-0.5108,-0.0659,52
5.712,110,8.4243,-4.1025,-12.0932,0.0153,0.0429,-0.0726,87,5.294,102,-5.1462,-6.9041,-15.373,-0.1344,-0.491,-0.0945,52
5.764,111,8.4299,-4.0819,-12.0174,-0.0181,0.0261,-0.1519,87,5.346,103,-5.1848,-6.9549,-15.2699,-0.1282,-0.4263,-0.0981,52
5.815,112,8.5566,-3.7807,-12.0305,-0.035,0.0087,-0.1952,87,5.398,104,-5.243,-6.9243,-15.1782,-0.1168,-0.3197,-0.1,52
5.867,113,8.6878,-3.5096,-12.0321,-0.0328,0.0109,-0.1554,87,5.45,105,-5.3473,-6.9268,-15.1031,-0.0577,-0.1821,-0.1212,52
5.919,114,8.7468,-3.4538,-12.0488,-0.001,0.0148,-0.0906,87,5.501,106,-5.547,-6.8321,-15.1145,-0.0061,-0.0519,-0.1077,52
5.971,115,8.7419,-3.5126,-12.1075,0.0478,0.023,-0.0273,87,5.553,107,-5.8941,-6.7215,-15.1428,0.01,0.0925,0.0202,52
6.023,116,8.7444,-3.5362,-12.0316,0.0678,0.0472,0.0236,87,5.605,108,-6.0276,-6.643,-15.0637,0.064,0.1886,0.2093,52
6.074,117,8.6933,-3.6327,-12.0261,0.077,0.0636,0.0434,87,5.657,109,-6.0091,-6.6263,-14.991,0.159,0.2345,0.3472,52
6.126,118,8.7072,-3.6663,-11.9377,0.0818,0.0777,0.043,87,5.708,110,-5.9716,-6.7283,-14.975,0.162,0.2181,0.3983,52
6.178,119,8.6895,-3.665,-11.8877,0.0885,0.0924,0.0297,87,5.76,111,-5.8617,-6.7929,-15.0536,0.1353,0.1676,0.3284,52
6.23,120,8.6935,-3.8011,-11.81,0.0802,0.1043,0.0105,87,5.812,112,-5.7378,-6.785,-14.9614,0.1616,0.1176,0.1778,52
6.282,121,8.7138,-3.8123,-11.7248,0.1055,0.0954,-0.0381,87,5.864,113,-5.5682,-6.5374,-14.2714,0.5259,0.1502,-0.2099,52
6.333,122,8.6816,-3.7366,-11.5806,0.0706,0.0955,-0.0964,87,5.916,114,-4.5066,-2.8684,-13.2052,-0.1001,0.3508,-0.3743,52
6.385,123,9.034,-4.0867,-11.4233,0.0117,0.0103,-0.2451,87,5.967,115,-2.7572,-4.1387,-12.7426,-0.7501,0.8002,-0.9263,52
6.437,124,8.9313,-3.4522,-11.3736,-0.017,0.024,-0.4419,87,6.019,116,-2.2556,-3.507,-13.0324,-0.536,1.269,-1.3474,52
6.489,125,9.0493,-2.7369,-11.3486,0.0244,-0.0124,-0.4433,87,6.071,117,0.6542,-1.9744,-11.9773,-0.6681,1.6111,-1.6548,52
6.541,126,9.0567,-2.9508,-11.4817,-0.094,0.0402,-0.3093,87,6.123,118,4.0155,-1.721,-12.6022,-0.5495,1.8608,-1.8792,52
6.592,127,9.1537,-2.7581,-11.5434,-0.0389,0.0624,-0.2049,87,6.175,119,8.048,-0.2624,-15.2371,-1.0782,2.0431,-2.0429,52
6.644,128,9.1939,-2.5964,-11.3842,0.0353,0.0459,-0.0814,87,6.226,120,5.5439,1.0587,-10.7402,-0.2296,1.7913,-2.1602,52
6.696,129,9.1163,-2.6712,-11.4574,0.0041,0.0607,0.0189,87,6.278,121,7.8244,-3.6615,-10.7683,-0.8447,1.3512,-1.4187,52
6.748,130,9.0702,-2.8479,-11.3804,0.0084,0.0352,0.0411,87,6.33,122,7.7101,-0.8022,-11.7163,-0.4816,1.112,-1.2126,52
6.8,131,9.0458,-2.8872,-11.4218,0.0034,-0.0005,0.0163,87,6.382,123,8.0739,-0.5398,-11.6594,-0.2913,0.8603,-0.954,52
6.851,132,9.1185,-2.8208,-11.422,0.0073,-0.0181,0.0251,87,6.433,124,8.3095,-0.3396,-12.0185,-0.25,0.5647,-0.6437,52
6.903,133,9.1481,-2.771,-11.4329,-0.0015,-0.0262,0.0596,87,6.485,125,8.3431,-0.23,-12.2999,-0.1795,0.3919,-0.4412,52
6.955,134,9.135,-2.7894,-11.4811,0.0048,-0.0247,0.1121,87,6.537,126,8.3776,-0.193,-12.49,-0.1544,0.2828,-0.2899,52
7.007,135,9.0943,-2.916,-11.4612,-0.0041,-0.0198,0.1627,87,6.589,127,8.4221,-0.1874,-12.5939,-0.1242,0.2346,-0.2147,52
