right_leg_timestamp,right_leg_index,right_leg_accel_x,right_leg_accel_y,right_leg_accel_z,right_leg_gyro_x,right_leg_gyro_y,right_leg_gyro_z,right_leg_battery_percentage,left_leg_timestamp,left_leg_index,left_leg_accel_x,left_leg_accel_y,left_leg_accel_z,left_leg_gyro_x,left_leg_gyro_y,left_leg_gyro_z,left_leg_battery_percentage
0.807,15,9.2443,-2.5705,-9.611,0.2799,-0.1507,0.0255,88,0.012,0,6.8357,-0.7386,-15.2289,0.477,-2.0117,0.1336,51
0.859,16,9.4028,-2.3489,-9.91,0.2548,-0.2207,-0.0047,88,0.064,1,5.973,-0.7363,-15.6572,0.3617,-1.8759,-0.0357,51
0.911,17,9.5305,-2.3539,-10.2454,0.1922,-0.1098,0.0417,88,0.116,2,5.4982,-0.9031,-15.5011,0.4323,-1.6337,-0.2352,51
0.962,18,9.4826,-2.4676,-10.2023,0.1051,0.0485,0.0881,88,0.167,3,5.1545,-1.0922,-15.6642,0.5356,-1.2322,-0.4451,51
1.014,19,9.3249,-2.5684,-9.9181,0.0866,0.1868,0.1072,88,0.219,4,4.84,-1.2031,-16.1945,0.549,-0.8159,-0.5364,51
1.066,20,9.2298,-2.4918,-9.5908,0.061,0.1587,0.0981,88,0.271,5,4.7677,-1.1076,-16.7636,0.4267,-0.5365,-0.5731,51
1.118,21,9.2039,-2.8535,-9.6837,-0.1497,0.109,0.0762,88,0.323,6,4.8351,-1.2537,-17.2422,0.2767,-0.328,-0.5714,51
1.17,22,9.087,-3.0335,-9.7552,-0.1144,0.0414,0.0491,88,0.374,7,4.7239,-1.2606,-17.5526,0.2169,-0.1861,-0.4811,51
1.221,23,9.1807,-2.9316,-9.8452,-0.0354,0.0165,0.0318,88,0.426,8,4.479,-1.1192,-17.6943,0.1354,-0.1204,-0.3499,51
1.273,24,9.2517,-2.8442,-9.8326,0.0554,0.0066,0.0298,88,0.478,9,4.1334,-1.097,-17.9832,-0.0099,-0.0556,-0.2283,51
1.325,25,9.1925,-2.7587,-9.6447,0.0902,-0.0164,0.0195,88,0.53,10,3.8168,-0.9537,-18.2738,-0.1181,-0.009,-0.1043,51
1.377,26,9.1937,-2.7805,-9.6156,0.0556,-0.0623,-0.0041,88,0.582,11,3.7553,-0.9591,-18.4837,-0.1856,0.0019,0.0338,51
1.429,27,9.2264,-2.7076,-9.6407,0.0492,-0.1141,-0.0325,88,0.633,12,3.9688,-0.8946,-18.4893,-0.1553,-0.0134,0.1115,51
1.48,28,9.254,-2.674,-9.7494,0.0449,-0.1568,-0.0513,88,0.685,13,4.1514,-0.8943,-18.4363,-0.1437,-0.0332,0.1013,51
1.532,29,9.379,-2.4621,-9.9627,0.0457,-0.1374,-0.0428,88,0.737,14,4.1425,-0.8905,-18.3822,-0.1026,-0.0369,0.0366,51
1.584,30,9.4477,-2.2919,-9.9116,-0.0659,-0.0014,0.0165,88,0.789,15,3.94,-0.9231,-18.4173,-0.1059,-0.006,-0.0151,51
1.636,31,9.4378,-2.7189,-10.0908,-0.0416,0.0092,0.0124,88,0.841,16,3.7007,-0.9981,-18.4981,-0.0647,0.0271,-0.0359,51
1.687,32,9.4186,-2.7415,-9.988,0.0073,0.0214,0.0337,88,0.892,17,3.5067,-0.9868,-18.5345,-0.0325,0.0358,-0.0452,51
1.739,33,9.3489,-2.6989,-9.7973,0.0402,0.0133,0.032,88,0.944,18,3.7668,-0.8449,-18.5554,-0.0114,0.0178,-0.0427,51
1.791,34,9.3578,-2.4948,-9.8076,-0.0127,0.0462,0.0349,88,0.996,19,4.032,-0.7726,-18.5805,0.0013,0.006,-0.0332,51
1.843,35,9.4053,-2.6871,-9.7942,0.006,0.0251,0.0321,88,1.048,20,4.2123,-0.7459,-18.5258,0.0337,-0.0057,-0.0485,51
1.894,36,9.3991,-2.7554,-9.8538,0.013,0.0138,0.033,88,1.099,21,4.2849,-0.7308,-18.443,0.0802,-0.016,-0.069,51
1.946,37,9.3135,-2.7765,-9.7598,0.022,-0.0042,0.0251,88,1.151,22,4.2266,-0.6786,-18.4546,0.0785,-0.0265,-0.081,51
1.998,38,9.2662,-2.7829,-9.7579,0.0086,-0.0375,0.006,88,1.203,23,4.0314,-0.6715,-18.49,0.0741,-0.0289,-0.0923,51
2.05,39,9.4091,-2.6693,-9.7998,-0.0333,-0.0378,-0.0034,88,1.255,24,3.8983,-0.6857,-18.4652,0.0854,-0.0244,-0.1111,51
2.102,40,9.2128,-2.8994,-9.8046,-0.1619,0.0422,0.009,88,1.307,25,3.781,-0.6762,-18.4576,0.0823,-0.0197,-0.1381,51
2.154,41,9.1825,-3.0028,-9.7019,-0.1312,-0.0027,-0.0298,88,1.358,26,3.7068,-0.7159,-18.4237,0.0673,-0.0173,-0.1751,51
2.205,42,9.2596,-2.896,-9.8221,-0.0391,-0.033,-0.0458,88,1.41,27,3.6779,-0.7585,-18.402,0.0741,-0.027,-0.2086,51
2.257,43,9.2999,-2.8624,-9.7116,0.025,-0.0457,-0.0259,88,1.462,28,3.7409,-0.6624,-18.5096,0.0251,-0.0291,-0.2156,51
2.309,44,9.4011,-2.4884,-9.7368,0.022,0.0485,0.0176,88,1.514,29,3.9416,-0.824,-18.5236,0.0145,-0.0341,-0.1929,51
2.361,45,9.1749,-2.8855,-9.5273,-0.0437,0.0482,0.0197,88,1.566,30,4.0217,-0.8659,-18.4802,0.0876,-0.024,-0.1727,51
2.413,46,9.211,-2.9212,-9.5314,-0.0551,0.0004,-0.0089,88,1.617,31,4.0658,-0.7624,-18.3582,0.13,-0.0215,-0.1583,51
2.464,47,9.3698,-2.7997,-9.7429,0.003,-0.0223,-0.0113,88,1.669,32,4.0296,-0.6528,-18.3172,0.0576,-0.0099,-0.1258,51
2.516,48,9.3974,-2.6985,-9.8301,0.0392,-0.016,0.0037,88,1.721,33,4.0457,-0.6598,-18.296,-0.0145,0.0171,-0.0934,51
2.568,49,9.3046,-2.8649,-9.7567,0.0433,-0.0178,0.0064,88,1.772,34,4.0902,-0.7066,-18.3401,-0.0329,0.0533,-0.0699,51
2.62,50,9.3208,-2.7635,-9.6901,0.0577,-0.0425,-0.0046,88,1.824,35,4.0709,-0.7296,-18.4011,-0.0064,0.0851,-0.0565,51
2.672,51,9.3575,-2.6061,-9.7868,0.045,-0.0529,-0.016,88,1.876,36,4.0024,-0.7035,-18.4044,0.0448,0.0976,-0.0539,51
2.723,52,9.4689,-2.4007,-9.7959,-0.05,0.0349,0.0055,88,1.928,37,3.9438,-0.6924,-18.3846,0.0949,0.1105,-0.063,51
2.775,53,9.283,-2.7629,-9.8166,-0.0274,0.006,0.0049,88,1.98,38,4.0081,-0.6163,-18.325,0.0892,0.1135,-0.0765,51
2.827,54,9.3273,-2.7173,-9.9068,0.0283,-0.0085,0.0121,88,2.031,39,4.1286,-0.6296,-18.2908,0.0252,0.1057,-0.0822,51
2.879,55,9.3609,-2.6736,-9.9116,0.0825,-0.0331,0.0205,88,2.083,40,4.1827,-0.7011,-18.2699,0.0142,0.0941,-0.0717,51
2.93,56,9.3842,-2.5172,-9.8317,0.009,0.0626,0.0415,88,2.135,41,4.1747,-0.585,-18.2975,0.0223,0.0852,-0.0489,51
2.982,57,9.2838,-2.7809,-9.7721,-0.1201,0.0564,0.0242,88,2.187,42,4.218,-0.6492,-18.2732,-0.0066,0.0765,-0.0304,51
3.034,58,9.3027,-2.8124,-9.8419,-0.1329,0.0136,-0.0032,88,2.238,43,4.4634,-0.6282,-18.1651,0.0093,0.0826,-0.008,51
3.086,59,9.3297,-2.7757,-9.8774,-0.1029,0.0215,-0.0096,88,2.29,44,4.5952,-0.6598,-18.1189,-0.0817,0.0675,-0.0104,51
3.137,60,9.2882,-2.809,-9.7809,-0.1211,0.0473,-0.0096,88,2.342,45,4.5884,-0.9456,-18.1394,-0.0815,0.0649,-0.0202,51
3.189,61,9.27,-2.8164,-9.734,-0.0903,0.0373,-0.0176,88,2.394,46,4.4259,-0.8232,-18.225,0.0429,0.0973,0.0127,51
3.241,62,9.3049,-2.7832,-9.7541,-0.0398,0.0165,-0.0214,88,2.446,47,4.3543,-0.7604,-18.2484,0.0184,0.0895,0.0324,51
3.293,63,9.3304,-2.7367,-9.7559,-0.0078,0.0241,-0.0101,88,2.497,48,4.3457,-0.7869,-18.2492,0.0233,0.0833,0.0433,51
3.344,64,9.2496,-2.7465,-9.6684,0.0038,0.0342,0.0019,88,2.549,49,4.3625,-0.6878,-18.203,0.0476,0.0637,0.0451,51
3.396,65,9.2598,-2.7044,-9.6566,0.0009,0.0157,-0.0032,88,2.601,50,4.4173,-0.6225,-18.1569,0.0194,0.0391,0.0411,51
3.448,66,9.2224,-2.684,-9.6539,-0.0116,0.0158,-0.0076,88,2.653,51,4.5042,-0.6646,-18.1261,-0.0183,0.0195,0.0312,51
3.5,67,9.2395,-2.7108,-9.741,-0.0023,-0.0146,-0.0134,88,2.705,52,4.5404,-0.7124,-18.1183,-0.0378,0.0063,0.0153,51
3.552,68,9.2637,-2.6804,-9.8425,0.0526,-0.0369,-0.0138,88,2.756,53,4.5998,-0.7908,-18.0891,0.0005,0.0061,-0.0035,51
3.604,69,9.2227,-2.7316,-9.7798,0.094,-0.0425,0.001,88,2.808,54,4.6222,-0.7382,-18.0632,0.0618,0.0236,-0.0101,51
3.656,70,9.2282,-2.6331,-9.7319,0.1342,-0.0594,0.0035,88,2.86,55,4.7965,-0.7473,-17.958,0.0481,0.0296,-0.0136,51
3.707,71,9.2408,-2.6947,-9.7463,0.1102,-0.0584,0.003,88,2.912,56,4.8942,-0.896,-17.9291,-0.0004,0.0391,-0.0202,51
3.759,72,9.281,-2.6662,-9.7902,0.1105,-0.0533,0.0026,88,2.963,57,4.842,-0.9557,-17.9203,0.0024,0.0501,-0.0156,51
3.811,73,9.3105,-2.6178,-9.81,0.1014,-0.0394,0.0063,88,3.015,58,4.7316,-0.9187,-17.9302,0.0102,0.0555,0.0245,51
3.862,74,9.3193,-2.55,-9.7765,0.046,-0.003,0.0153,88,3.067,59,4.6618,-0.8501,-17.9408,-0.0018,0.0558,0.0737,51
3.914,75,9.257,-2.6816,-9.8069,0.0371,-0.0041,0.0173,88,3.119,60,4.583,-0.8245,-17.9976,-0.0406,0.0534,0.1031,51
3.966,76,9.2658,-2.6657,-9.8088,0.0568,-0.0079,0.015,88,3.17,61,4.5325,-0.7884,-18.0695,-0.0747,0.0473,0.1237,51
4.018,77,9.2676,-2.7477,-9.7963,0.0748,-0.0214,0.0045,88,3.222,62,4.5771,-0.7929,-18.1097,-0.0738,0.0312,0.126,51
4.07,78,9.2873,-2.7174,-9.7748,0.0816,-0.0233,0.0085,88,3.274,63,4.6334,-0.7675,-18.086,-0.0411,0.0127,0.1035,51
4.121,79,9.3812,-2.5236,-9.833,0.0639,-0.0032,0.0193,88,3.326,64,4.6982,-0.7399,-18.0004,-0.0257,-0.0073,0.0684,51
4.173,80,9.2364,-2.8929,-9.6585,-0.0556,0.1095,0.0445,88,3.378,65,4.6807,-0.762,-17.9371,-0.0399,-0.0137,0.0315,51
4.225,81,9.2363,-2.8731,-9.5875,-0.0789,0.0872,0.022,88,3.429,66,4.61,-0.8012,-17.9321,-0.0272,-0.0038,-0.008,51
4.277,82,9.2824,-2.8734,-9.6352,-0.0583,0.0376,-0.0039,88,3.481,67,4.5698,-0.7676,-18.0191,-0.0261,0.0068,-0.036,51
4.328,83,9.2671,-2.8733,-9.6802,-0.0037,0.0186,-0.0115,88,3.533,68,4.5956,-0.7812,-18.0899,-0.0143,0.0029,-0.0556,51
4.38,84,9.2956,-2.8213,-9.717,0.0507,0.0052,-0.0047,88,3.585,69,4.6087,-0.8071,-18.1053,0.0228,-0.0043,-0.0763,51
4.432,85,9.2037,-2.8891,-9.6013,0.0957,-0.0254,0.0027,88,3.636,70,4.6274,-0.8563,-18.0515,0.0606,-0.0134,-0.1015,51
4.484,86,9.2481,-2.7445,-9.6071,0.0645,-0.0188,0.0039,88,3.688,71,4.6285,-0.7983,-17.9724,0.0847,-0.0121,-0.1106,51
4.536,87,9.1905,-2.6357,-9.6142,0.009,0.0365,0.0194,88,3.74,72,4.679,-0.7519,-17.9356,0.0587,-0.0083,-0.1075,51
4.588,88,9.136,-2.8709,-9.5867,-0.0315,0.0273,0.0158,88,3.792,73,4.7506,-0.7676,-17.9345,0.0373,-0.0024,-0.0999,51
4.639,89,9.2027,-2.8172,-9.622,-0.0173,0.0041,0.0148,88,3.843,74,4.8083,-0.7605,-17.9431,0.0403,0.0055,-0.0916,51
4.691,90,9.2637,-2.7652,-9.5937,0.0136,-0.023,0.0052,88,3.895,75,4.8033,-0.7211,-17.8987,0.0192,0.0049,-0.0779,51
4.743,91,9.2874,-2.6905,-9.6462,0.0094,-0.0277,0.0042,88,3.947,76,4.6886,-0.7264,-17.9062,-0.0049,0.006,-0.0709,51
4.795,92,9.2738,-2.7899,-9.6241,-0.0064,-0.0302,0.0078,88,3.999,77,4.6588,-0.7163,-17.9258,0.0272,0.0247,-0.058,51
4.846,93,9.3122,-2.7669,-9.665,0.0091,-0.0257,0.0063,88,4.051,78,4.7963,-0.6965,-17.9014,0.0036,0.0384,-0.0332,51
4.898,94,9.3533,-2.7217,-9.686,-0.0057,-0.0077,0.0052,88,4.102,79,4.9878,-0.8123,-17.8509,-0.0261,0.0411,-0.0151,51
4.95,95,9.3308,-2.813,-9.6063,-0.0607,0.0568,0.0148,88,4.154,80,5.0299,-0.7996,-17.8,-0.0391,0.0435,-0.0068,51
5.002,96,9.3166,-2.856,-9.6195,-0.0709,0.0525,0.0063,88,4.206,81,5.0193,-0.8938,-17.7794,0.0052,0.0535,0.0072,51
5.054,97,9.2971,-2.8776,-9.668,-0.0098,0.0216,-0.0013,88,4.258,82,4.8664,-0.6899,-17.8255,0.0467,0.0794,0.0368,51
5.105,98,9.2996,-2.8141,-9.6443,0.0245,0.0129,0.0099,88,4.309,83,4.8003,-0.6606,-17.8406,-0.0296,0.0832,0.0555,51
5.157,99,9.3044,-2.698,-9.5733,0.0195,0.0621,0.0185,88,4.361,84,4.8157,-0.6684,-17.8814,-0.0646,0.0808,0.0778,51
5.209,100,9.2781,-2.7945,-9.5159,-0.0207,0.0526,0.0236,88,4.413,85,4.8983,-0.67,-17.8992,-0.078,0.0629,0.1001,51
5.261,101,9.295,-2.8416,-9.5761,0.0075,0.0041,0.0012,88,4.465,86,5.0257,-0.762,-17.8404,-0.0826,0.0426,0.1199,51
5.313,102,9.3284,-2.8273,-9.6115,0.0484,-0.0104,0.0075,88,4.517,87,5.0912,-0.9069,-17.7584,-0.0632,0.0378,0.1299,51
5.364,103,9.3306,-2.7467,-9.5616,0.0489,0.0043,0.0237,88,4.568,88,5.0956,-0.959,-17.7107,-0.0364,0.0553,0.1589,51
5.416,104,9.2722,-2.7609,-9.5439,-0.035,0.0628,0.0224,88,4.62,89,5.0734,-0.991,-17.7119,-0.072,0.0703,0.1986,51
5.468,105,9.2351,-2.8608,-9.4845,-0.0788,0.0385,0.0032,88,4.672,90,5.0382,-0.9966,-17.761,-0.073,0.0854,0.2323,51
5.52,106,9.2581,-2.8898,-9.5287,-0.0888,0.0085,-0.0157,88,4.724,91,5.0007,-0.9581,-17.8084,-0.0772,0.0863,0.2519,51
5.572,107,9.2925,-2.8386,-9.5802,-0.0683,0.0113,-0.0189,88,4.775,92,4.9737,-0.9417,-17.8221,-0.092,0.0639,0.2532,51
5.623,108,9.3014,-2.8057,-9.5855,-0.0556,0.0328,-0.0119,88,4.827,93,5.0061,-0.8973,-17.7966,-0.0939,0.0377,0.2437,51
5.675,109,9.2511,-2.863,-9.5109,-0.0451,0.036,-0.0125,88,4.879,94,5.0399,-0.8746,-17.7615,-0.0835,0.0126,0.2213,51
5.727,110,9.2374,-2.8529,-9.5026,-0.0166,0.0103,-0.0214,88,4.931,95,5.0111,-0.8409,-17.7358,-0.058,-0.0027,0.1826,51
5.779,111,9.2354,-2.8346,-9.4928,-0.0376,0.0199,-0.0216,88,4.983,96,5.0173,-0.82,-17.719,-0.0433,-0.0138,0.1347,51
5.83,112,9.2551,-2.7864,-9.5254,-0.0667,0.0194,-0.0294,88,5.034,97,5.0426,-0.8186,-17.728,-0.0289,-0.017,0.0862,51
5.882,113,9.21,-2.8069,-9.5075,-0.0754,0.0125,-0.0375,88,5.086,98,5.078,-0.8517,-17.6837,-0.0117,-0.0151,0.0396,51
5.934,114,9.2241,-2.7902,-9.5354,-0.0571,0.0071,-0.0429,88,5.138,99,5.0764,-0.9097,-17.6401,0.0097,-0.0067,-0.0047,51
5.986,115,9.2179,-2.7477,-9.5746,-0.0014,0.0056,-0.0243,88,5.19,100,5.0135,-0.9481,-17.637,0.0094,0.0056,-0.0437,51
6.038,116,9.1353,-2.7497,-9.4859,-0.021,0.0302,-0.0073,88,5.241,101,5.0464,-1.0067,-17.693,-0.0092,0.0245,-0.0589,51
6.089,117,9.1537,-2.7416,-9.4352,-0.0019,0.007,-0.0112,88,5.293,102,5.1666,-1.0706,-17.7496,-0.0204,0.0285,-0.0559,51
6.141,118,9.1198,-2.7875,-9.5594,0.0659,-0.0457,-0.0179,88,5.345,103,5.2606,-1.1476,-17.711,-0.0105,0.0209,-0.042,51
6.193,119,9.2393,-2.5609,-9.6075,0.1098,-0.0631,-0.0049,88,5.397,104,5.2785,-1.1336,-17.6179,0.023,0.0177,-0.0175,51
6.245,120,9.2094,-2.6203,-9.5154,0.0556,0.0019,0.0045,88,5.449,105,5.2045,-1.0966,-17.5555,-0.0002,0.0215,0.0093,51
6.296,121,9.2175,-2.6661,-9.5107,-0.0033,0.0023,0.0018,88,5.5,106,5.1279,-1.0191,-17.5414,-0.0729,0.0383,0.0529,51
6.348,122,9.2472,-2.6683,-9.5835,0.0007,-0.0114,-0.0016,88,5.552,107,5.1271,-0.9696,-17.546,-0.1308,0.0657,0.1128,51
6.4,123,9.2984,-2.6454,-9.6196,0.0183,-0.0086,0.0109,88,5.604,108,5.1379,-0.9351,-17.5958,-0.1574,0.0835,0.1426,51
6.452,124,9.2995,-2.6514,-9.5489,0.0705,-0.0165,0.0272,88,5.656,109,5.1868,-0.946,-17.6476,-0.1551,0.0878,0.1436,51
6.504,125,9.2317,-2.7102,-9.501,0.0206,-0.0008,0.0288,88,5.708,110,5.2613,-0.9537,-17.6311,-0.1141,0.0839,0.1265,51
6.556,126,9.2527,-2.7301,-9.5918,0.0603,-0.0494,0.0043,88,5.759,111,5.2643,-0.983,-17.5832,-0.0891,0.0587,0.0998,51
6.607,127,9.2802,-2.7211,-9.6221,0.0802,-0.0584,-0.0003,88,5.811,112,5.2222,-0.9484,-17.5337,-0.0598,0.0311,0.0791,51
6.659,128,9.3144,-2.6641,-9.6188,0.0964,-0.0628,0.0016,88,5.863,113,5.1448,-0.8906,-17.5344,-0.0678,0.0219,0.062,51
6.711,129,9.3253,-2.6148,-9.5965,0.0515,-0.0478,0.0032,88,5.915,114,5.1401,-0.8503,-17.5535,-0.0656,0.0305,0.0584,51
6.763,130,9.2541,-2.7072,-9.6536,-0.0094,-0.0153,0.0101,88,5.966,115,5.1873,-0.8015,-17.5718,-0.0448,0.0312,0.0503,51
6.815,131,9.2715,-2.7428,-9.6552,-0.0122,-0.0089,0.0059,88,6.018,116,5.2241,-0.7932,-17.6029,-0.0696,0.0126,0.0249,51
6.866,132,9.2842,-2.717,-9.6606,0.0087,0.0036,0.0112,88,6.07,117,5.215,-0.8226,-17.6127,-0.0439,0.0054,0.0041,51
6.918,133,9.2765,-2.7638,-9.6168,0.0421,0.0066,0.0192,88,6.122,118,5.2342,-0.8678,-17.5615,-0.0112,0.0021,-0.0208,51
6.97,134,9.2251,-2.8196,-9.5894,0.0763,-0.0139,0.0079,88,6.173,119,5.3108,-1.0085,-17.5285,0.0317,0.0116,-0.0549,51
7.022,135,9.2429,-2.8197,-9.6064,0.0861,-0.0408,-0.0074,88,6.225,120,5.3062,-1.0443,-17.524,0.0964,0.0197,-0.0747,51
7.073,136,9.2673,-2.8237,-9.6135,0.1048,-0.055,-0.0139,88,6.277,121,5.2793,-0.9728,-17.5378,0.1074,0.0166,-0.0554,51
7.125,137,9.3,-2.7561,-9.6301,0.0961,-0.0538,-0.0109,88,6.329,122,5.2488,-0.8999,-17.5479,0.0442,0.0041,-0.0097,51
7.177,138,9.3205,-2.6634,-9.6469,0.0833,-0.0461,0.002,88,6.38,123,5.2739,-0.8985,-17.5189,-0.002,0.0047,0.031,51
7.229,139,9.3193,-2.6864,-9.6531,0.0467,-0.0244,0.0181,88,6.432,124,5.2842,-0.8834,-17.505,-0.0187,0.0047,0.042,51
7.281,140,9.2838,-2.7484,-9.633,0.0576,-0.0175,0.0295,88,6.484,125,5.2802,-0.8809,-17.5041,-0.0019,0.0113,0.0249,51
7.332,141,9.2671,-2.7722,-9.6069,0.0742,-0.0168,0.0379,88,6.536,126,5.2681,-0.8497,-17.4837,0.0003,0.0168,-0.0057,51
7.384,142,9.2527,-2.7912,-9.5705,0.0702,-0.0195,0.034,88,6.588,127,5.3219,-0.8563,-17.4919,0.0032,0.0228,-0.0369,51
7.436,143,9.3325,-2.624,-9.6115,0.0308,0.0028,0.0305,88,6.639,128,5.4357,-0.8185,-17.5001,0.004,0.0139,-0.0585,51
7.488,144,9.1852,-2.8359,-9.5823,-0.0031,0.0591,0.0353,88,6.691,129,5.4144,-0.8563,-17.511,-0.0026,-0.0125,-0.081,51
7.539,145,9.1155,-2.944,-9.5345,-0.0147,0.0239,0.0221,88,6.743,130,5.2957,-0.8631,-17.5042,0.0394,-0.02,-0.1148,51
7.591,146,9.1509,-2.9686,-9.5287,0.0025,-0.0237,-0.0013,88,6.795,131,5.2034,-0.7113,-17.5874,0.0744,-0.0073,-0.1553,51
7.643,147,9.2275,-2.889,-9.6327,0.0344,-0.0621,0.0001,88,6.846,132,5.2224,-0.569,-17.8244,0.0372,-0.0328,-0.1877,51
7.695,148,9.2778,-2.8244,-9.643,0.031,-0.0564,0.0107,88,6.898,133,5.169,-0.5158,-17.9698,0.0957,-0.0994,-0.2419,51
7.746,149,9.2427,-2.8711,-9.5965,0.0162,-0.0524,0.002,88,6.95,134,5.0988,-0.4706,-17.9706,0.2457,-0.1857,-0.3389,51
7.799,150,9.2253,-2.8881,-9.6069,-0.0038,-0.0496,-0.009,88,7.002,135,5.0476,-0.4646,-17.8666,0.2638,-0.278,-0.4399,51
7.85,151,9.2553,-2.846,-9.6554,-0.0049,-0.0408,-0.0132,88,7.054,136,5.038,-0.7027,-17.7093,0.3192,-0.3042,-0.5002,51
7.902,152,9.2809,-2.8066,-9.6946,0.0108,-0.024,-0.002,88,7.106,137,5.0567,-0.8903,-17.5527,0.3783,-0.2826,-0.5089,51
7.954,153,9.2767,-2.6734,-9.6963,-0.0006,-0.0015,0.0067,88,7.157,138,5.0961,-1.0518,-17.53,0.303,-0.2135,-0.4817,51
8.006,154,9.3445,-2.5917,-9.5433,-0.0848,0.1052,0.0292,88,7.209,139,5.0927,-1.0573,-17.5715,0.2513,-0.1264,-0.4103,51
8.058,155,9.2442,-2.8534,-9.5401,-0.1812,0.1056,0.0206,88,7.261,140,5.1061,-1.0065,-17.6436,0.1741,-0.0594,-0.2911,51
8.109,156,9.3013,-2.8685,-9.6011,-0.185,0.063,-0.0029,88,7.313,141,5.1767,-1.0487,-17.6817,0.1158,-0.0185,-0.122,51
8.161,157,9.3185,-2.8571,-9.7184,-0.1568,0.0727,-0.0044,88,7.365,142,5.1179,-1.0261,-17.7484,-0.0574,-0.0187,0.0697,51
8.213,158,9.2328,-2.9461,-9.5989,-0.1273,0.1037,-0.0083,88,7.416,143,5.1708,-1.3505,-17.7354,-0.0967,-0.0111,0.2646,51
8.264,159,9.1545,-2.936,-9.4727,-0.0564,0.0744,-0.0248,88,7.468,144,5.1113,-1.3438,-17.7401,-0.0657,0.0249,0.4468,51
8.316,160,9.3067,-2.7918,-9.5481,-0.0128,0.036,-0.0328,88,7.52,145,4.9688,-1.3672,-17.813,-0.1601,0.0405,0.58,51
8.368,161,9.2876,-2.7955,-9.4848,-0.0563,0.0255,-0.0252,88,7.572,146,4.8419,-1.3001,-17.9395,-0.2174,0.0515,0.7018,51
8.42,162,9.2749,-2.7733,-9.5567,-0.0273,-0.0147,-0.041,88,7.623,147,4.7334,-1.1143,-18.0121,-0.2577,0.0488,0.7688,51
8.472,163,9.2474,-2.8349,-9.6148,0.0303,-0.046,-0.0394,88,7.675,148,4.6888,-1.0153,-17.9777,-0.279,0.0316,0.75,51
8.523,164,9.2829,-2.7322,-9.6154,0.0919,-0.0664,-0.0078,88,7.727,149,4.6414,-0.9116,-17.9705,-0.2506,0.0191,0.6519,51
8.575,165,9.2579,-2.8202,-9.5748,0.0425,-0.0655,-0.0092,88,7.779,150,4.614,-0.854,-17.9476,-0.1815,0.0166,0.5152,51
8.627,166,9.2688,-2.8328,-9.6126,0.0057,-0.075,-0.0198,88,7.831,151,4.5931,-0.7967,-17.8969,-0.1334,0.0195,0.357,51
8.679,167,9.2558,-2.8265,-9.6934,-0.0036,-0.0748,-0.0262,88,7.883,152,4.6509,-0.9332,-17.8775,-0.1148,0.0355,0.1982,51
8.731,168,9.2491,-2.8346,-9.7447,0.024,-0.0742,-0.0208,88,7.934,153,4.8236,-1.1807,-17.8351,-0.0727,0.0602,0.0701,51
8.782,169,9.2551,-2.8265,-9.7214,0.0382,-0.0719,-0.0193,88,7.986,154,4.8636,-1.3869,-17.7528,0.0112,0.0955,-0.03,51
8.834,170,9.2505,-2.846,-9.7392,0.0511,-0.0965,-0.0375,88,8.038,155,4.7938,-1.6349,-17.6791,0.0628,0.1298,-0.1194,51
8.886,171,9.3232,-2.7177,-9.7951,0.0837,-0.1235,-0.0436,88,8.09,156,4.7329,-1.6426,-17.641,0.0875,0.1582,-0.1363,51
8.938,172,9.399,-2.5521,-9.9387,0.0155,-0.0553,-0.0158,88,8.142,157,4.8544,-1.5724,-17.7208,-0.0108,0.1506,-0.098,51
8.99,173,9.3895,-2.6409,-9.9205,0.0216,0.0076,0.0097,88,8.193,158,4.9622,-1.4941,-17.772,-0.0588,0.131,-0.037,51
9.041,174,9.3719,-2.6084,-9.8398,0.0139,0.0419,0.0334,88,8.245,159,5.0432,-1.3853,-17.7599,-0.0614,0.1071,0.0093,51
9.093,175,9.2615,-2.7214,-9.7293,0.0,0.0609,0.0351,88,8.297,160,5.0649,-1.3331,-17.7192,-0.0375,0.0828,0.0124,51
9.145,176,9.2756,-2.8034,-9.6801,-0.031,0.0262,0.0204,88,8.349,161,4.9432,-1.1858,-17.6672,-0.0113,0.0725,-0.0278,51
9.197,177,9.2763,-2.8367,-9.7123,-0.012,-0.0054,0.0022,88,8.401,162,4.9473,-1.1118,-17.6688,0.0183,0.0832,-0.0688,51
9.249,178,9.3344,-2.7765,-9.8081,0.0297,-0.0059,0.0132,88,8.452,163,5.0503,-1.1233,-17.678,0.0304,0.0927,-0.0845,51
9.3,179,9.264,-2.7795,-9.7465,0.04,0.0315,0.0232,88,8.504,164,5.1785,-1.2323,-17.6832,0.0014,0.0704,-0.0898,51
9.352,180,9.2157,-2.7992,-9.5919,0.042,0.0029,0.0205,88,8.556,165,5.268,-1.3188,-17.7427,-0.003,0.0397,-0.0939,51
9.404,181,9.2075,-2.857,-9.6352,0.0162,-0.0275,0.0082,88,8.608,166,5.3214,-1.327,-17.8086,-0.0261,-0.0118,-0.085,51
9.456,182,9.2782,-2.7613,-9.7391,0.0272,-0.0466,0.0043,88,8.66,167,5.2044,-1.3813,-17.7352,0.0244,-0.0502,-0.0745,51
9.508,183,9.2949,-2.7517,-9.8252,0.0478,-0.024,0.0127,88,8.711,168,5.0547,-1.2587,-17.5689,0.0769,-0.0472,-0.0831,51
9.559,184,9.272,-2.7533,-9.7547,0.0325,0.0086,0.0244,88,8.763,169,4.9892,-1.2529,-17.4154,0.0501,-0.0245,-0.1034,51
9.611,185,9.2525,-2.7938,-9.7208,0.0072,0.012,0.0201,88,8.815,170,4.967,-1.2324,-17.4557,0.0287,0.0242,-0.1058,51
9.663,186,9.2647,-2.7627,-9.7501,-0.018,0.0126,0.0127,88,8.867,171,5.0411,-1.1603,-17.5575,-0.0129,0.0428,-0.0843,51
9.715,187,9.2063,-2.7897,-9.7167,-0.0432,0.0811,0.018,88,8.919,172,5.2043,-1.0902,-17.6561,-0.0533,0.0311,-0.0516,51
9.766,188,9.2476,-2.8376,-9.72,-0.0698,0.0655,0.0055,88,8.97,173,5.3778,-1.0473,-17.6561,-0.049,0.0088,-0.0415,51
9.818,189,9.2559,-2.8685,-9.7709,-0.0756,0.0477,-0.0054,88,9.022,174,5.5085,-1.0768,-17.5605,-0.0006,-0.016,-0.047,51
