right_leg_timestamp,right_leg_index,right_leg_accel_x,right_leg_accel_y,right_leg_accel_z,right_leg_gyro_x,right_leg_gyro_y,right_leg_gyro_z,right_leg_battery_percentage,left_leg_timestamp,left_leg_index,left_leg_accel_x,left_leg_accel_y,left_leg_accel_z,left_leg_gyro_x,left_leg_gyro_y,left_leg_gyro_z,left_leg_battery_percentage
0.012,0,9.5756,-0.1314,-9.9524,0.1818,-0.7081,-0.3737,70,0.048,0,8.7543,-0.5184,-11.1434,0.084,0.1071,-0.1664,40
0.063,1,10.0911,-0.0762,-10.5512,0.0765,-1.0006,-0.3986,70,0.101,1,8.7633,-0.3398,-10.8521,0.1533,0.0978,-0.1366,40
0.115,2,10.0705,-0.1927,-11.4401,-0.172,-1.0572,-0.3949,70,0.152,2,9.0405,-0.1155,-10.7146,0.0141,0.0569,-0.0854,40
0.167,3,9.7784,-0.0574,-12.1041,-0.0947,-0.9356,-0.2535,70,0.204,3,9.0578,-0.1388,-10.7368,0.0199,0.0289,-0.053,40
0.219,4,9.0942,-0.2803,-12.1522,0.2056,-0.6652,-0.0857,70,0.256,4,9.0062,-0.2053,-10.7994,-0.03,0.0455,-0.0381,40
0.27,5,8.8281,0.1321,-12.1775,0.6198,-0.2512,0.1506,70,0.308,5,9.0428,-0.1294,-10.7474,0.0011,0.0756,-0.0518,40
0.322,6,9.0752,0.4588,-12.2197,0.3913,0.2297,0.4164,70,0.359,6,9.0325,-0.0741,-10.7312,-0.0145,0.1381,-0.066,40
0.374,7,9.925,-1.4045,-9.996,-0.3587,0.5586,0.2921,70,0.411,7,9.0484,-0.0883,-10.6563,-0.0268,0.2065,-0.068,40
0.426,8,10.3491,0.0928,-10.5526,0.2114,0.4379,0.2271,70,0.463,8,8.9911,0.0997,-10.3128,-0.0646,0.2352,-0.0703,40
0.478,9,9.7951,0.1161,-11.0184,-0.2885,0.3954,0.1742,70,0.515,9,8.9692,0.1084,-10.0919,-0.0803,0.1953,-0.0427,40
0.529,10,10.06,-0.1658,-11.3373,-0.0003,0.2392,0.1413,70,0.567,10,8.9398,0.1282,-9.8876,0.0015,0.0875,0.0034,40
0.581,11,9.8477,-0.1004,-11.4038,-0.0224,0.1981,0.1113,70,0.618,11,8.8592,0.0214,-9.7229,0.0007,-0.0593,0.0348,40
0.633,12,9.8616,0.2834,-11.8815,0.0705,0.2445,0.0899,70,0.67,12,8.7644,-0.0219,-10.0749,0.0311,-0.1605,0.0357,40
0.685,13,9.8823,0.24,-11.9792,0.0536,0.3487,0.098,70,0.722,13,8.8281,-0.0104,-10.3078,0.1393,-0.1888,-0.0202,40
0.737,14,9.759,0.1382,-11.7986,0.0681,0.4427,0.0947,70,0.774,14,8.9503,-0.0613,-10.3071,0.0707,-0.2185,-0.0669,40
0.788,15,9.7142,-0.0013,-11.4896,0.0023,0.4678,0.0844,70,0.825,15,9.0726,0.285,-10.4916,0.0427,-0.2752,-0.0442,40
0.84,16,9.4085,-0.0483,-11.1996,-0.0147,0.4411,0.0404,70,0.877,16,9.1995,-0.1679,-10.9004,0.0726,-0.2382,-0.0148,40
0.892,17,9.4701,-0.1785,-10.6803,-0.1614,0.0501,-0.0986,70,0.929,17,9.0817,0.0497,-11.042,0.061,-0.1611,-0.0146,40
0.943,18,11.1304,-0.5894,-13.148,-0.3477,-0.6368,-0.2937,70,0.981,18,9.0407,-0.0075,-11.1172,0.0343,-0.0685,-0.0286,40
0.995,19,11.9114,-0.3368,-16.2482,-0.7431,-1.1382,-0.5227,70,1.032,19,9.003,0.0641,-10.9621,0.0528,-0.01,-0.0407,40
1.047,20,11.0626,0.2252,-16.7081,-0.5242,-1.5041,-0.8234,70,1.084,20,8.9527,0.2514,-10.7727,0.0914,-0.0232,-0.0351,40
1.099,21,10.21,0.8625,-16.3408,-0.2719,-1.7711,-0.9395,70,1.136,21,9.2135,-0.0031,-10.85,0.0401,-0.0612,-0.0186,40
1.151,22,8.8931,1.2238,-16.0573,0.0242,-1.9661,-0.8839,70,1.188,22,9.0791,0.1037,-10.894,0.0529,-0.074,-0.0136,40
1.203,23,7.1303,1.4763,-15.7624,0.1226,-2.1083,-0.7177,70,1.239,23,8.9852,0.0793,-10.9961,0.0294,-0.0666,-0.0211,40
1.255,24,5.3686,1.6412,-15.3868,0.0283,-2.0627,-0.5646,70,1.291,24,8.9212,0.1899,-11.0179,0.0067,-0.0314,-0.0325,40
1.306,25,3.9619,1.7826,-15.1424,0.0306,-1.8506,-0.4656,70,1.343,25,8.9093,0.1621,-11.0146,0.0143,-0.0099,-0.0342,40
1.358,26,2.8274,1.8069,-15.0576,-0.01,-1.4677,-0.4101,70,1.395,26,8.7436,0.4809,-10.8546,-0.0287,0.0121,-0.0321,40
1.41,27,1.9856,1.8305,-15.426,-0.0254,-1.0108,-0.3641,70,1.447,27,9.0657,0.1871,-10.8914,-0.1768,-0.0228,-0.0138,40
1.462,28,1.5827,1.9039,-16.2616,-0.0323,-0.5504,-0.3275,70,1.498,28,8.998,0.3007,-10.9801,-0.2277,-0.0408,-0.0032,40
1.514,29,1.2885,1.9197,-17.545,0.0153,-0.2116,-0.3038,70,1.55,29,9.0982,-0.0966,-11.1018,-0.1357,-0.035,-0.0012,40
1.565,30,1.1599,1.9626,-18.7228,0.0678,-0.0563,-0.2833,70,1.602,30,9.16,0.1402,-11.0889,-0.0183,-0.0315,-0.0135,40
1.617,31,1.0686,1.9181,-19.3772,0.0921,-0.0594,-0.2454,70,1.654,31,9.0663,0.1622,-11.0837,0.059,-0.0324,0.0018,40
1.669,32,0.9254,1.8927,-19.5584,0.083,-0.1224,-0.1852,70,1.706,32,9.0359,0.2321,-11.1436,0.0528,-0.0226,0.0216,40
1.721,33,0.8359,1.8792,-19.4059,0.0812,-0.1745,-0.0992,70,1.757,33,9.0394,0.1674,-11.112,0.074,-0.0107,0.0297,40
1.773,34,0.7721,1.8769,-19.1803,0.0608,-0.1761,0.0026,70,1.809,34,8.8037,0.8313,-10.6815,0.0101,0.0387,0.0251,40
1.824,35,0.6465,1.9102,-19.0018,0.0339,-0.118,0.0992,70,1.861,35,9.1518,0.2585,-10.9314,-0.3062,-0.0021,0.0045,40
1.876,36,0.6603,1.9845,-19.057,0.0304,-0.0343,0.1524,70,1.913,36,8.8767,0.0988,-10.9781,-0.3094,0.0107,-0.0115,40
1.928,37,0.7158,2.0615,-19.2645,0.0646,0.0473,0.1582,70,1.965,37,8.7849,0.1113,-10.8244,-0.2541,-0.028,0.0015,40
1.979,38,0.6708,2.0285,-19.5018,0.0566,0.0836,0.1412,70,2.016,38,8.8281,0.1393,-10.823,-0.2499,-0.087,0.0027,40
2.031,39,0.7047,2.0068,-19.4719,0.0593,0.0321,0.0954,70,2.068,39,8.9107,-0.0105,-11.0301,-0.0633,-0.1172,-0.0153,40
2.083,40,0.3012,1.9056,-19.235,-0.0493,0.0126,0.039,70,2.12,40,8.9737,0.1398,-11.1804,0.0873,-0.0607,-0.0386,40
2.135,41,0.3228,1.9586,-18.7463,-0.1831,0.0454,-0.0301,70,2.172,41,8.8699,0.4953,-11.0244,0.2698,-0.0513,-0.0346,40
2.187,42,0.3874,2.0771,-18.7894,-0.151,0.1515,-0.1059,70,2.223,42,8.8925,0.5019,-11.0511,0.0932,-0.0605,0.0063,40
2.238,43,0.75,2.3279,-19.0578,-0.0796,0.2515,-0.1424,70,2.275,43,8.826,0.4487,-11.2366,0.0042,-0.0447,-0.0017,40
2.29,44,1.2065,2.4966,-19.6585,-0.0679,0.2837,-0.152,70,2.327,44,8.8941,0.0955,-11.3879,0.0566,0.0057,-0.0218,40
2.342,45,1.5391,2.5155,-20.0034,-0.0704,0.2261,-0.1341,70,2.379,45,8.9576,0.3507,-11.2992,0.0686,0.0368,-0.0292,40
2.394,46,1.6449,2.4514,-20.1203,-0.0962,0.1535,-0.0948,70,2.431,46,8.9073,0.2526,-11.2118,0.186,0.0221,-0.0282,40
2.445,47,1.5829,2.4699,-19.8441,-0.0872,0.0805,-0.0398,70,2.482,47,8.8953,0.4453,-11.2015,0.1552,-0.0077,-0.0103,40
2.497,48,1.4926,2.4756,-19.5477,-0.1059,0.0173,0.0221,70,2.534,48,8.9177,0.3856,-11.2546,0.1602,-0.0212,0.0055,40
2.549,49,1.4222,2.41,-19.3504,-0.1136,-0.0022,0.0752,70,2.586,49,8.9148,0.3337,-11.2997,0.1238,-0.0103,0.0043,40
2.601,50,1.506,2.4004,-19.2848,-0.0451,0.0034,0.0948,70,2.638,50,8.8924,0.3964,-11.241,0.1072,-0.001,0.0035,40
2.653,51,1.4897,2.4986,-19.3892,0.0068,0.0062,0.1094,70,2.689,51,8.8055,0.3763,-11.2842,0.0427,0.0115,-0.0048,40
2.705,52,1.4,2.5031,-19.4616,0.0039,-0.001,0.1143,70,2.741,52,8.7905,0.3803,-11.2835,0.0544,0.0093,-0.0045,40
2.756,53,1.31,2.5676,-19.3495,0.0065,-0.0163,0.1157,70,2.793,53,8.7646,0.4026,-11.238,0.0219,0.0194,-0.0024,40
2.808,54,1.2394,2.5893,-19.2212,-0.0108,-0.0132,0.1153,70,2.845,54,8.634,0.6023,-11.3451,-0.1428,0.0331,-0.0217,40
2.86,55,1.2427,2.5991,-19.1752,-0.011,0.0065,0.0922,70,2.897,55,8.6491,0.364,-11.2426,-0.2006,0.0455,-0.0374,40
2.912,56,1.2416,2.6097,-19.2154,-0.002,0.02,0.0519,70,2.948,56,8.6615,0.5984,-11.0139,-0.0265,-0.0016,-0.0218,40
2.963,57,1.2805,2.5959,-19.3702,0.003,0.0233,0.01,70,3.0,57,8.737,0.4087,-11.1419,0.013,-0.0236,0.0028,40
3.015,58,1.3698,2.5369,-19.3676,0.0398,-0.005,-0.0204,70,3.052,58,8.782,0.4309,-11.3023,0.0292,-0.0083,0.0021,40
3.067,59,1.2698,2.4177,-19.3463,0.0208,-0.0357,-0.0206,70,3.104,59,8.8066,0.3939,-11.2265,0.0429,0.0218,-0.009,40
3.119,60,1.2318,2.3054,-19.2713,-0.0104,-0.0417,0.0019,70,3.156,60,8.8397,0.3985,-11.1307,0.07,0.0181,-0.014,40
3.171,61,1.2722,2.239,-19.2954,-0.0216,-0.0119,0.0242,70,3.207,61,8.8804,0.4016,-11.2236,0.0392,0.0028,-0.0098,40
3.222,62,1.3794,2.2937,-19.3048,-0.0053,0.0125,0.0487,70,3.259,62,8.9422,0.2698,-11.3129,0.0576,0.0169,-0.0169,40
3.274,63,1.4032,2.3136,-19.3713,0.0054,0.0203,0.0717,70,3.311,63,8.9526,0.313,-11.2661,0.0702,0.0443,-0.0254,40
3.326,64,1.3696,2.3021,-19.4248,0.0106,0.0137,0.0766,70,3.363,64,8.9434,0.3527,-11.1974,0.1098,0.0589,-0.0267,40
3.378,65,1.372,2.3703,-19.4176,0.0372,0.001,0.0775,70,3.415,65,8.9145,0.3992,-11.1218,0.1226,0.0583,-0.0216,40
3.429,66,1.3839,2.4358,-19.3646,0.0234,-0.0072,0.0763,70,3.466,66,8.8682,0.5003,-11.1215,0.1138,0.0576,-0.0147,40
3.481,67,1.3905,2.4452,-19.3232,0.0263,-0.006,0.0668,70,3.518,67,8.8879,0.3689,-11.0758,0.1236,0.0659,-0.0144,40
3.533,68,1.3636,2.4835,-19.3078,0.0215,0.008,0.0536,70,3.57,68,8.8388,0.5427,-10.9884,0.1297,0.062,-0.0105,40
3.585,69,1.352,2.5003,-19.3361,0.0058,0.0216,0.0406,70,3.621,69,8.7532,0.7061,-10.9009,0.087,0.0683,-0.0068,40
3.637,70,1.3701,2.4713,-19.3793,0.0153,0.0257,0.0227,70,3.673,70,9.092,0.0819,-10.8581,-0.0276,0.0277,0.0044,40
3.688,71,1.3678,2.4508,-19.3737,0.0163,0.0271,0.0033,70,3.725,71,8.7333,0.4482,-10.9925,-0.0382,0.0421,-0.023,40
3.74,72,1.3455,2.43,-19.3341,0.0106,0.0265,-0.0113,70,3.777,72,8.8575,0.0423,-11.0884,-0.0231,0.0457,-0.0297,40
3.792,73,1.3479,2.3948,-19.3067,0.01,0.0334,-0.0215,70,3.829,73,8.8762,0.1577,-10.9679,-0.0303,0.0156,-0.0036,40
3.844,74,1.4394,2.4073,-19.2936,0.0127,0.0307,-0.0379,70,3.88,74,8.8568,0.269,-11.0525,0.0189,-0.0168,0.0235,40
3.896,75,1.4643,2.3399,-19.2708,0.0149,0.0202,-0.0457,70,3.932,75,8.8481,0.2509,-11.0693,0.0025,0.0012,0.0208,40
3.948,76,1.4689,2.2211,-19.2922,0.0234,0.0168,-0.0421,70,3.984,76,8.9303,0.2913,-10.9217,0.0041,0.0139,0.0161,40
3.999,77,1.519,2.1546,-19.3753,0.0121,0.0315,-0.0113,70,4.036,77,8.9324,0.2994,-10.9015,0.0007,0.0033,0.0192,40
4.051,78,1.5949,2.1521,-19.4565,0.036,0.0395,0.0316,70,4.087,78,8.9702,0.2709,-10.9945,-0.0118,0.0009,0.0195,40
4.103,79,1.6937,2.2359,-19.4021,0.0343,0.0307,0.0755,70,4.139,79,9.1432,-0.0334,-11.025,-0.0205,0.0115,0.0067,40
4.155,80,1.7027,2.2764,-19.3319,0.0149,0.0174,0.1162,70,4.191,80,8.9634,0.3217,-10.8224,-0.0096,0.0537,-0.0108,40
4.206,81,1.6129,2.2406,-19.2985,0.0165,0.0163,0.122,70,4.243,81,8.8575,0.0898,-11.057,-0.2458,0.0566,-0.0291,40
4.258,82,1.6171,2.2636,-19.2934,0.0309,0.0243,0.0975,70,4.295,82,8.6369,0.8682,-10.8665,-0.0807,-0.0235,-0.0282,40
4.31,83,1.6402,2.2939,-19.3269,0.032,0.0207,0.0777,70,4.346,83,8.6759,0.3158,-11.0777,-0.1262,-0.0304,0.0025,40
4.362,84,1.5438,2.2724,-19.3792,0.0228,0.0107,0.0698,70,4.398,84,8.7088,0.4401,-11.0529,-0.0555,-0.0119,-0.0049,40
4.414,85,1.5828,2.2547,-19.3329,0.0124,-0.0187,0.0558,70,4.45,85,8.7076,0.4289,-11.083,0.0049,0.017,-0.0129,40
4.465,86,1.4224,2.2156,-19.2816,0.0052,-0.0277,0.0432,70,4.502,86,8.7487,0.4544,-10.9432,0.0224,0.0535,-0.0156,40
4.517,87,1.5261,2.1482,-19.2965,-0.0003,-0.0226,0.0238,70,4.554,87,8.8135,0.3634,-10.8064,0.0538,0.0458,0.0013,40
4.569,88,1.7006,2.1833,-19.3222,-0.0131,-0.0077,0.0157,70,4.605,88,8.816,0.3595,-10.807,0.025,0.0304,0.0225,40
4.621,89,1.7653,2.2096,-19.366,-0.0049,-0.0075,0.028,70,4.657,89,8.6092,0.7449,-10.7041,-0.0237,0.0318,0.0111,40
4.672,90,1.7843,2.1366,-19.3511,-0.007,-0.0017,0.0351,70,4.709,90,8.5579,0.463,-10.767,-0.2592,0.0094,-0.0182,40
4.724,91,1.7362,2.0356,-19.365,0.0283,0.0135,0.0384,70,4.761,91,8.5589,0.7265,-10.7163,-0.1852,-0.0401,-0.0197,40
4.776,92,1.7473,2.0657,-19.3551,0.0484,0.031,0.0491,70,4.812,92,8.7313,0.3744,-10.9457,-0.3036,-0.0477,0.0077,40
4.828,93,1.7839,2.1104,-19.4055,0.0916,0.0287,0.0461,70,4.864,93,8.8059,0.3202,-10.8806,-0.1511,-0.0489,0.0171,40
4.88,94,1.7898,2.1526,-19.3063,0.0999,0.0074,0.0372,70,4.916,94,8.7793,0.2516,-10.9962,-0.1533,-0.0355,0.0113,40
4.931,95,1.6056,2.1133,-19.2607,0.0438,0.0018,0.0452,70,4.968,95,8.8214,0.3856,-10.8986,-0.128,-0.0122,-0.0032,40
4.983,96,1.6226,2.1037,-19.3182,-0.013,0.0137,0.0885,70,5.02,96,8.9077,0.2125,-10.7766,-0.1725,-0.0256,-0.0037,40
5.035,97,1.7118,2.115,-19.5162,-0.0236,0.0183,0.1247,70,5.071,97,8.9006,0.2397,-10.8572,-0.0598,-0.0436,0.005,40
5.087,98,1.7618,2.1725,-19.5396,-0.0691,-0.0215,0.15,70,5.123,98,8.925,0.4461,-10.9235,0.0964,-0.0364,-0.0003,40
5.139,99,1.6967,2.0963,-19.4966,-0.066,-0.0689,0.158,70,5.175,99,8.9449,0.3554,-10.9656,0.0372,-0.0156,-0.006,40
5.19,100,1.5671,2.0388,-19.3619,-0.0796,-0.087,0.1485,70,5.227,100,8.9872,0.4114,-10.9174,0.0436,-0.0108,-0.0135,40
5.242,101,1.4634,1.9947,-19.2381,-0.0854,-0.0731,0.137,70,5.278,101,8.9927,0.3322,-10.965,0.0715,-0.0051,-0.0175,40
5.294,102,1.5224,2.0231,-19.234,-0.0488,-0.0489,0.1099,70,5.33,102,8.9629,0.3972,-10.9936,0.0851,0.0055,-0.0182,40
5.346,103,1.66,2.0757,-19.3057,-0.0301,-0.0294,0.0756,70,5.382,103,8.9477,0.37,-11.0124,0.0698,0.0361,-0.0232,40
5.398,104,1.7001,2.1377,-19.3474,-0.0122,-0.0261,0.0434,70,5.434,104,8.9623,0.349,-10.9489,0.0644,0.0541,-0.029,40
5.449,105,1.6819,2.1438,-19.3526,-0.0033,-0.0213,0.024,70,5.486,105,8.9459,0.4009,-10.8645,0.0382,0.0526,-0.0272,40
5.501,106,1.6751,2.1329,-19.3303,-0.0034,-0.0099,0.0119,70,5.537,106,8.9092,0.5747,-10.7837,0.0041,0.0308,-0.0233,40
5.553,107,1.6369,2.1104,-19.3081,0.0174,0.0029,0.0059,70,5.589,107,9.0512,0.3661,-10.8574,-0.1266,0.0316,-0.0221,40
5.605,108,1.6277,2.1543,-19.2711,-0.0015,0.0189,0.0026,70,5.641,108,9.0375,0.4027,-10.811,-0.1369,0.0377,-0.0248,40
5.657,109,1.5941,2.2713,-19.1265,-0.1139,0.061,0.0112,70,5.692,109,9.0447,0.4529,-10.7645,-0.1355,0.04,-0.0243,40
5.708,110,1.7117,2.4433,-19.1972,-0.2397,0.122,0.0073,70,5.744,110,9.1095,0.3208,-10.8064,-0.0916,0.0168,-0.0218,40
5.76,111,1.8728,2.6217,-19.3013,-0.2824,0.1594,-0.0309,70,5.796,111,9.1492,0.2686,-10.8066,0.0712,-0.0072,-0.017,40
5.812,112,1.9446,2.7798,-19.3875,-0.2903,0.1464,-0.0794,70,5.848,112,9.1407,0.3996,-10.7555,0.1153,-0.0252,-0.0026,40
5.863,113,1.8882,2.8383,-19.3791,-0.2936,0.1102,-0.1177,70,5.9,113,9.0824,0.3774,-10.816,0.1053,-0.0333,0.0058,40
5.915,114,1.8676,2.8695,-19.2328,-0.2118,0.0692,-0.1342,70,5.951,114,9.0701,0.3981,-10.8777,0.0719,-0.0216,0.0061,40
5.967,115,1.8357,2.9284,-19.0616,-0.1721,0.0501,-0.1272,70,6.003,115,9.0886,0.4374,-10.8469,0.0522,-0.0074,-0.0015,40
6.019,116,1.9044,2.9845,-18.9819,-0.1475,0.0515,-0.1094,70,6.055,116,8.9927,0.5082,-10.8212,0.0107,0.0054,-0.0074,40
6.071,117,2.0361,3.139,-18.9603,-0.1064,0.0542,-0.0954,70,6.107,117,9.1553,0.3269,-10.8147,-0.0112,0.0225,-0.0089,40
6.123,118,2.1123,3.235,-18.9671,-0.0731,0.0535,-0.0751,70,6.159,118,9.1202,0.394,-10.769,0.0157,0.0326,-0.0085,40
6.174,119,2.1481,3.3078,-18.9625,-0.0741,0.0464,-0.0667,70,6.21,119,9.0701,0.411,-10.7256,0.0548,0.0324,-0.0087,40
6.226,120,2.0917,3.305,-18.9359,-0.0651,0.0426,-0.0627,70,6.262,120,9.0769,0.4363,-10.6846,0.0419,0.0221,-0.0057,40
6.278,121,2.0248,3.2935,-18.8908,-0.0395,0.0417,-0.0688,70,6.314,121,9.0223,0.4947,-10.6768,0.0566,0.0159,-0.0053,40
6.33,122,1.9394,3.2406,-18.9038,-0.0208,0.0425,-0.0679,70,6.366,122,8.9851,0.5497,-10.68,0.0454,0.0117,-0.0027,40
6.381,123,1.9089,3.3037,-18.9259,0.0119,0.0384,-0.0578,70,6.417,123,8.981,0.5471,-10.6996,-0.0262,0.0107,-0.0064,40
6.433,124,1.9097,3.3014,-18.9751,0.0111,0.0334,-0.0536,70,6.469,124,9.1755,0.2423,-10.7662,-0.0836,0.0072,-0.0121,40
6.485,125,1.9095,3.3347,-18.9873,0.0152,0.0222,-0.0472,70,6.521,125,9.1715,0.3914,-10.7003,-0.0262,0.0089,-0.0157,40
6.537,126,1.9118,3.372,-18.9791,0.0182,0.0066,-0.0412,70,6.573,126,9.1382,0.4045,-10.6193,0.0419,0.0145,-0.0105,40
6.589,127,1.9739,3.3923,-18.9758,0.0039,-0.0031,-0.0403,70,6.625,127,9.0909,0.4701,-10.6412,0.0224,-0.0001,0.0027,40
6.64,128,2.0173,3.4155,-18.9212,-0.0075,-0.0167,-0.0422,70,6.676,128,9.0337,0.4729,-10.7006,0.0014,-0.0055,0.0006,40
6.692,129,1.98,3.3612,-18.9024,-0.0263,-0.0126,-0.0299,70,6.728,129,9.0465,0.3446,-10.8068,-0.0393,0.011,-0.0144,40
6.744,130,2.0077,3.3149,-18.9232,-0.0133,0.0031,-0.0254,70,6.78,130,9.0281,0.4617,-10.7023,0.0048,0.0084,-0.0169,40
6.796,131,2.0281,3.3162,-18.9456,-0.0005,0.0188,-0.0276,70,6.832,131,9.0305,0.5106,-10.6136,0.0399,-0.0116,-0.0021,40
6.847,132,2.0651,3.3572,-18.963,-0.0011,0.0235,-0.0302,70,6.883,132,9.0017,0.5329,-10.6423,0.0176,-0.0385,0.0177,40
6.899,133,2.0837,3.397,-18.9334,0.0069,0.0161,-0.0231,70,6.935,133,9.0102,0.5077,-10.7524,0.02,-0.0471,0.0297,40
6.951,134,2.0666,3.4332,-18.8973,-0.008,0.0115,-0.0066,70,6.987,134,9.0213,0.4123,-10.8113,0.0358,-0.0267,0.0321,40
7.003,135,2.0697,3.4153,-18.9178,-0.0032,0.0202,-0.0047,70,7.039,135,8.9891,0.4578,-10.7635,0.042,0.0019,0.0281,40
7.055,136,2.0798,3.4442,-18.9587,0.0115,0.0301,-0.017,70,7.091,136,8.8569,0.5117,-10.7518,-0.0244,0.0151,0.0188,40
7.107,137,2.0574,3.4925,-18.9582,0.0197,0.027,-0.0232,70,7.142,137,8.7958,0.5269,-10.7278,0.0076,0.0167,0.0135,40
7.159,138,2.067,3.5329,-18.8705,0.0006,0.0272,-0.0221,70,7.194,138,8.6475,0.7206,-10.5896,-0.0491,0.0281,0.0076,40
7.21,139,2.0513,3.5133,-18.7987,-0.0012,0.037,-0.0147,70,7.246,139,8.5482,0.698,-10.5916,-0.0062,0.032,0.0065,40
7.262,140,2.0794,3.4973,-18.7719,0.0024,0.0541,-0.018,70,7.298,140,8.5519,0.8549,-10.7122,-0.1494,0.0501,-0.0035,40
7.314,141,2.079,3.465,-18.8382,0.0089,0.0643,-0.0363,70,7.349,141,8.6955,0.599,-10.7367,-0.2891,0.092,-0.015,40
7.366,142,2.1535,3.3925,-18.9783,0.0311,0.057,-0.0592,70,7.401,142,8.7154,0.5163,-10.6395,-0.2662,0.0717,-0.0163,40
7.417,143,2.172,3.3655,-19.0016,0.0561,0.0343,-0.0654,70,7.453,143,8.7827,0.5741,-10.4721,-0.2144,0.0097,-0.0036,40
7.469,144,2.1845,3.3072,-18.9103,0.0339,0.0177,-0.0463,70,7.505,144,8.7959,0.3228,-10.5469,-0.2218,-0.0516,0.0028,40
7.521,145,2.1671,3.2582,-18.8201,0.029,0.0124,-0.0211,70,7.557,145,8.9113,0.0678,-10.593,0.1196,-0.1074,-0.0014,40
7.573,146,2.0728,3.2142,-18.8315,0.0283,0.0241,0.0017,70,7.608,146,8.9792,0.529,-10.6959,0.1829,-0.1215,-0.0034,40
7.625,147,2.0187,3.1988,-18.9356,0.0303,0.0379,0.0133,70,7.66,147,8.9725,0.4307,-10.848,0.1783,-0.112,0.001,40
7.676,148,2.1492,3.2587,-19.042,0.0291,0.0258,0.0098,70,7.712,148,8.9163,0.4893,-10.9074,0.1476,-0.0875,0.0023,40
7.728,149,2.2377,3.3264,-19.0402,0.0189,-0.0012,0.0212,70,7.763,149,8.9171,0.4567,-10.8997,0.1329,-0.0712,0.0005,40
7.78,150,2.2149,3.3285,-18.997,-0.0244,-0.0202,0.0414,70,7.815,150,8.8657,0.5107,-10.9555,0.0658,-0.0459,-0.0038,40
7.832,151,2.2337,3.3668,-18.8898,-0.04,-0.0185,0.0432,70,7.867,151,8.8887,0.5099,-10.9432,0.1046,-0.0485,-0.0017,40
7.883,152,2.2701,3.4599,-18.8027,-0.0325,0.0009,0.0322,70,7.919,152,8.8866,0.4212,-11.0494,0.0811,-0.0369,0.0045,40
7.935,153,2.2802,3.5282,-18.7669,-0.0331,0.0236,0.0216,70,7.971,153,8.885,0.4628,-11.0567,0.0989,-0.0231,0.0056,40
7.987,154,2.3212,3.5396,-18.7977,-0.0441,0.0462,0.0044,70,8.022,154,8.8436,0.4562,-11.0407,0.0804,-0.0025,0.0091,40
8.039,155,2.3178,3.5256,-18.8198,-0.0546,0.0641,-0.0193,70,8.074,155,8.8023,0.5616,-10.9136,0.0722,-0.0094,0.0076,40
8.091,156,2.2848,3.534,-18.8266,-0.1335,0.0748,-0.0259,70,8.126,156,8.8805,0.3261,-11.0228,0.0496,-0.0169,0.0115,40
8.142,157,2.3374,3.5761,-18.8075,-0.2132,0.0753,-0.0139,70,8.178,157,8.9476,0.343,-11.1195,0.0363,0.0216,-0.0033,40
8.194,158,2.2518,3.5957,-18.8908,-0.1939,0.0588,0.0011,70,8.229,158,8.6144,0.7383,-10.9016,-0.0297,0.0789,-0.0293,40
8.246,159,2.15,3.68,-18.8784,-0.0865,0.0111,-0.0022,70,8.281,159,9.0762,-0.1332,-10.8444,-0.1538,0.0132,-0.0241,40
8.298,160,2.0934,3.7397,-18.7991,-0.0609,-0.0368,-0.0108,70,8.333,160,9.1488,0.1397,-10.941,-0.2021,-0.0599,0.0144,40
8.35,161,2.1905,3.8594,-18.7038,-0.0384,-0.074,-0.0124,70,8.385,161,9.1869,-0.0812,-11.1484,-0.0607,-0.1036,0.0398,40
8.402,162,2.3129,3.9059,-18.7033,-0.0335,-0.0895,-0.0107,70,8.437,162,9.115,-0.0046,-11.3097,-0.0577,-0.087,0.0406,40
8.453,163,2.3475,3.9197,-18.7657,-0.0408,-0.1008,-0.0214,70,8.488,163,9.0674,0.1957,-11.2176,0.0539,-0.0507,0.0304,40
8.505,164,2.2707,3.841,-18.802,-0.0318,-0.0884,-0.0528,70,8.54,164,8.9517,0.3797,-11.0832,0.0545,-0.0457,0.0381,40
8.557,165,2.2713,3.8036,-18.7121,-0.0137,-0.0543,-0.0854,70,8.592,165,8.7094,0.731,-10.9219,-0.0052,-0.0682,0.0429,40
8.609,166,2.2628,3.8146,-18.5734,0.0014,-0.0223,-0.0758,70,8.644,166,9.2429,0.0267,-11.1144,0.0624,-0.0624,0.0402,40
8.66,167,2.2,3.8683,-18.551,-0.0293,-0.0038,-0.0263,70,8.695,167,9.2661,0.3492,-11.1875,0.0066,-0.056,0.0307,40
8.712,168,2.2012,3.8854,-18.6069,-0.0455,0.0188,0.0176,70,8.747,168,9.0373,0.4644,-11.1928,-0.0135,-0.027,0.0223,40
8.764,169,2.2149,3.9698,-18.6777,0.008,0.0201,0.0156,70,8.799,169,9.0021,0.3237,-11.1642,-0.0304,-0.0242,0.0168,40
8.816,170,2.2653,4.0267,-18.6067,0.0136,-0.0051,-0.0084,70,8.851,170,8.9929,0.3251,-11.2633,-0.1089,-0.0215,0.013,40
8.868,171,2.1925,3.9521,-18.6067,-0.0305,-0.0049,-0.003,70,8.903,171,9.008,0.4177,-11.1573,-0.1319,-0.0279,0.011,40
8.919,172,2.2054,3.8824,-18.7136,-0.0211,0.0229,-0.0134,70,8.954,172,8.9399,0.2161,-11.268,-0.1255,-0.0529,0.0198,40
8.971,173,2.1355,3.885,-18.704,0.011,0.0388,-0.0226,70,9.006,173,8.8883,0.1085,-11.4116,0.0031,-0.0506,0.0074,40
9.023,174,2.0645,3.8769,-18.6752,-0.0142,0.045,-0.0162,70,9.058,174,8.889,0.3149,-11.3953,0.1216,-0.0469,-0.008,40
9.075,175,2.0176,3.8477,-18.6758,-0.0043,0.0541,-0.0108,70,9.11,175,8.9526,0.3615,-11.4467,0.068,-0.0483,0.0054,40
9.126,176,1.9573,3.8192,-18.7354,0.0039,0.0704,-0.0024,70,9.162,176,8.9034,0.2137,-11.5433,0.0492,-0.0404,0.0207,40
9.178,177,2.0307,3.8669,-18.7677,-0.001,0.063,0.0154,70,9.213,177,8.8934,0.2092,-11.5917,0.0388,-0.0152,0.0243,40
9.23,178,2.0946,3.9357,-18.7841,-0.0063,0.0378,0.0317,70,9.265,178,8.8443,0.2473,-11.5827,0.0659,0.0273,0.0181,40
9.282,179,2.1689,3.9558,-18.7328,-0.0127,0.0126,0.042,70,9.317,179,8.6851,0.4213,-11.3232,-0.0079,0.073,-0.0023,40
9.334,180,2.1936,3.9932,-18.6185,-0.0287,0.0036,0.0519,70,9.369,180,9.0403,-0.0818,-11.3467,-0.0277,0.0362,-0.0247,40
9.385,181,2.2979,4.0689,-18.5667,-0.0536,0.0068,0.0886,70,9.42,181,8.9725,0.311,-11.2744,-0.0179,-0.0343,-0.0007,40
9.437,182,2.4286,4.1383,-18.5879,-0.0426,0.0134,0.0958,70,9.472,182,8.9356,0.1275,-11.5204,-0.0326,-0.0355,0.0126,40
9.489,183,2.4389,4.088,-18.5888,-0.0138,0.0128,0.0566,70,9.524,183,8.8387,0.162,-11.4625,-0.0002,-0.0198,0.0052,40
9.541,184,2.4132,4.0068,-18.4683,0.0142,-0.0074,0.0139,70,9.576,184,8.8227,0.4067,-11.3568,-0.0485,-0.0395,0.0142,40
9.593,185,2.4036,3.8302,-18.469,-0.0197,0.0071,0.0102,70,9.628,185,8.8473,0.3981,-11.4892,-0.1937,-0.0209,0.0181,40
9.644,186,2.562,3.7304,-18.5785,0.0131,0.0396,0.0078,70,9.679,186,8.8988,0.2436,-11.5501,-0.3491,0.0502,0.0044,40
9.696,187,2.6493,3.7271,-18.6172,0.0209,0.0597,0.0252,70,9.731,187,8.8965,0.4405,-11.3209,-0.2557,0.0497,-0.0197,40
9.748,188,2.5975,3.7592,-18.66,0.0003,0.0559,0.0636,70,9.783,188,8.9366,0.1162,-11.3448,-0.1429,0.0214,-0.0292,40
9.8,189,2.5078,3.7416,-18.664,0.0317,0.0505,0.0793,70,9.834,189,8.9123,0.3202,-11.3135,0.1969,-0.0077,-0.0446,40
9.852,190,2.3946,3.7917,-18.6544,0.0205,0.0404,0.0921,70,9.886,190,8.9358,0.3602,-11.3793,0.1627,-0.0289,-0.0193,40
9.903,191,2.3662,3.8486,-18.6269,-0.0055,0.022,0.1134,70,9.938,191,8.9649,0.3981,-11.3944,0.1667,-0.0547,0.0035,40
9.955,192,2.4301,3.8628,-18.6567,-0.0308,0.0084,0.1116,70,9.99,192,8.8809,0.4004,-11.4669,0.1086,-0.0588,0.0245,40
10.007,193,2.4907,3.8214,-18.603,-0.0405,0.0014,0.0968,70,10.042,193,8.7159,0.4533,-11.4418,0.0176,-0.018,0.0127,40
10.059,194,2.5411,3.8491,-18.5345,-0.0304,-0.0032,0.0798,70,10.093,194,9.017,0.0074,-11.4056,0.0512,-0.0253,0.0127,40
10.111,195,2.6863,3.9203,-18.52,-0.0326,0.0066,0.0809,70,10.145,195,9.0148,0.1842,-11.5027,0.0359,-0.0501,0.0287,40
10.162,196,2.8289,4.0784,-18.4916,-0.0539,0.0159,0.1032,70,10.197,196,9.0192,0.1801,-11.5809,0.0797,-0.0395,0.0307,40
10.214,197,2.8749,4.0667,-18.5098,-0.0667,0.0078,0.1195,70,10.249,197,8.9158,0.2253,-11.5883,0.0653,-0.0122,0.024,40
10.266,198,2.8171,3.9623,-18.4882,-0.0806,-0.0076,0.1078,70,10.301,198,8.8532,0.4346,-11.4449,0.0061,0.0152,0.0105,40
10.318,199,2.6986,3.8719,-18.4524,-0.0596,-0.0015,0.0909,70,10.352,199,9.0764,-0.0565,-11.4525,-0.1247,0.0427,-0.0036,40
10.369,200,2.7463,3.8632,-18.4477,-0.0252,0.0232,0.058,70,10.404,200,9.068,0.2245,-11.3109,-0.1604,0.0403,-0.0118,40
10.421,201,2.7641,3.8965,-18.4778,0.005,0.0409,0.0364,70,10.456,201,9.0224,0.1887,-11.2747,-0.0536,0.0279,-0.0021,40
10.473,202,2.7946,3.9534,-18.5382,0.0286,0.0348,0.0089,70,10.508,202,8.9597,0.3347,-11.3987,-0.0485,0.0141,0.0062,40
10.525,203,2.744,3.8976,-18.5264,0.0443,0.013,-0.0246,70,10.56,203,8.897,0.2799,-11.4312,-0.0275,0.0379,-0.0056,40
10.577,204,2.6469,3.8336,-18.4636,0.0177,0.0024,-0.0303,70,10.611,204,8.9206,0.2256,-11.3368,0.0278,0.0447,-0.013,40
10.628,205,2.7149,3.8067,-18.49,0.0354,0.0118,-0.0271,70,10.663,205,8.9326,0.3045,-11.3181,0.0856,0.036,-0.0092,40
10.68,206,2.8301,3.8881,-18.5597,0.0539,0.0225,-0.0364,70,10.715,206,8.9105,0.3681,-11.2709,0.1082,0.0173,-0.0024,40
10.732,207,2.8414,3.94,-18.5623,0.0486,0.0168,-0.0448,70,10.767,207,8.8944,0.3644,-11.3062,0.0789,0.0134,0.0048,40
10.784,208,2.792,3.9527,-18.5362,0.0292,0.0062,-0.056,70,10.819,208,8.8558,0.3097,-11.2829,0.0284,0.0198,0.01,40
10.836,209,2.7282,3.8834,-18.5293,0.0235,0.0073,-0.0649,70,10.87,209,8.8257,0.3994,-11.2802,0.0033,0.0318,-0.0033,40
10.887,210,2.7449,3.8707,-18.5211,0.0395,0.0085,-0.08,70,10.922,210,8.823,0.2646,-11.2969,-0.0086,0.0449,-0.0109,40
10.939,211,2.7457,3.8676,-18.5246,0.0257,0.0093,-0.0831,70,10.974,211,8.8056,0.334,-11.2316,-0.013,0.0426,-0.0053,40
10.991,212,2.6856,3.8167,-18.5177,0.0292,0.0042,-0.0771,70,11.026,212,8.8439,0.3232,-11.2126,0.0,0.0304,0.0005,40
11.042,213,2.6203,3.7461,-18.5264,0.019,-0.0108,-0.0477,70,11.078,213,8.8905,0.3234,-11.2139,0.013,0.0291,0.0025,40
11.094,214,2.605,3.717,-18.5834,0.005,-0.0351,-0.005,70,11.129,214,8.8843,0.2974,-11.2474,-0.0179,0.0391,0.0001,40
11.146,215,2.6587,3.7181,-18.6633,0.0205,-0.0585,0.0234,70,11.181,215,8.9163,0.3647,-11.1606,-0.0146,0.0512,-0.0042,40
11.198,216,2.6949,3.7527,-18.706,0.0192,-0.0724,0.0318,70,11.233,216,8.9226,0.3182,-11.1258,0.0044,0.0437,-0.0042,40
11.25,217,2.7518,3.8548,-18.6256,0.0426,-0.0861,0.0326,70,11.285,217,8.9371,0.2845,-11.1695,-0.025,0.0431,-0.0007,40
11.302,218,2.7305,3.8824,-18.5603,0.0356,-0.0841,0.0284,70,11.337,218,8.917,0.3364,-11.1606,-0.0303,0.052,-0.0041,40
11.353,219,2.6673,3.8653,-18.5177,0.0301,-0.0658,0.0176,70,11.388,219,8.9228,0.34,-11.1151,-0.0625,0.0635,-0.0058,40
11.405,220,2.5762,3.8498,-18.4815,0.029,-0.0438,0.0104,70,11.44,220,8.9218,0.4139,-11.0016,-0.1082,0.0374,0.01,40
11.457,221,2.5291,3.8253,-18.5585,0.0255,-0.0187,0.0023,70,11.492,221,8.954,0.434,-10.9811,-0.2167,-0.003,0.0341,40
11.509,222,2.5442,3.7881,-18.6128,0.012,-0.0122,-0.0135,70,11.544,222,8.9518,0.3269,-11.1004,-0.2686,-0.0281,0.0466,40
11.56,223,2.5593,3.7521,-18.6736,0.0281,-0.0218,-0.0168,70,11.596,223,8.9525,0.2668,-11.148,-0.2629,-0.0251,0.0359,40
11.613,224,2.5346,3.7026,-18.7229,0.0236,-0.0352,-0.0161,70,11.647,224,8.9165,0.1822,-11.1281,-0.2068,-0.021,0.0255,40
11.664,225,2.523,3.6837,-18.7246,0.0305,-0.0489,-0.0071,70,11.699,225,8.9099,0.3477,-11.0752,-0.1285,-0.0406,0.0258,40
11.716,226,2.5239,3.6933,-18.7039,0.0218,-0.0571,0.011,70,11.751,226,8.9135,0.2521,-11.1818,-0.1519,-0.0404,0.0223,40
11.768,227,2.554,3.6993,-18.6526,0.0077,-0.0609,0.0368,70,11.803,227,8.9198,0.218,-11.1834,-0.115,-0.0322,0.0116,40
11.819,228,2.5279,3.6537,-18.6532,-0.0082,-0.0527,0.0642,70,11.855,228,8.9345,0.2997,-11.2265,-0.1379,-0.015,0.0033,40
11.871,229,2.4798,3.6421,-18.6287,-0.01,-0.0333,0.0795,70,11.906,229,8.9468,0.2224,-11.1958,-0.1629,-0.0018,-0.0118,40
11.923,230,2.4402,3.6518,-18.6535,-0.0161,-0.0148,0.0889,70,11.958,230,8.9227,0.0976,-11.169,-0.1102,-0.0051,-0.0269,40
11.975,231,2.4472,3.6974,-18.6694,-0.0232,-0.0062,0.0978,70,12.01,231,8.9773,-0.5433,-11.1895,0.2111,-0.016,-0.0478,40
12.027,232,2.4464,3.6963,-18.7237,-0.0392,-0.0086,0.1064,70,12.062,232,9.1453,0.4519,-11.1234,0.3764,-0.0201,-0.0724,40
12.078,233,2.4286,3.6345,-18.7654,-0.0488,-0.0208,0.1098,70,12.114,233,9.1262,0.142,-11.1743,0.2193,0.0041,-0.0472,40
12.13,234,2.4272,3.5968,-18.7555,-0.0524,-0.0454,0.1083,70,12.165,234,9.0418,0.324,-11.116,0.2449,0.0007,-0.0177,40
12.182,235,2.4265,3.5774,-18.6859,-0.0558,-0.0634,0.1128,70,12.217,235,8.9168,0.3017,-11.1344,0.2381,-0.0011,-0.0002,40
12.234,236,2.5316,3.6315,-18.5813,-0.0444,-0.0822,0.1263,70,12.269,236,8.9496,0.2688,-11.1411,0.2357,0.0095,-0.0067,40
12.285,237,2.6491,3.6856,-18.6081,-0.0776,-0.0601,0.1553,70,12.321,237,8.9161,0.3682,-11.0065,0.2364,-0.0121,0.0033,40
12.337,238,2.7653,3.8473,-18.5759,-0.0313,-0.0178,0.1525,70,12.373,238,8.8442,0.4165,-11.1451,0.1373,-0.0069,0.011,40
12.389,239,2.7235,3.9378,-18.4978,-0.028,0.0209,0.1409,70,12.424,239,8.8557,0.3342,-11.1714,0.1013,0.0088,-0.004,40
12.441,240,2.7113,3.9549,-18.3846,-0.0194,0.0403,0.1043,70,12.476,240,8.8681,0.3368,-11.2238,0.1125,0.0655,-0.0311,40
12.493,241,2.6357,3.8983,-18.3441,-0.0071,0.0752,0.0599,70,12.528,241,8.9045,0.3136,-11.2103,-0.1319,0.0763,-0.06,40
12.544,242,2.6701,3.8676,-18.4094,-0.0072,0.1205,0.0082,70,12.58,242,8.7101,0.3781,-11.0768,0.059,0.1062,-0.0796,40
12.596,243,2.7598,3.8681,-18.5534,0.0159,0.1345,-0.0517,70,12.631,243,8.7493,0.408,-11.0416,-0.0096,0.0752,-0.0481,40
12.648,244,2.8186,3.8665,-18.6571,0.0237,0.1087,-0.0993,70,12.683,244,8.8556,0.4565,-11.0165,0.0258,0.0224,-0.0238,40
12.7,245,2.8303,3.7735,-18.6606,0.0126,0.0694,-0.1306,70,12.735,245,8.9249,0.3595,-11.1101,0.0107,-0.0205,-0.0055,40
12.752,246,2.7408,3.6871,-18.6262,0.0025,0.0475,-0.1452,70,12.787,246,8.9149,0.4031,-11.1414,0.0171,-0.0255,0.0002,40
12.804,247,2.7163,3.5992,-18.5534,0.0038,0.052,-0.1395,70,12.839,247,8.9185,0.3707,-11.1496,0.0195,-0.0235,0.0061,40
12.855,248,2.7524,3.6251,-18.5616,0.0164,0.0785,-0.1255,70,12.89,248,8.8737,0.435,-11.1852,0.0301,-0.0228,0.0111,40
12.907,249,2.8168,3.7387,-18.5517,0.0362,0.0853,-0.105,70,12.942,249,8.859,0.4417,-11.1566,0.0087,-0.0119,0.0117,40
12.959,250,2.8422,3.8066,-18.5674,0.0268,0.0809,-0.0809,70,12.994,250,8.8154,0.4665,-11.1289,-0.0045,-0.0059,0.0063,40
13.011,251,2.8729,3.863,-18.564,0.0239,0.0666,-0.0628,70,13.046,251,8.8851,0.3173,-11.1743,-0.0146,-0.0081,0.0028,40
13.063,252,2.8444,3.9182,-18.5399,0.021,0.0513,-0.0478,70,13.097,252,8.8254,0.4477,-11.1403,-0.0346,-0.0007,0.004,40
13.114,253,2.8073,3.9055,-18.5382,0.0244,0.0382,-0.0467,70,13.149,253,8.917,0.3597,-11.2039,-0.1268,-0.0062,-0.0009,40
13.166,254,2.7565,3.8845,-18.487,0.019,0.0272,-0.0529,70,13.201,254,8.9497,0.2689,-11.1425,-0.1021,-0.0163,-0.0024,40
13.218,255,2.7606,3.8566,-18.4269,0.0232,0.015,-0.047,70,13.253,255,8.9097,0.4136,-11.1293,-0.0858,-0.044,0.0102,40
13.27,256,2.7733,3.8064,-18.4544,0.0175,0.0176,-0.0445,70,13.305,256,8.9081,0.3701,-11.1321,-0.1296,-0.0685,0.0238,40
13.321,257,2.8296,3.79,-18.4797,0.032,0.0131,-0.0425,70,13.356,257,8.9358,0.162,-11.2912,-0.0845,-0.0713,0.0226,40
13.373,258,2.8013,3.7547,-18.5071,0.0078,0.0066,-0.0254,70,13.408,258,8.9091,0.2655,-11.33,-0.0418,-0.0544,0.0101,40
13.425,259,2.8041,3.6579,-18.5352,-0.0236,-0.0044,0.0141,70,13.46,259,8.9218,0.4292,-11.2745,0.0226,-0.0631,0.0124,40
13.477,260,2.8164,3.5436,-18.6239,-0.0375,-0.0123,0.0665,70,13.512,260,8.9246,0.3597,-11.3199,-0.0219,-0.0726,0.0287,40
13.529,261,2.8597,3.5964,-18.6432,-0.0254,-0.0381,0.1213,70,13.564,261,8.9134,0.234,-11.4945,-0.03,-0.0488,0.0296,40
13.58,262,2.8598,3.6871,-18.5552,-0.0613,-0.0588,0.1768,70,13.615,262,8.8841,0.3783,-11.4774,0.0385,-0.0083,0.0139,40
13.632,263,2.9192,3.8412,-18.5418,-0.0586,-0.0663,0.207,70,13.667,263,8.7516,0.5412,-11.3099,0.0254,0.025,0.0106,40
13.684,264,2.9571,4.0095,-18.5319,-0.0316,-0.0667,0.1941,70,13.719,264,8.6685,0.6622,-11.436,-0.021,-0.005,0.0092,40
13.736,265,2.9552,4.2239,-18.451,-0.061,-0.0707,0.1479,70,13.771,265,8.6266,0.568,-11.4985,-0.0144,-0.02,0.0063,40
13.788,266,2.9248,4.259,-18.3843,-0.0847,-0.0672,0.0825,70,13.822,266,8.6585,0.4978,-11.5658,0.0146,0.0128,0.004,40
13.839,267,2.8952,4.1785,-18.3331,-0.0801,-0.0391,0.0083,70,13.874,267,8.6547,0.4945,-11.4526,-0.0847,0.0688,-0.0137,40
13.891,268,2.9212,4.0979,-18.2952,-0.0645,-0.0106,-0.0558,70,13.926,268,8.739,0.4762,-11.327,-0.1274,0.0811,-0.0111,40
13.943,269,2.8766,3.9662,-18.2865,-0.0477,0.0186,-0.0999,70,13.978,269,8.7763,0.3223,-11.1725,-0.1831,0.0497,0.0011,40
13.995,270,2.9214,3.83,-18.3599,-0.0118,0.0456,-0.1188,70,14.03,270,8.8403,0.3745,-11.2024,-0.2554,-0.0066,0.0209,40
14.046,271,2.9464,3.7571,-18.5217,0.0149,0.0588,-0.1157,70,14.081,271,8.8698,0.277,-11.2938,-0.2268,-0.0466,0.0281,40
14.098,272,2.9487,3.7965,-18.621,0.046,0.038,-0.1059,70,14.133,272,8.9096,0.0209,-11.3817,-0.2015,-0.0366,0.0157,40
14.15,273,2.8504,3.8239,-18.6238,0.0734,0.0118,-0.1016,70,14.185,273,8.9558,-0.1325,-11.3852,0.0472,-0.0227,-0.0063,40
14.202,274,2.7727,3.8471,-18.55,0.0791,-0.0049,-0.1019,70,14.236,274,9.0015,0.2197,-11.5034,-0.008,-0.0082,-0.0115,40
14.254,275,2.7957,3.8862,-18.4468,0.0761,-0.0137,-0.0902,70,14.288,275,8.9044,0.2029,-11.4124,0.0136,0.0064,-0.0177,40
14.306,276,2.8157,3.8849,-18.4116,0.0533,-0.011,-0.0628,70,14.34,276,8.8681,0.2634,-11.3008,0.0381,-0.0142,-0.0092,40
14.357,277,2.8132,3.8943,-18.4555,0.0202,-0.0074,-0.0211,70,14.392,277,8.8909,0.2769,-11.3373,-0.0013,-0.0245,-0.0003,40
14.409,278,2.8385,3.8774,-18.5332,-0.006,-0.0027,0.0108,70,14.444,278,8.9153,0.2374,-11.4145,-0.0166,-0.0201,-0.0023,40
14.461,279,2.8169,3.9077,-18.5581,0.0074,0.0017,0.0233,70,14.495,279,8.9149,0.2102,-11.3743,0.0181,-0.0096,-0.0075,40
14.513,280,2.7208,3.9402,-18.4924,0.0049,-0.0018,0.0259,70,14.547,280,8.8981,0.2536,-11.346,0.12,0.0056,-0.011,40
14.564,281,2.6645,3.925,-18.3903,0.0049,0.0013,0.0355,70,14.599,281,8.9462,0.2608,-11.3641,0.0914,0.0081,-0.0072,40
14.616,282,2.7418,3.9271,-18.4092,0.01,0.0184,0.0274,70,14.651,282,8.9303,0.2721,-11.3597,0.1047,0.0301,-0.0122,40
14.668,283,2.8111,3.98,-18.4949,0.0125,0.0289,0.0204,70,14.703,283,8.9211,0.2599,-11.3221,0.068,0.0444,-0.0154,40
14.72,284,2.8596,4.0053,-18.5805,0.0077,0.0171,0.0045,70,14.754,284,8.9039,0.3406,-11.2594,0.0602,0.0346,-0.012,40
14.772,285,2.858,3.9978,-18.5837,0.0107,-0.0009,-0.0185,70,14.806,285,8.9177,0.2889,-11.2715,0.0114,0.0334,-0.0067,40
14.823,286,2.7871,3.9638,-18.4532,0.0135,-0.0065,-0.0366,70,14.858,286,8.8908,0.2664,-11.2679,0.0196,0.0352,-0.0065,40
14.875,287,2.7429,3.9283,-18.3955,0.0187,0.0025,-0.0439,70,14.91,287,8.8816,0.3574,-11.2394,-0.0011,0.0285,-0.0048,40
14.927,288,2.7574,3.9022,-18.4065,0.0179,0.018,-0.0514,70,14.961,288,8.8987,0.3869,-11.2172,-0.0381,0.0085,-0.0019,40
14.979,289,2.8222,3.8741,-18.5011,0.0435,0.0263,-0.0651,70,15.013,289,8.9055,0.3128,-11.263,-0.0863,0.0045,0.0009,40
15.031,290,2.8572,3.837,-18.5477,0.0443,0.0229,-0.0785,70,15.065,290,8.9175,0.2347,-11.3084,-0.0638,0.0016,-0.0012,40
15.082,291,2.875,3.7871,-18.5102,0.0575,0.0135,-0.0707,70,15.117,291,8.9478,0.2281,-11.2912,0.0015,0.0005,-0.001,40
15.134,292,2.8579,3.7429,-18.4969,0.045,0.0124,-0.0479,70,15.169,292,8.9179,0.3476,-11.2573,0.0559,-0.0022,0.0024,40
15.186,293,2.8184,3.7076,-18.4448,0.0329,0.0196,-0.0154,70,15.22,293,8.9226,0.2659,-11.3315,0.0182,0.0006,0.0047,40
15.238,294,2.762,3.7285,-18.4089,0.0284,0.0313,0.0282,70,15.272,294,8.9433,0.2638,-11.3167,0.0152,0.016,-0.0054,40
15.29,295,2.7816,3.7795,-18.529,0.0212,0.0357,0.0596,70,15.324,295,8.9259,0.2744,-11.2571,0.0364,0.0177,-0.0091,40
15.341,296,2.8036,3.8686,-18.6619,0.0153,0.0274,0.0618,70,15.376,296,8.9287,0.3258,-11.2399,0.0024,0.0089,-0.0041,40
15.393,297,2.832,3.9916,-18.744,0.013,-0.0061,0.0323,70,15.427,297,8.9169,0.32,-11.2523,-0.0354,0.0026,-0.0021,40
15.445,298,2.7953,4.0247,-18.6605,-0.0337,-0.0461,0.0034,70,15.479,298,8.9152,0.3119,-11.2354,-0.0725,0.0032,-0.0047,40
15.497,299,2.7619,3.9702,-18.4993,-0.0724,-0.0667,-0.0166,70,15.531,299,8.908,0.3594,-11.1999,-0.0712,-0.0084,-0.0026,40
15.548,300,2.7364,3.9313,-18.3753,-0.054,-0.0597,-0.032,70,15.583,300,8.9197,0.2443,-11.2444,-0.0259,-0.0261,0.0041,40
15.6,301,2.8245,3.9401,-18.3533,-0.0447,-0.0333,-0.0371,70,15.635,301,8.8913,0.2196,-11.3152,0.0589,-0.0021,0.0022,40
15.652,302,2.8598,3.8772,-18.4412,-0.0354,-0.0115,-0.0409,70,15.686,302,8.8676,0.2887,-11.283,0.0848,0.015,-0.0031,40
15.704,303,2.8624,3.8171,-18.5498,-0.0155,-0.0077,-0.0328,70,15.738,303,8.8718,0.3013,-11.2213,0.0801,0.0147,-0.0015,40
15.756,304,2.8366,3.7916,-18.5142,-0.0179,-0.0067,-0.0225,70,15.79,304,8.8957,0.316,-11.1753,0.0961,-0.0097,0.0082,40
15.807,305,2.8019,3.8128,-18.4348,0.0232,0.0004,0.0043,70,15.842,305,8.9048,0.2963,-11.2706,0.0903,-0.0151,0.0177,40
15.859,306,2.8018,3.8953,-18.4648,0.0181,0.011,0.0324,70,15.893,306,8.9089,0.3125,-11.3039,0.0957,-0.0005,0.0189,40
15.911,307,2.7757,3.9716,-18.5172,0.0221,0.0133,0.035,70,15.945,307,8.8857,0.2324,-11.3762,0.0739,0.0282,0.0225,40
15.963,308,2.7557,4.022,-18.5028,0.0328,0.0102,0.0228,70,15.997,308,8.8675,0.2386,-11.3762,0.0933,0.0626,0.0265,40
16.015,309,2.729,4.0264,-18.5112,0.0203,0.0098,0.0045,70,16.049,309,8.8229,0.3386,-11.2119,0.1147,0.0969,0.0343,40
