right_leg_timestamp,right_leg_index,right_leg_accel_x,right_leg_accel_y,right_leg_accel_z,right_leg_gyro_x,right_leg_gyro_y,right_leg_gyro_z,right_leg_battery_percentage,left_leg_timestamp,left_leg_index,left_leg_accel_x,left_leg_accel_y,left_leg_accel_z,left_leg_gyro_x,left_leg_gyro_y,left_leg_gyro_z,left_leg_battery_percentage
0.188,3,9.383,-2.2421,-10.7761,-0.0188,0.0073,0.0005,86,0.017,0,8.3281,-0.5209,-13.499,-0.0556,-0.0446,0.0308,52
0.24,4,9.3608,-2.3056,-10.7675,-0.0516,0.0215,0.0056,86,0.069,1,8.2867,-0.6331,-13.5058,-0.0565,-0.0287,0.0385,52
0.292,5,9.3337,-2.3457,-10.7451,-0.0664,0.0183,-0.0083,86,0.121,2,8.2219,-0.6115,-13.4078,-0.0439,-0.0221,0.0161,52
0.343,6,9.3077,-2.3854,-10.6008,-0.0938,-0.0308,-0.0308,86,0.173,3,8.1549,-0.6353,-13.4358,-0.0794,-0.0115,0.0091,52
0.395,7,9.3247,-2.3568,-10.4529,-0.1942,-0.2325,-0.147,86,0.224,4,8.2139,-0.6462,-13.3627,-0.122,-0.0469,0.0005,52
0.447,8,9.8731,-1.9899,-10.6531,-0.3541,-0.5283,-0.2306,86,0.276,5,8.3164,-0.7034,-13.5597,-0.1275,-0.0837,-0.0279,52
0.499,9,9.9665,-1.3587,-10.9487,-0.6158,-0.5525,-0.1354,86,0.328,6,8.3596,-0.4666,-13.718,-0.1121,-0.0248,-0.0528,52
0.551,10,10.0786,-0.9568,-10.9994,-1.1247,-0.2754,0.14,86,0.38,7,8.38,-0.4015,-13.6026,-0.1616,0.0585,0.0484,52
0.603,11,10.3191,-0.5472,-11.1445,-1.496,-0.176,0.2585,86,0.432,8,8.3957,-0.5076,-13.478,-0.1598,0.1155,0.0746,52
0.654,12,10.4489,-0.4794,-11.3179,-1.6191,-0.2367,0.2337,86,0.483,9,8.4315,-0.4974,-13.4311,-0.167,0.1628,0.0664,52
0.706,13,10.0315,-0.5207,-11.2218,-1.6623,-0.1682,0.22,86,0.535,10,8.4398,-0.4642,-13.3305,-0.1503,0.227,0.0736,52
0.758,14,9.5534,-0.6655,-10.9759,-1.5911,0.0395,0.2761,86,0.587,11,8.4548,-0.5158,-13.1742,-0.1343,0.2866,0.0849,52
0.81,15,9.1792,-0.8567,-10.8776,-1.3083,0.3588,0.3817,86,0.639,12,8.5373,-0.5377,-12.9851,-0.1226,0.3296,0.0965,52
0.861,16,9.1504,-1.1624,-10.8709,-0.957,0.6876,0.4643,86,0.691,13,8.5722,-0.5402,-12.9376,-0.0888,0.4008,0.1109,52
0.913,17,9.1782,-1.4965,-11.0422,-0.5546,0.9652,0.5096,86,0.742,14,8.6908,-0.4489,-12.8005,-0.0696,0.5246,0.173,52
0.965,18,8.9559,-1.7953,-11.2307,-0.2028,1.0916,0.511,86,0.794,15,8.6741,-0.642,-12.6799,-0.0886,0.6791,0.309,52
1.017,19,7.391,-1.3106,-11.257,0.1321,1.0691,0.4308,86,0.846,16,8.5103,-0.5831,-12.7069,0.171,1.034,0.4111,52
1.069,20,6.7323,-1.1323,-10.8771,0.4922,1.0123,0.2226,86,0.898,17,9.5564,-1.3995,-12.6843,0.2953,1.3645,0.7911,52
1.12,21,0.256,-2.2592,-15.9435,-0.2028,0.2373,0.1328,86,0.95,18,8.9645,-1.6626,-10.9498,0.8315,1.1135,0.6527,52
1.172,22,3.1401,-3.5126,-15.731,-0.4763,0.0509,0.0615,86,1.002,19,8.5954,-0.8317,-10.9645,-0.0702,0.4854,0.775,52
1.224,23,4.9065,-3.2134,-14.6761,-0.0215,0.2766,-0.0726,86,1.054,20,7.613,-1.8476,-10.7399,-0.1319,0.0964,0.1382,52
1.276,24,5.9504,-2.2741,-13.0414,0.3086,0.3939,-0.0598,86,1.105,21,8.0775,-5.1743,-10.6087,-0.1643,-0.0894,-0.1046,52
1.328,25,6.8074,-2.2111,-12.1879,0.3126,0.3073,-0.0268,86,1.157,22,8.0922,-3.0021,-9.4436,-0.2269,-0.0101,-0.0021,52
1.379,26,7.5983,-1.9946,-11.6218,0.1938,0.2584,-0.032,86,1.209,23,7.6573,-2.9557,-9.5191,-0.547,-0.0047,0.036,52
1.431,27,8.2635,-1.9384,-11.3171,0.1014,0.2755,-0.0471,86,1.26,24,7.2272,-3.0705,-10.9586,-0.4229,-0.2026,-0.157,52
1.483,28,8.7159,-1.7276,-10.9829,0.0806,0.4011,-0.0786,86,1.312,25,7.7167,-2.3336,-11.0817,-0.4011,-0.4187,-0.274,52
1.535,29,9.0675,-1.5969,-10.8164,0.1082,0.5598,-0.0511,86,1.364,26,8.6102,-2.0914,-11.2939,-0.6973,-0.5893,-0.1095,52
1.587,30,9.5412,-1.6236,-10.7852,0.0257,0.7844,0.0375,86,1.416,27,8.3389,-1.8583,-11.846,-0.6819,-0.6818,-0.0292,52
1.638,31,9.6334,-1.5521,-10.1364,0.0059,0.9545,0.1429,86,1.468,28,8.5301,-1.546,-12.1663,-0.5561,-0.7113,-0.0826,52
1.69,32,9.1605,-1.6799,-8.5731,-0.0375,0.8888,0.1355,86,1.519,29,8.5333,-1.4612,-12.6026,-0.4465,-0.6712,-0.1194,52
1.742,33,8.962,-0.9408,-11.4738,-0.0701,0.1818,-0.1476,86,1.571,30,8.4693,-1.3879,-12.9436,-0.3465,-0.5676,-0.1695,52
1.794,34,9.547,-0.8317,-12.3826,0.0351,-0.5407,-0.4773,86,1.623,31,8.3768,-1.1465,-13.2501,-0.2532,-0.4343,-0.158,52
1.845,35,9.2583,-1.043,-12.9419,0.2911,-1.068,-0.5466,86,1.675,32,8.337,-1.1004,-13.4161,-0.1892,-0.2871,-0.1345,52
1.897,36,9.0601,-0.9485,-11.4499,-0.1885,-1.265,-0.4482,86,1.726,33,8.3342,-0.9933,-13.4546,-0.1321,-0.1674,-0.12,52
1.949,37,10.3743,-1.066,-7.8561,-0.4699,-0.7724,-0.0762,86,1.778,34,8.3393,-0.8952,-13.4304,-0.0951,-0.0828,-0.1111,52
2.001,38,10.803,0.4084,-7.4001,-0.298,-0.3042,0.0987,86,1.83,35,8.3151,-0.8683,-13.4729,-0.0807,-0.0152,-0.0843,52
2.053,39,10.1896,-0.4155,-8.612,-0.2858,-0.1542,0.2325,86,1.882,36,8.3091,-0.8248,-13.4219,-0.0473,0.0493,-0.0581,52
2.105,40,9.8049,-0.6434,-9.6462,-0.0303,-0.0802,0.2017,86,1.934,37,8.3853,-0.7897,-13.3553,-0.0457,0.1003,0.0138,52
2.156,41,9.6787,-0.7691,-10.2786,0.0802,0.0257,0.2169,86,1.985,38,8.4322,-0.6582,-13.362,-0.137,0.1516,0.1104,52
2.208,42,9.6167,-0.9648,-10.5823,0.0371,0.1669,0.2769,86,2.037,39,8.4797,-0.6285,-13.356,-0.3232,0.3005,0.3549,52
2.26,43,9.566,-1.2578,-10.5862,0.0172,0.2326,0.2975,86,2.089,40,7.9793,-0.0177,-13.143,-0.6866,0.2717,0.4816,52
2.312,44,9.5218,-1.6379,-10.5526,0.026,0.1474,0.1928,86,2.141,41,8.3379,-1.2845,-13.1057,-1.1782,0.1123,0.7658,52
2.364,45,9.6682,-1.7325,-10.5804,-0.0136,-0.0707,-0.05,86,2.192,42,7.3799,0.0022,-13.59,-0.684,-0.2123,0.5483,52
2.415,46,10.0233,-1.6053,-10.6938,-0.1697,-0.1793,-0.1178,86,2.244,43,7.6786,-0.4844,-13.6921,-0.3798,-0.2908,0.2896,52
2.467,47,10.6259,-1.4896,-11.0569,-0.3668,-0.2932,-0.2207,86,2.296,44,7.9449,-0.7976,-13.7098,-0.2664,-0.3206,0.1409,52
2.519,48,10.5021,-0.6661,-14.7093,-0.0746,-0.6719,-0.5455,86,2.348,45,8.0401,-0.9884,-13.8585,-0.1065,-0.2437,0.0015,52
2.571,49,10.4065,-0.1881,-16.0943,-0.7263,-1.1638,-0.7346,86,2.4,46,8.0791,-1.0382,-13.8059,0.1253,-0.1805,-0.111,52
2.623,50,10.0503,0.3529,-16.2889,-1.1328,-1.5228,-0.8947,86,2.451,47,7.9763,-1.0786,-13.8574,0.2371,-0.1052,-0.1948,52
2.674,51,9.6869,0.395,-15.7566,-0.8791,-1.7848,-0.9354,86,2.503,48,8.0479,-1.0837,-13.7115,0.2648,-0.0419,-0.2742,52
2.726,52,8.7034,0.4272,-14.5469,-0.9938,-1.976,-0.7926,86,2.555,49,7.9904,-1.0366,-13.7124,0.2246,-0.0218,-0.3679,52
2.778,53,7.1222,0.7264,-15.654,-1.0793,-2.0966,-0.557,86,2.607,50,8.0252,-0.8012,-13.7125,0.1592,-0.0449,-0.4522,52
2.83,54,6.491,1.6789,-14.8111,-0.7103,-1.9198,-0.2614,86,2.659,51,8.1468,-0.5249,-13.7592,0.0502,-0.073,-0.4384,52
2.882,55,5.3551,1.3629,-15.9216,-0.7955,-1.6054,-0.0602,86,2.71,52,8.0516,-0.1572,-13.9315,-0.0094,-0.0714,-0.3617,52
2.933,56,4.5812,1.8353,-16.8679,-0.601,-1.3734,-0.023,86,2.762,53,7.7434,0.1743,-13.9918,-0.4624,-0.1575,-0.0519,52
2.985,57,3.9366,2.2168,-17.5515,-0.4509,-1.2316,-0.0314,86,2.814,54,8.4848,-0.1007,-13.6073,-0.6088,-0.2154,0.1456,52
3.037,58,3.1078,2.502,-17.9291,-0.3491,-1.1619,-0.0762,86,2.866,55,8.3913,-0.178,-13.8877,-0.4975,-0.184,0.2088,52
3.089,59,2.2615,2.7657,-18.1906,-0.3164,-1.1177,-0.1316,86,2.917,56,8.3403,-0.2183,-13.9416,-0.3293,-0.1582,0.1913,52
3.14,60,1.9615,3.3131,-18.1531,-0.3624,-1.0429,-0.2068,86,2.969,57,8.24,-0.3889,-13.9696,-0.155,-0.1442,0.0682,52
3.192,61,1.9572,3.6974,-17.9025,-0.2701,-0.88,-0.2119,86,3.021,58,8.1108,-0.115,-14.1977,-0.0567,-0.1257,-0.0259,52
3.244,62,1.7567,3.7211,-17.8155,-0.1659,-0.657,-0.1469,86,3.073,59,8.1193,-0.0077,-14.2146,-0.0525,-0.0714,-0.0039,52
3.296,63,1.6211,3.4959,-17.0887,0.1794,-0.3449,-0.0398,86,3.125,60,8.0862,-0.1072,-14.1192,-0.0603,-0.0856,0.0039,52
3.348,64,1.6698,3.9249,-17.3523,0.2918,0.0687,0.0387,86,3.176,61,8.0875,-0.06,-14.1823,-0.046,-0.0957,-0.0032,52
3.4,65,1.5946,3.8126,-18.1835,0.3839,0.3055,0.0396,86,3.228,62,8.0672,-0.0345,-14.2493,-0.0479,-0.0711,0.0025,52
3.451,66,1.7146,3.9227,-18.756,0.4279,0.4043,0.012,86,3.28,63,8.0235,-0.0361,-14.196,-0.0663,-0.0566,0.0128,52
3.503,67,1.7831,3.7525,-19.2791,0.2913,0.4024,-0.0319,86,3.332,64,7.9885,-0.0702,-14.2338,-0.0778,-0.057,0.0242,52
3.555,68,1.7818,3.5447,-19.4475,0.2526,0.3025,-0.1038,86,3.383,65,7.9802,-0.0429,-14.2654,-0.0709,-0.0461,0.0456,52
3.607,69,1.6739,3.3771,-19.4898,0.2159,0.2049,-0.1749,86,3.435,66,7.9688,-0.0241,-14.2489,-0.0661,-0.0238,0.0828,52
3.659,70,1.6798,3.2683,-19.3531,0.1663,0.1219,-0.2274,86,3.487,67,7.9658,-0.0624,-14.3101,-0.072,-0.0143,0.1297,52
3.71,71,1.7756,3.1734,-19.2604,0.097,0.069,-0.2599,86,3.539,68,7.9358,-0.0412,-14.1779,-0.0239,-0.0061,0.2092,52
3.762,72,1.8668,3.1179,-19.0223,0.0508,0.047,-0.2871,86,3.59,69,7.9476,-0.3489,-14.1459,0.0693,-0.0547,0.123,52
3.814,73,1.9777,3.0748,-18.8548,0.0009,0.0657,-0.2849,86,3.642,70,7.9766,-0.4695,-14.273,0.1146,-0.0392,-0.0084,52
3.866,74,2.0157,3.2833,-18.8389,0.0453,0.1247,-0.2551,86,3.694,71,7.9903,-0.3779,-14.3031,0.1398,-0.0125,-0.0842,52
3.918,75,2.0752,3.4961,-18.9016,0.1006,0.1937,-0.2314,86,3.746,72,7.9157,-0.3198,-14.2881,0.1657,0.0133,-0.1237,52
3.969,76,2.1066,3.6052,-18.997,0.0752,0.2317,-0.1985,86,3.798,73,7.8506,-0.1847,-14.3123,0.1476,0.0246,-0.096,52
4.021,77,2.0828,3.5903,-19.0871,0.0066,0.2248,-0.1695,86,3.849,74,7.8716,-0.1874,-14.27,0.0548,0.0018,0.0029,52
4.073,78,1.9413,3.4306,-19.113,-0.0341,0.1794,-0.1635,86,3.901,75,7.9599,-0.2162,-14.3082,0.0152,-0.0014,0.0769,52
4.125,79,1.7199,3.2558,-19.129,-0.0497,0.1367,-0.1597,86,3.953,76,7.9826,-0.4083,-14.4422,-0.0731,0.0615,0.2034,52
4.176,80,1.6343,3.231,-19.1344,-0.0409,0.107,-0.1421,86,4.005,77,7.9738,-0.5001,-14.4001,-0.1122,0.1462,0.2826,52
4.228,81,1.7468,3.2896,-19.0088,-0.0343,0.0748,-0.1043,86,4.057,78,7.9584,-0.7398,-14.1546,-0.1362,0.1445,0.258,52
4.28,82,1.8278,3.2718,-18.9159,-0.0374,0.0454,-0.0447,86,4.108,79,8.0457,-0.7427,-14.1568,-0.1525,0.1052,0.2134,52
4.332,83,1.8087,3.2662,-18.7621,-0.0052,0.0291,0.0007,86,4.16,80,8.0418,-0.7601,-14.085,-0.166,0.0905,0.1889,52
4.384,84,1.7715,3.1678,-18.8432,0.0102,0.0449,-0.0065,86,4.212,81,8.0926,-0.7938,-13.8504,-0.1483,0.0583,0.1576,52
4.435,85,1.8979,3.1831,-18.881,0.1124,0.0413,-0.0893,86,4.264,82,8.062,-0.9048,-13.9113,-0.0575,0.002,0.1202,52
4.487,86,2.0678,3.3113,-18.9309,0.2264,0.0313,-0.1638,86,4.316,83,8.0692,-0.9495,-13.984,-0.0086,-0.0485,0.0123,52
4.539,87,2.2376,3.3881,-19.0811,0.1989,0.0466,-0.1744,86,4.367,84,8.0284,-0.9104,-14.1119,0.0152,-0.0733,-0.0464,52
4.591,88,2.3232,3.5378,-19.0667,0.106,0.0724,-0.1512,86,4.419,85,8.072,-0.878,-14.0861,0.1314,-0.0917,-0.0937,52
4.643,89,2.3598,3.4857,-18.9554,0.0103,0.0663,-0.0996,86,4.471,86,8.0063,-0.7758,-14.1608,0.1704,-0.0585,-0.1296,52
4.694,90,2.2881,3.1858,-18.9189,-0.1418,0.0697,-0.0318,86,4.523,87,7.9532,-0.8072,-14.1535,0.1683,-0.0244,-0.1483,52
4.746,91,2.3936,3.1745,-18.9119,-0.123,0.0975,0.0149,86,4.574,88,7.9543,-0.7583,-14.0914,0.1574,-0.0289,-0.1812,52
4.798,92,2.6092,3.2347,-18.9652,-0.1574,0.1563,0.0348,86,4.626,89,7.8603,-0.6598,-14.2199,0.1444,-0.0639,-0.2002,52
4.85,93,2.5352,3.1943,-18.9836,-0.1654,0.1684,0.0442,86,4.678,90,7.7987,-0.3627,-14.3307,0.0069,-0.0532,-0.0618,52
4.902,94,2.235,3.1512,-18.7686,-0.1445,0.1712,0.0031,86,4.73,91,7.9233,-0.6431,-14.1078,-0.0389,-0.0215,0.0713,52
4.953,95,2.162,3.3946,-18.6075,-0.1451,0.1766,-0.0448,86,4.782,92,7.9169,-0.8455,-14.1349,-0.0846,-0.0404,0.1171,52
5.005,96,2.4266,3.5479,-18.6494,-0.083,0.1397,-0.0492,86,4.833,93,7.9192,-0.8159,-14.2963,-0.1215,-0.0588,0.1192,52
5.057,97,2.6324,3.6564,-18.88,-0.05,0.0789,-0.0122,86,4.885,94,7.9123,-0.8743,-14.2621,-0.0722,-0.0633,0.0901,52
5.109,98,2.7859,3.7757,-18.8613,-0.0916,0.0133,0.0133,86,4.937,95,7.8779,-0.9244,-14.3627,0.0116,-0.0762,0.0297,52
5.161,99,2.8816,3.8146,-18.6746,-0.0611,-0.0391,0.0016,86,4.989,96,7.8996,-0.6784,-14.4371,0.0897,-0.0424,-0.0132,52
5.212,100,2.8989,3.8449,-18.4412,-0.0533,-0.0314,-0.0055,86,5.04,97,7.9687,-0.8265,-14.4186,0.0985,0.015,-0.0036,52
5.264,101,2.9043,3.7945,-18.3166,-0.1001,0.0385,0.019,86,5.092,98,8.0087,-0.8027,-14.3405,0.1908,0.0571,-0.0193,52
5.316,102,2.8327,3.9135,-18.3085,-0.1686,0.118,0.0501,86,5.144,99,7.8461,-0.7648,-14.4257,0.2209,0.0661,-0.0148,52
5.368,103,2.7972,3.995,-18.3447,-0.2805,0.155,0.0615,86,5.196,100,7.7933,-0.6872,-14.3953,0.081,0.0252,0.0679,52
5.419,104,2.7841,4.0402,-18.3892,-0.344,0.1395,0.0624,86,5.248,101,8.0498,-0.7507,-14.2039,0.0342,0.0055,0.126,52
5.471,105,2.7022,4.1328,-18.3421,-0.3865,0.0874,0.1096,86,5.299,102,8.0191,-1.0329,-14.1913,0.0045,0.004,0.1481,52
5.523,106,2.7113,4.23,-18.3052,-0.2833,0.0404,0.1282,86,5.351,103,8.0109,-1.0687,-14.1953,0.0355,-0.0029,0.1002,52
5.575,107,2.8871,4.4506,-18.2875,-0.214,0.0034,0.1469,86,5.403,104,7.9594,-1.1272,-14.2826,0.0604,0.0008,0.0594,52
5.627,108,2.9855,4.6138,-18.2639,-0.1591,-0.0211,0.1394,86,5.455,105,7.9098,-1.0816,-14.2422,0.0649,0.0275,0.0472,52
5.678,109,2.8969,4.6687,-18.1266,-0.0878,-0.0277,0.0874,86,5.507,106,7.8828,-1.1604,-14.176,0.0483,0.0275,0.0363,52
5.73,110,2.8238,4.6989,-17.9627,-0.049,-0.0178,0.0252,86,5.558,107,7.8543,-1.1852,-14.1407,-0.0064,0.0012,0.0424,52
5.782,111,2.7937,4.666,-17.93,0.0134,0.0074,-0.0373,86,5.61,108,7.8845,-1.2222,-14.1671,-0.0228,-0.0213,0.0399,52
5.834,112,2.7701,4.6462,-18.0256,0.0404,0.0317,-0.0677,86,5.662,109,7.9198,-1.275,-14.2124,-0.0249,-0.0194,0.0319,52
5.886,113,2.8033,4.6178,-18.1686,0.085,0.0447,-0.1064,86,5.714,110,7.8942,-1.2992,-14.2173,0.012,-0.0158,-0.0089,52
5.937,114,2.8961,4.5363,-18.2298,0.156,0.0138,-0.134,86,5.765,111,7.9102,-1.281,-14.2408,0.0448,-0.0161,-0.0491,52
5.989,115,3.0016,4.4931,-18.2575,0.1931,-0.0155,-0.1264,86,5.817,112,7.9184,-1.229,-14.2409,0.06,-0.0066,-0.0759,52
6.041,116,3.0576,4.427,-18.1366,0.2008,-0.0259,-0.0855,86,5.869,113,7.9595,-1.1459,-14.2071,0.0987,0.0109,-0.093,52
6.093,117,3.0597,4.3543,-18.0379,0.228,-0.0149,-0.0427,86,5.921,114,7.962,-1.1389,-14.2191,0.1466,0.0193,-0.1325,52
6.145,118,3.0978,4.3122,-18.1379,0.1789,0.0362,-0.0017,86,5.973,115,7.9175,-1.0836,-14.2415,0.1589,0.0313,-0.1486,52
6.196,119,3.1407,4.3172,-18.2318,0.1652,0.0741,-0.0004,86,6.024,116,7.8781,-1.0918,-14.2647,0.1447,0.0495,-0.132,52
6.248,120,3.1653,4.3088,-18.2834,0.198,0.0856,-0.0424,86,6.076,117,7.8099,-0.9653,-14.3082,0.0835,0.083,-0.0519,52
6.3,121,3.1391,4.2305,-18.2663,0.167,0.0899,-0.0785,86,6.128,118,7.6735,-0.7733,-14.3617,-0.0406,0.0913,0.0599,52
6.352,122,3.0922,4.1328,-18.1599,0.1053,0.0869,-0.1045,86,6.179,119,7.948,-0.6423,-14.0482,0.0242,0.135,0.1201,52
6.404,123,3.0618,3.8175,-18.4983,0.1006,0.0804,-0.1206,86,6.231,120,7.9852,-0.8769,-13.9641,0.036,0.1203,0.1119,52
6.456,124,3.2509,3.8995,-18.5509,0.117,0.0217,-0.0878,86,6.283,121,8.0073,-1.078,-13.9377,0.023,0.0857,0.0859,52
6.507,125,3.1932,3.7935,-18.7456,0.0494,-0.0289,-0.0428,86,6.335,122,7.9944,-1.1568,-13.9417,0.0204,0.0546,0.06,52
6.559,126,3.0974,3.804,-18.5796,0.0777,-0.101,-0.0138,86,6.387,123,7.9965,-1.1811,-13.9102,0.007,0.0283,0.0527,52
6.611,127,2.947,3.8729,-18.3761,0.0484,-0.1362,0.0106,86,6.438,124,8.0518,-1.233,-13.9093,0.0026,0.005,0.0497,52
19.094,368,5.4743,4.9442,-16.1824,-0.2161,-1.1216,-0.353,86,18.661,360,8.2075,-0.9741,-13.4857,-0.0789,-0.026,0.0718,52
19.145,369,4.8788,5.001,-16.4028,-0.2341,-1.0015,-0.3044,86,18.712,361,8.1545,-1.3062,-13.598,-0.1034,-0.0018,0.177,52
19.197,370,4.3473,4.9555,-16.4549,-0.0836,-0.8792,-0.275,86,18.764,362,8.0671,-1.467,-13.5343,-0.06,0.0018,0.1528,52
19.249,371,3.8885,4.8442,-16.5473,0.0583,-0.7494,-0.2297,86,18.816,363,7.9923,-1.5368,-13.5464,-0.0383,-0.0281,0.0551,52
19.301,372,3.4916,4.8331,-16.7931,0.0373,-0.5598,-0.1587,86,18.868,364,7.9844,-1.5786,-13.6645,-0.0476,-0.0704,-0.048,52
19.353,373,3.2556,4.7929,-16.8278,0.1012,-0.3774,-0.0875,86,18.92,365,8.0002,-1.4012,-13.7926,-0.0747,-0.0836,-0.0988,52
19.405,374,3.1287,4.8442,-17.1022,0.241,-0.2103,-0.0091,86,18.971,366,8.0346,-1.2697,-13.8509,-0.0708,-0.0876,-0.1018,52
19.456,375,3.076,5.0025,-17.4982,0.2403,-0.0757,0.0556,86,19.023,367,8.0382,-1.228,-13.8271,-0.0588,-0.094,-0.0807,52
19.508,376,3.1981,5.048,-17.6334,0.2569,-0.0145,0.0855,86,19.075,368,8.0558,-1.2614,-13.9001,-0.0322,-0.1013,-0.0947,52
19.56,377,3.2007,5.026,-17.8248,0.2311,0.0004,0.1002,86,19.126,369,8.0571,-1.1852,-13.9483,-0.0018,-0.1004,-0.1463,52
