right_leg_timestamp,right_leg_index,right_leg_accel_x,right_leg_accel_y,right_leg_accel_z,right_leg_gyro_x,right_leg_gyro_y,right_leg_gyro_z,right_leg_battery_percentage,left_leg_timestamp,left_leg_index,left_leg_accel_x,left_leg_accel_y,left_leg_accel_z,left_leg_gyro_x,left_leg_gyro_y,left_leg_gyro_z,left_leg_battery_percentage
0.458,8,9.2158,-2.8453,-9.7476,-0.1204,0.1157,0.0808,70,0.04,0,9.0279,-0.3141,-12.1381,0.2547,0.0045,0.0538,39
0.51,9,9.0507,-2.9857,-9.5433,-0.0951,0.0869,0.0488,70,0.092,1,9.3117,-0.2183,-12.3294,0.3424,-0.0062,0.2162,39
0.562,10,9.1524,-2.8349,-9.5433,-0.0846,0.0336,0.04,70,0.144,2,11.2883,-1.5914,-13.3846,0.5889,-0.2674,0.7746,39
0.614,11,9.184,-2.8749,-9.6554,-0.1165,0.0335,0.0395,70,0.196,3,11.6914,-2.2416,-13.8128,0.4617,-0.598,1.2457,39
0.665,12,9.0566,-3.0334,-9.6418,-0.1199,0.0236,0.0411,70,0.248,4,10.9859,-2.6986,-13.9155,0.2996,-0.8907,1.5895,39
0.717,13,9.0971,-2.9947,-9.6349,-0.1028,0.0054,0.0349,70,0.3,5,9.5767,-3.2367,-13.499,0.2919,-1.0751,1.8404,39
0.769,14,9.0832,-3.0048,-9.6327,-0.113,-0.0044,0.0282,70,0.351,6,7.9379,-3.553,-13.4082,0.1198,-1.1749,2.0209,39
0.821,15,9.1072,-3.0269,-9.5893,-0.0662,-0.0369,0.0199,70,0.403,7,6.3757,-4.3163,-13.887,-0.0317,-1.3178,2.0665,39
0.872,16,9.1151,-3.0226,-9.6663,-0.0347,-0.0638,0.0177,70,0.455,8,5.2959,-5.1809,-14.2571,0.1032,-1.3692,1.9515,39
0.924,17,9.1375,-3.0788,-9.7024,-0.0478,-0.0686,0.0103,70,0.507,9,4.4212,-4.4966,-13.3631,0.2774,-1.2829,1.7384,39
0.976,18,9.1916,-3.0021,-9.799,-0.0519,-0.0324,0.0098,70,0.558,10,3.4886,-4.3693,-12.9633,0.2352,-1.1698,1.4845,39
1.028,19,9.1848,-3.0512,-9.8196,-0.0586,0.0311,0.0152,70,0.61,11,2.4631,-4.5666,-13.1604,0.2265,-0.9704,1.1287,39
1.079,20,9.1705,-3.0528,-9.9016,-0.0795,0.0462,0.0005,70,0.662,12,1.8351,-5.0773,-13.6994,0.2527,-0.7729,0.7614,39
1.131,21,9.2455,-3.0356,-9.8469,-0.1192,0.0966,-0.0012,70,0.714,13,1.4746,-5.6117,-14.1032,0.2721,-0.5761,0.4589,39
1.183,22,9.011,-3.2551,-9.5508,-0.1027,0.1077,-0.0113,70,0.766,14,1.1668,-6.2033,-14.5182,0.2085,-0.3821,0.2623,39
1.235,23,8.4791,-3.5119,-9.4887,0.1066,0.0204,0.0036,70,0.817,15,0.9802,-6.8209,-14.9368,0.1546,-0.2391,0.1682,39
1.287,24,9.3783,-2.5717,-9.5901,0.0443,-0.0751,-0.0048,70,0.869,16,1.1489,-7.3796,-15.3401,0.097,-0.1512,0.138,39
1.338,25,9.3814,-2.6437,-9.7561,0.0147,-0.0619,-0.0157,70,0.921,17,1.268,-7.72,-15.4937,0.0736,-0.1172,0.1236,39
1.39,26,9.2511,-2.8777,-9.7746,-0.0083,-0.021,-0.0167,70,0.973,18,1.2023,-7.9,-15.4799,0.0584,-0.1137,0.1016,39
1.442,27,9.2405,-2.8997,-9.7294,-0.0288,0.0089,-0.0255,70,1.025,19,1.1022,-7.9602,-15.3829,0.0723,-0.1228,0.0581,39
1.494,28,9.1707,-2.9943,-9.6343,-0.037,0.0243,-0.0267,70,1.076,20,0.9817,-7.9352,-15.222,0.0727,-0.13,0.0288,39
1.546,29,9.2037,-2.9382,-9.5511,0.0026,-0.007,-0.0331,70,1.128,21,0.8462,-7.9172,-15.1247,0.069,-0.1285,0.0021,39
1.597,30,9.1668,-3.0339,-9.5889,0.0651,-0.0513,-0.0317,70,1.18,22,0.8267,-7.9512,-15.1708,0.0666,-0.114,-0.0447,39
1.649,31,9.0064,-3.212,-9.6161,0.1381,-0.0772,-0.0082,70,1.232,23,0.9216,-7.9403,-15.2623,0.0783,-0.0812,-0.0982,39
1.701,32,9.1565,-3.0829,-9.6425,0.2213,-0.1268,0.0117,70,1.283,24,0.9244,-7.9388,-15.3144,0.0368,-0.0205,-0.1194,39
1.753,33,9.2779,-2.8993,-9.7405,0.2227,-0.1581,0.0186,70,1.335,25,0.8414,-7.9323,-15.3385,-0.0088,0.0536,-0.1193,39
1.805,34,9.2949,-2.9452,-9.8059,0.1401,-0.1377,0.0158,70,1.387,26,0.9041,-7.8879,-15.3528,-0.0782,0.1527,-0.0903,39
1.857,35,9.245,-2.9514,-9.8151,0.1251,-0.1234,0.0106,70,1.439,27,0.9504,-7.8553,-15.3484,-0.1305,0.2275,-0.0575,39
1.908,36,9.2422,-2.905,-9.8673,0.0792,-0.1069,0.0075,70,1.491,28,1.0321,-7.8419,-15.363,-0.1215,0.2672,-0.0445,39
1.96,37,9.3247,-2.7575,-9.9193,-0.0111,-0.0808,0.0058,70,1.542,29,1.0773,-7.8621,-15.3813,-0.0608,0.261,-0.0631,39
2.012,38,9.2251,-2.9524,-9.9965,-0.028,-0.0648,0.0026,70,1.594,30,1.171,-7.9404,-15.4759,-0.0082,0.2202,-0.1076,39
2.064,39,9.2382,-2.9056,-10.0449,-0.0717,-0.0368,0.004,70,1.646,31,1.3679,-8.0829,-15.6372,0.0271,0.1531,-0.1494,39
2.115,40,9.2298,-2.9499,-10.0974,-0.0855,-0.0172,0.0012,70,1.698,32,1.5128,-8.1481,-15.7215,0.0716,0.0674,-0.1671,39
2.167,41,9.1991,-3.0012,-10.0652,-0.0822,0.003,-0.0016,70,1.75,33,1.5521,-8.0953,-15.6911,0.1044,-0.0187,-0.171,39
2.219,42,9.1588,-2.9431,-10.0059,-0.018,-0.0064,-0.0066,70,1.801,34,1.55,-7.9923,-15.6251,0.1051,-0.0917,-0.1703,39
2.271,43,9.1046,-3.0358,-9.9535,0.0109,-0.0233,-0.0025,70,1.853,35,1.5452,-7.9488,-15.5226,0.0951,-0.1415,-0.1649,39
2.323,44,9.1052,-3.055,-10.005,0.038,-0.0403,0.0063,70,1.905,36,1.5608,-7.9087,-15.436,0.0714,-0.1658,-0.1549,39
2.374,45,9.1639,-3.0259,-10.0395,0.0591,-0.0534,0.0126,70,1.956,37,1.5805,-7.8745,-15.3407,0.0467,-0.1595,-0.143,39
2.426,46,9.2499,-2.9272,-10.1359,0.0382,-0.0485,0.0166,70,2.008,38,1.6329,-7.8632,-15.2638,0.017,-0.1283,-0.1305,39
2.478,47,9.2469,-2.9324,-10.1391,-0.0212,-0.0214,0.0225,70,2.06,39,1.6872,-7.9357,-15.2617,-0.0145,-0.0842,-0.1115,39
2.53,48,9.2313,-2.9863,-10.1168,-0.1048,-0.0007,0.0244,70,2.112,40,1.7365,-7.9214,-15.2212,-0.0288,-0.0312,-0.0949,39
2.582,49,9.1699,-3.0486,-10.1631,-0.1128,0.0127,0.0226,70,2.164,41,1.7709,-7.9341,-15.25,-0.0199,0.0141,-0.0735,39
2.633,50,9.167,-3.0286,-10.1536,-0.1049,0.0212,0.0214,70,2.215,42,1.8112,-7.9302,-15.3124,-0.006,0.0465,-0.0563,39
2.685,51,9.1846,-3.0197,-10.1628,-0.1089,0.0287,0.0193,70,2.267,43,1.8316,-7.9305,-15.3685,-0.0007,0.0648,-0.0466,39
2.737,52,9.1584,-3.0572,-10.1569,-0.1088,0.034,0.0169,70,2.319,44,1.8374,-7.8994,-15.4041,0.0076,0.0653,-0.0463,39
2.789,53,9.1662,-3.0484,-10.0992,-0.0891,0.032,0.0133,70,2.371,45,1.8167,-7.8763,-15.4439,0.0095,0.0577,-0.0464,39
2.841,54,9.0902,-3.05,-10.1409,-0.02,0.0148,0.0064,70,2.422,46,1.8128,-7.8604,-15.4608,-0.0053,0.0438,-0.0355,39
2.892,55,9.1069,-3.0439,-10.1715,-0.0162,0.0178,0.0102,70,2.474,47,1.7972,-7.8721,-15.4763,-0.028,0.0265,-0.0061,39
2.944,56,9.1261,-3.0218,-10.1416,-0.0253,0.0276,0.0116,70,2.526,48,1.8275,-7.8563,-15.4681,-0.0491,0.0156,0.0272,39
2.996,57,9.121,-3.0861,-10.1267,-0.0505,0.0337,0.009,70,2.578,49,1.8169,-7.8075,-15.4493,-0.0755,0.0171,0.0513,39
3.048,58,9.1152,-3.0727,-10.0991,-0.061,0.0386,0.0018,70,2.63,50,1.8099,-7.8041,-15.3985,-0.0965,0.0254,0.0678,39
3.1,59,9.0673,-3.1383,-10.0731,-0.039,0.0327,-0.0045,70,2.681,51,1.805,-7.7672,-15.3503,-0.1025,0.0388,0.0665,39
3.151,60,8.9865,-3.2786,-9.9872,0.0573,0.0106,-0.0122,70,2.733,52,1.7766,-7.7391,-15.312,-0.0835,0.0496,0.0438,39
3.203,61,8.8696,-3.3033,-9.9087,0.2907,-0.0477,0.0051,70,2.785,53,1.7226,-7.7217,-15.2671,-0.0183,0.055,-0.0048,39
3.255,62,9.2413,-2.7798,-9.9335,0.2584,-0.1101,0.0033,70,2.837,54,1.7008,-7.6776,-15.1998,0.0612,0.0591,-0.0638,39
3.307,63,9.3258,-2.6875,-10.147,0.1125,-0.104,-0.008,70,2.889,55,1.8014,-7.7862,-15.251,0.0732,0.0464,-0.095,39
3.359,64,9.2191,-3.0031,-10.2027,-0.0203,-0.0505,-0.0027,70,2.94,56,1.9999,-7.9839,-15.3997,0.0736,0.0299,-0.0842,39
3.41,65,9.2303,-2.9993,-10.1542,-0.0167,-0.0101,-0.0126,70,2.992,57,2.0981,-8.0431,-15.4192,0.1,0.0163,-0.0442,39
3.462,66,9.1004,-3.1473,-10.0204,0.0516,-0.0039,-0.01,70,3.044,58,2.0923,-7.9613,-15.3061,0.1099,-0.0038,0.0104,39
3.514,67,9.1931,-2.9557,-9.9328,0.21,-0.0478,-0.0063,70,3.096,59,1.9807,-7.8559,-15.1904,0.1334,-0.0119,0.0224,39
3.566,68,9.2439,-2.8878,-9.9333,0.1821,-0.0878,-0.0011,70,3.147,60,2.0624,-7.8211,-15.1698,0.1059,-0.0312,0.0007,39
3.618,69,9.2912,-2.8101,-10.0423,0.1804,-0.0998,-0.0074,70,3.199,61,2.1947,-7.896,-15.2702,0.0959,-0.0339,-0.0254,39
3.669,70,9.2778,-2.8387,-10.1347,0.1014,-0.0689,-0.0019,70,3.251,62,2.2215,-7.9068,-15.2801,0.1005,-0.0205,-0.04,39
3.721,71,9.2306,-2.9601,-10.1445,0.0757,-0.0413,-0.0005,70,3.303,63,2.1278,-7.8475,-15.1945,0.0641,-0.009,-0.041,39
3.773,72,9.2261,-2.9118,-10.1449,0.0533,-0.0255,-0.0029,70,3.355,64,1.997,-7.7969,-15.1151,0.0286,-0.0025,-0.0418,39
3.825,73,9.2143,-2.8795,-10.165,0.0293,-0.0107,-0.0041,70,3.406,65,1.8843,-7.8199,-15.0727,0.0385,-0.0037,-0.0699,39
3.877,74,9.1741,-2.9256,-10.1366,-0.0523,0.015,-0.0013,70,3.458,66,1.944,-7.9342,-15.1055,0.065,-0.0254,-0.0985,39
3.928,75,9.1164,-3.1077,-10.1598,-0.0324,0.0093,0.001,70,3.51,67,2.094,-8.0755,-15.222,0.0809,-0.068,-0.1117,39
3.98,76,9.1259,-3.1099,-10.1539,0.0108,0.0017,0.011,70,3.562,68,2.1504,-8.1078,-15.2594,0.1126,-0.1133,-0.1054,39
4.032,77,9.0981,-3.1437,-10.1275,0.0737,-0.0156,0.0187,70,3.613,69,2.1066,-8.0394,-15.1746,0.1264,-0.1495,-0.0977,39
4.084,78,9.1804,-2.9679,-10.1305,0.0638,-0.0279,0.0229,70,3.665,70,2.0958,-7.958,-15.0972,0.1095,-0.1718,-0.0943,39
4.136,79,9.2334,-2.9075,-10.1909,-0.0266,0.0026,0.0313,70,3.717,71,2.1083,-7.9491,-15.0615,0.0877,-0.1765,-0.0934,39
4.187,80,9.1099,-3.0884,-10.1955,-0.1428,0.0666,0.0399,70,3.769,72,2.2484,-8.029,-14.9887,0.0596,-0.1712,-0.0776,39
4.239,81,9.1654,-3.0103,-10.1869,-0.151,0.0845,0.0293,70,3.821,73,2.3139,-8.0884,-14.9586,0.0318,-0.1371,-0.0493,39
4.291,82,9.1269,-3.0278,-10.2019,-0.1808,0.0863,0.0284,70,3.872,74,2.3402,-8.1067,-14.8978,-0.0006,-0.0775,-0.0059,39
4.343,83,9.0725,-3.0519,-10.1308,-0.1709,0.0899,0.03,70,3.924,75,2.3073,-8.0501,-14.8394,-0.0309,-0.0079,0.0363,39
4.394,84,9.0444,-3.1164,-10.0552,-0.1652,0.0755,0.0305,70,3.976,76,2.2683,-7.9939,-14.7624,-0.013,0.0611,0.0685,39
4.446,85,8.9935,-3.1592,-10.0564,-0.13,0.046,0.0251,70,4.027,77,2.2534,-7.9154,-14.7251,-0.0105,0.1339,0.0613,39
4.498,86,9.1079,-3.101,-10.0571,-0.1238,0.0176,0.0224,70,4.079,78,2.2799,-7.9347,-14.8093,-0.0304,0.2035,0.0517,39
4.55,87,9.0942,-3.1661,-10.104,-0.1031,0.0118,0.0233,70,4.131,79,2.3336,-7.979,-14.9646,-0.0972,0.2572,0.0677,39
4.602,88,9.0321,-3.2676,-10.1077,-0.0213,0.0061,0.0186,70,4.183,80,2.3171,-7.9658,-15.1632,-0.1687,0.2927,0.1119,39
4.654,89,8.9734,-3.2927,-10.0051,0.0797,-0.0137,0.0198,70,4.235,81,2.2184,-7.8923,-15.2728,-0.2115,0.307,0.1576,39
4.705,90,9.2148,-3.0295,-10.0192,0.0948,-0.0423,0.0121,70,4.286,82,2.1161,-7.7818,-15.264,-0.2341,0.3021,0.1833,39
4.757,91,9.2308,-3.0557,-10.0854,0.0446,-0.0491,0.0091,70,4.338,83,2.062,-7.7785,-15.0325,-0.2188,0.2949,0.174,39
4.809,92,9.2498,-3.0383,-10.1667,0.0151,-0.0328,0.0051,70,4.39,84,2.0122,-7.7024,-14.8422,-0.166,0.2916,0.1304,39
4.861,93,9.209,-3.0236,-10.174,-0.0541,-0.0043,0.0019,70,4.442,85,2.1007,-7.8342,-14.848,-0.1391,0.2785,0.0771,39
4.913,94,9.0907,-3.1621,-10.1567,-0.0347,-0.0024,0.0004,70,4.494,86,2.2966,-8.0991,-15.0329,-0.09,0.261,0.0486,39
4.964,95,9.0837,-3.2189,-10.1171,-0.0149,-0.0084,0.0012,70,4.546,87,2.3756,-8.2188,-15.1625,-0.0106,0.2393,0.0617,39
5.016,96,9.1505,-3.146,-10.1237,-0.0061,-0.0159,0.0007,70,4.598,88,2.3844,-8.1791,-15.2078,0.0608,0.1961,0.0759,39
5.068,97,9.1471,-3.1582,-10.1591,-0.0033,-0.015,0.0039,70,4.649,89,2.3527,-8.0496,-15.1763,0.0814,0.1473,0.0793,39
5.12,98,9.1227,-3.164,-10.1704,-0.0035,-0.009,0.0032,70,4.701,90,2.2906,-7.8856,-15.1408,0.0615,0.0983,0.0734,39
5.171,99,9.116,-3.158,-10.1786,-0.0133,-0.0028,0.0046,70,4.753,91,2.2331,-7.7466,-15.1378,0.0499,0.0545,0.0549,39
5.223,100,9.0734,-3.1823,-10.1953,-0.0252,0.0011,0.0067,70,4.804,92,2.2421,-7.6971,-15.1432,0.0437,0.0205,0.0266,39
5.275,101,9.0596,-3.1805,-10.169,-0.019,-0.017,0.0061,70,4.856,93,2.2692,-7.6949,-15.1338,0.0261,-0.0056,-0.0003,39
5.327,102,9.0844,-3.2427,-10.1817,0.0213,-0.0336,0.0034,70,4.908,94,2.3093,-7.7158,-15.1259,0.0053,-0.0348,-0.0282,39
5.379,103,8.9821,-3.2695,-10.214,0.0998,-0.0427,0.0084,70,4.96,95,2.3915,-7.7966,-15.1424,-0.0141,-0.0624,-0.0544,39
5.43,104,9.0891,-3.1537,-10.2263,0.0716,-0.0535,0.0064,70,5.012,96,2.4521,-7.8592,-15.1114,-0.0307,-0.0853,-0.0707,39
5.482,105,9.1498,-3.0691,-10.3151,0.0156,-0.0473,0.0066,70,5.063,97,2.4952,-7.9001,-15.0211,-0.0406,-0.1,-0.0741,39
5.534,106,9.1024,-3.1905,-10.3206,-0.0689,-0.0267,0.0071,70,5.115,98,2.4389,-7.952,-15.0015,-0.0441,-0.1003,-0.0606,39
5.586,107,9.1259,-3.1841,-10.3909,-0.0674,-0.0061,-0.0054,70,5.167,99,2.3525,-7.9828,-14.9692,-0.0462,-0.0876,-0.0317,39
5.637,108,9.1384,-3.1427,-10.3266,-0.0426,0.0168,-0.0096,70,5.219,100,2.3246,-7.933,-14.9441,-0.0247,-0.0662,-0.003,39
5.689,109,9.1189,-3.1336,-10.2699,-0.0316,0.0253,-0.0128,70,5.27,101,2.3056,-7.9062,-14.9572,-0.019,-0.0379,0.0064,39
5.741,110,9.1086,-3.1209,-10.2439,-0.0259,0.0292,-0.0124,70,5.322,102,2.3815,-7.8809,-15.0056,-0.0035,-0.0235,0.0065,39
5.793,111,9.1375,-3.0811,-10.2412,-0.0175,0.0287,-0.0085,70,5.374,103,2.4637,-7.8565,-15.1035,0.0042,-0.0105,0.0044,39
5.845,112,9.1153,-3.1265,-10.2213,-0.0232,0.0251,-0.0047,70,5.426,104,2.4758,-7.8541,-15.1636,-0.0092,0.0058,-0.0095,39
5.897,113,9.1142,-3.1632,-10.2321,-0.0039,0.0274,-0.0054,70,5.478,105,2.4233,-7.819,-15.1793,-0.0229,0.0149,-0.0241,39
5.948,114,9.1377,-3.1113,-10.1942,0.0158,0.0326,-0.0051,70,5.529,106,2.3738,-7.7992,-15.1808,-0.0263,0.0111,-0.036,39
6.0,115,9.0894,-3.1555,-10.1542,0.0329,0.0234,-0.0073,70,5.581,107,2.3622,-7.7893,-15.1578,-0.0279,-0.0109,-0.0389,39
6.052,116,9.0929,-3.1561,-10.1603,0.063,0.0105,-0.0052,70,5.633,108,2.3714,-7.7653,-15.1529,-0.0583,-0.0341,-0.0276,39
6.104,117,9.1414,-3.0647,-10.1529,0.0497,0.0046,0.0011,70,5.685,109,2.3878,-7.7828,-15.2129,-0.0738,-0.0541,-0.0203,39
6.156,118,9.1495,-3.0561,-10.1875,0.0223,0.0077,0.0032,70,5.736,110,2.4184,-7.7557,-15.2389,-0.0438,-0.0569,-0.0177,39
6.207,119,9.1339,-3.1183,-10.1568,0.0078,0.0153,0.0043,70,5.788,111,2.4321,-7.7045,-15.2102,-0.0442,-0.0523,-0.0128,39
6.259,120,9.1047,-3.1454,-10.1348,0.0106,0.0217,0.003,70,5.84,112,2.426,-7.683,-15.2268,-0.06,-0.0447,-0.008,39
6.311,121,9.101,-3.1809,-10.0951,0.0112,0.0216,0.0066,70,5.892,113,2.4178,-7.6746,-15.2673,-0.0386,-0.0314,-0.0089,39
6.363,122,9.1181,-3.1391,-10.0982,0.0168,0.0106,0.0054,70,5.944,114,2.4056,-7.6489,-15.2859,-0.0256,-0.021,-0.0108,39
6.415,123,9.1412,-3.1391,-10.084,0.0165,0.0023,0.0014,70,5.995,115,2.413,-7.6581,-15.3318,-0.0268,-0.0181,-0.0132,39
6.466,124,9.1528,-3.144,-10.0978,0.0227,-0.0049,0.0019,70,6.047,116,2.4383,-7.6915,-15.3763,-0.0226,-0.0163,-0.012,39
6.518,125,9.1433,-3.138,-10.0948,0.0174,-0.0085,0.0045,70,6.099,117,2.4465,-7.6995,-15.3969,-0.025,-0.015,-0.0022,39
6.57,126,9.1557,-3.1031,-10.1427,0.0038,-0.0095,0.0034,70,6.151,118,2.3919,-7.6673,-15.38,-0.0304,-0.0145,0.0102,39
6.622,127,9.13,-3.1353,-10.1199,-0.0322,-0.0029,0.0057,70,6.203,119,2.3615,-7.6259,-15.3497,-0.0274,-0.0172,0.0122,39
6.674,128,9.1356,-3.1266,-10.1345,-0.0211,-0.0066,0.0036,70,6.254,120,2.3656,-7.6226,-15.3351,-0.0239,-0.018,0.0081,39
6.725,129,9.1047,-3.1268,-10.1145,-0.011,-0.0144,0.006,70,6.306,121,2.4012,-7.6412,-15.3678,-0.0182,-0.0195,0.0002,39
6.777,130,9.1072,-3.0912,-10.152,-0.004,-0.0202,0.0094,70,6.358,122,2.4378,-7.6774,-15.4191,-0.0065,-0.0202,-0.0061,39
6.829,131,9.1206,-3.098,-10.1617,-0.0083,-0.0163,0.0131,70,6.41,123,2.4503,-7.7086,-15.4485,-0.002,-0.0251,-0.0049,39
6.881,132,9.11,-3.1149,-10.1642,-0.0215,-0.0122,0.0154,70,6.462,124,2.4312,-7.7429,-15.4758,-0.0068,-0.0335,0.0066,39
6.933,133,9.1339,-3.1132,-10.1723,-0.0393,-0.0055,0.0207,70,6.513,125,2.3838,-7.8185,-15.5082,-0.0126,-0.0452,0.0358,39
6.984,134,9.1179,-3.1159,-10.1833,-0.0284,0.0021,0.0184,70,6.565,126,2.3217,-7.8839,-15.5078,-0.0132,-0.0557,0.0816,39
7.036,135,9.143,-3.1181,-10.1652,-0.0266,0.0087,0.0244,70,6.617,127,2.2282,-7.8477,-15.4189,-0.0017,-0.0565,0.1321,39
7.088,136,9.1779,-3.0999,-10.2103,-0.0475,0.0227,0.0316,70,6.669,128,2.1293,-7.7007,-15.2855,0.0216,-0.033,0.1559,39
7.14,137,9.1325,-3.1876,-10.1783,-0.0761,0.0391,0.0377,70,6.721,129,2.0923,-7.5932,-15.2016,0.0246,0.0079,0.1527,39
7.191,138,9.098,-3.2131,-10.1676,-0.068,0.0384,0.0317,70,6.772,130,2.1067,-7.6058,-15.2715,0.0124,0.0541,0.1373,39
7.243,139,9.0891,-3.209,-10.1333,-0.067,0.0363,0.0314,70,6.824,131,2.1434,-7.7272,-15.4305,-0.0008,0.0941,0.138,39
7.295,140,9.1197,-3.1997,-10.1182,-0.0826,0.0347,0.0337,70,6.876,132,2.0687,-7.7747,-15.5152,-0.0006,0.1101,0.155,39
7.347,141,9.098,-3.1864,-10.1149,-0.0601,0.0839,0.0388,70,6.928,133,1.9545,-7.7207,-15.5106,-0.0006,0.1117,0.1698,39
7.399,142,9.0865,-3.2276,-10.0804,-0.0506,0.0938,0.0345,70,6.98,134,1.8632,-7.6323,-15.4845,-0.0232,0.1129,0.164,39
7.451,143,9.0192,-3.2871,-10.0288,-0.0537,0.0746,0.0266,70,7.031,135,1.8093,-7.6096,-15.4751,-0.0601,0.1124,0.1445,39
7.502,144,9.0233,-3.2971,-10.0017,-0.056,0.0508,0.0193,70,7.083,136,1.8251,-7.6676,-15.5105,-0.0761,0.107,0.1233,39
7.554,145,8.9936,-3.368,-9.9975,-0.0552,0.0323,0.0128,70,7.135,137,1.8199,-7.6649,-15.4549,-0.0729,0.098,0.0923,39
7.606,146,9.0258,-3.3101,-9.9964,-0.0362,0.0104,0.0081,70,7.187,138,1.8339,-7.6512,-15.4046,-0.0762,0.0864,0.0488,39
7.658,147,9.0639,-3.3006,-10.03,-0.054,-0.0129,-0.0002,70,7.239,139,1.8798,-7.7228,-15.4215,-0.0768,0.0793,0.0053,39
7.709,148,9.0832,-3.2877,-10.0731,-0.0718,-0.0112,-0.0006,70,7.291,140,1.9522,-7.8368,-15.464,-0.0776,0.0747,-0.0151,39
7.761,149,9.0952,-3.2802,-10.0452,-0.0664,-0.0055,-0.0056,70,7.343,141,1.9909,-7.8937,-15.4944,-0.0806,0.067,-0.0116,39
7.813,150,9.0464,-3.309,-10.0158,-0.0512,-0.0075,-0.0079,70,7.394,142,2.0385,-7.883,-15.5892,-0.1078,0.0423,0.0129,39
7.865,151,9.0779,-3.2917,-10.0493,-0.039,-0.0194,-0.0119,70,7.446,143,2.0265,-7.8252,-15.703,-0.1053,0.0264,0.0479,39
7.917,152,9.0564,-3.2987,-10.0786,-0.0205,-0.0229,-0.0146,70,7.498,144,1.9367,-7.7281,-15.7034,-0.1147,0.0157,0.0878,39
7.968,153,9.0139,-3.3309,-10.1178,0.0112,-0.0209,-0.0147,70,7.55,145,1.8073,-7.5563,-15.652,-0.1126,-0.0031,0.0982,39
8.02,154,9.1086,-3.2046,-10.1267,0.0613,-0.023,-0.019,70,7.601,146,1.7057,-7.4911,-15.6273,-0.1092,-0.015,0.0798,39
8.072,155,9.0683,-3.2551,-10.1231,0.0883,-0.0231,-0.0158,70,7.653,147,1.6489,-7.4903,-15.6619,-0.1225,-0.0223,0.0587,39
8.124,156,8.9942,-3.3875,-10.0475,0.1075,-0.0282,-0.0063,70,7.705,148,1.6733,-7.626,-15.8452,-0.1366,-0.0297,0.0631,39
8.176,157,9.1971,-3.0869,-10.082,0.0829,-0.0434,-0.0112,70,7.757,149,1.6096,-7.6238,-15.868,-0.0971,-0.042,0.0781,39
8.227,158,9.2084,-3.0957,-10.1532,0.0523,-0.0377,-0.0147,70,7.809,150,1.5433,-7.5645,-15.7757,-0.0498,-0.0612,0.0755,39
8.279,159,9.1402,-3.1852,-10.1809,0.0375,-0.0167,-0.013,70,7.86,151,1.482,-7.4745,-15.698,-0.0426,-0.0716,0.0521,39
8.331,160,9.1348,-3.1632,-10.1312,0.0239,-0.0081,-0.0133,70,7.912,152,1.4643,-7.4424,-15.7437,-0.0054,-0.0723,0.0155,39
8.383,161,9.1222,-3.1515,-10.1399,0.0055,-0.0019,-0.0112,70,7.964,153,1.5394,-7.4298,-15.8072,0.0322,-0.0693,-0.0202,39
8.434,162,9.0833,-3.1834,-10.1282,-0.0163,0.0083,-0.0087,70,8.016,154,1.5986,-7.4195,-15.8385,0.038,-0.0699,-0.0475,39
8.486,163,9.0939,-3.1795,-10.0785,-0.0202,0.005,-0.0105,70,8.067,155,1.682,-7.3814,-15.8553,0.0338,-0.0673,-0.0773,39
8.538,164,9.1169,-3.178,-10.1056,-0.0184,0.0016,-0.0128,70,8.119,156,1.7538,-7.3419,-15.8569,0.0348,-0.0494,-0.1159,39
8.59,165,9.0909,-3.1935,-10.142,-0.0186,0.0088,-0.0093,70,8.171,157,1.8515,-7.3657,-15.8473,0.0212,-0.0123,-0.1519,39
8.642,166,9.0701,-3.2165,-10.1199,-0.0195,0.0137,-0.0064,70,8.223,158,1.8529,-7.4121,-15.7795,0.018,0.0156,-0.1791,39
8.693,167,9.143,-3.147,-10.125,-0.0263,0.0173,-0.0055,70,8.275,159,1.9111,-7.5204,-15.7971,0.0255,0.0243,-0.1939,39
8.745,168,9.0525,-3.2185,-10.1041,-0.0146,0.0248,-0.0054,70,8.326,160,1.984,-7.6068,-15.8468,0.0386,0.0289,-0.1877,39
8.797,169,9.0558,-3.2097,-10.0852,0.02,0.0134,-0.0116,70,8.378,161,2.0178,-7.6382,-15.8546,0.0642,0.0201,-0.1712,39
8.849,170,9.0217,-3.2351,-10.0749,0.056,-0.005,-0.0163,70,8.43,162,2.0242,-7.6453,-15.8331,0.0716,0.0006,-0.1448,39
8.901,171,9.1174,-3.081,-10.0603,0.0705,-0.0175,-0.0183,70,8.482,163,2.0546,-7.6511,-15.9547,0.0807,-0.0362,-0.1234,39
8.952,172,9.1917,-3.0319,-10.0522,0.0763,-0.0292,-0.0233,70,8.533,164,2.0114,-8.0285,-16.2292,0.1604,-0.0929,-0.1477,39
9.004,173,9.1537,-3.0977,-10.0878,0.075,-0.0347,-0.0255,70,8.585,165,2.0945,-7.8151,-15.8724,0.1619,-0.0792,-0.1154,39
9.056,174,8.9821,-3.3321,-9.9728,0.1161,-0.0316,-0.0179,70,8.637,166,2.0794,-7.7041,-15.7186,0.2033,-0.1308,-0.0903,39
9.108,175,9.0101,-3.2425,-9.9032,0.296,-0.0715,-0.0069,70,8.689,167,1.7778,-7.6932,-15.8207,0.1478,-0.2212,-0.0521,39
9.16,176,9.1351,-3.09,-10.12,0.1629,-0.0996,-0.0006,70,8.741,168,1.8634,-7.8988,-15.6272,0.0364,-0.2427,0.0187,39
9.212,177,9.2551,-3.0221,-10.2226,0.0736,-0.0685,-0.0069,70,8.792,169,2.0262,-7.8149,-15.3695,0.0383,-0.2676,0.0836,39
9.263,178,9.1266,-3.1995,-10.2004,0.0766,-0.0327,-0.0209,70,8.844,170,1.8977,-7.692,-15.4217,0.0301,-0.2667,0.1418,39
9.315,179,9.1543,-3.0801,-10.1443,0.1145,-0.0131,-0.0251,70,8.896,171,1.7395,-7.8992,-15.6504,0.0711,-0.2322,0.2199,39
9.367,180,9.1321,-3.1617,-10.0528,0.1231,-0.0068,-0.0196,70,8.948,172,1.5927,-8.3337,-16.061,0.0628,-0.2602,0.3078,39
9.419,181,9.1226,-3.1695,-10.0023,0.1837,-0.0238,-0.0214,70,9.0,173,1.1529,-8.1235,-16.0028,0.0345,-0.3346,0.3624,39
9.47,182,9.1026,-3.2434,-9.991,0.2466,-0.0634,-0.0359,70,9.051,174,0.9719,-7.859,-15.809,0.0512,-0.4099,0.3653,39
9.522,183,9.2004,-2.9689,-9.9842,0.3037,-0.0999,-0.0328,70,9.103,175,0.8106,-7.5939,-15.7068,0.0508,-0.4196,0.2925,39
9.574,184,9.2453,-2.8199,-10.0573,0.2584,-0.0948,-0.0204,70,9.155,176,0.6449,-7.4667,-15.6385,-0.0164,-0.372,0.2103,39
9.626,185,9.2416,-2.8271,-10.06,0.0637,-0.0419,0.0019,70,9.207,177,0.4104,-7.424,-15.7331,-0.0856,-0.3178,0.149,39
9.678,186,9.2701,-2.9689,-10.0882,-0.2043,0.0229,0.0201,70,9.258,178,0.181,-7.6144,-15.7369,-0.1017,-0.2505,0.1264,39
9.729,187,9.2193,-3.1292,-10.1064,-0.2164,0.0546,0.0279,70,9.31,179,-0.0398,-7.5736,-15.8542,-0.1114,-0.1765,0.1288,39
9.781,188,9.1524,-3.1981,-9.9978,-0.1516,0.0542,0.0207,70,9.362,180,-0.1761,-7.4989,-15.6724,-0.0939,-0.1496,0.1262,39
9.833,189,9.15,-3.1045,-9.9828,-0.0703,0.0316,0.0146,70,9.414,181,-0.2377,-7.5137,-15.7278,-0.1039,-0.0704,0.099,39
9.884,190,9.0987,-3.1538,-10.0102,-0.0235,0.0181,0.0137,70,9.465,182,-0.2816,-7.6268,-15.8088,-0.0723,-0.0351,0.0721,39
9.936,191,9.1138,-3.0813,-10.0142,0.0122,0.0116,0.0176,70,9.517,183,-0.2244,-7.535,-15.7128,-0.0042,0.0208,0.0329,39
9.988,192,9.0677,-3.1616,-10.0037,-0.0078,0.0082,0.0202,70,9.569,184,-0.2199,-7.3379,-15.473,0.1212,0.1098,-0.042,39
10.04,193,9.0671,-3.1665,-10.0109,0.0321,-0.0071,0.0149,70,9.621,185,-0.2651,-7.0667,-15.3298,0.2861,0.249,-0.1915,39
10.092,194,9.1652,-3.0434,-10.0283,0.0819,-0.021,0.0102,70,9.673,186,-0.0267,-6.9261,-15.0844,0.3493,0.3881,-0.385,39
10.143,195,9.2013,-3.0381,-10.0436,0.0289,-0.0077,0.0136,70,9.724,187,0.3697,-7.1552,-14.7806,0.3715,0.5137,-0.5576,39
10.195,196,9.3229,-2.9597,-10.0583,-0.0727,0.0332,0.0198,70,9.776,188,0.8422,-7.2152,-14.732,0.3974,0.5913,-0.6861,39
10.247,197,9.2414,-3.0901,-10.0599,-0.1278,0.0775,0.0221,70,9.828,189,1.4886,-7.5636,-14.8976,0.2422,0.6255,-0.7537,39
10.299,198,9.1628,-3.1391,-10.0356,-0.1036,0.0877,0.022,70,9.88,190,2.1315,-8.2223,-15.3123,0.0452,0.6356,-0.6688,39
10.351,199,9.1795,-3.0943,-9.9747,-0.0882,0.0803,0.0197,70,9.931,191,2.5366,-8.5924,-15.5943,-0.0028,0.5792,-0.5179,39
10.403,200,9.1294,-3.138,-9.9474,-0.0836,0.0702,0.012,70,9.983,192,2.7561,-8.6732,-15.7025,-0.0153,0.4776,-0.3439,39
10.454,201,9.1019,-3.1703,-9.8797,-0.0458,0.0574,0.0037,70,10.035,193,2.8266,-8.4593,-15.5298,-0.0029,0.3421,-0.1856,39
10.506,202,9.1467,-3.0953,-9.8262,-0.0268,0.0448,0.0049,70,10.087,194,2.8013,-8.1589,-15.3143,0.0324,0.2214,-0.0866,39
10.558,203,9.131,-3.1408,-9.8304,-0.031,0.0336,0.0019,70,10.139,195,2.8076,-7.8883,-15.1169,0.0421,0.1318,-0.0369,39
10.61,204,9.0995,-3.1977,-9.8387,0.0021,0.0217,-0.0026,70,10.19,196,2.8657,-7.6971,-15.0095,0.0307,0.0741,-0.0313,39
10.661,205,9.1304,-3.0927,-9.8451,0.0308,0.017,0.0002,70,10.242,197,2.9848,-7.6936,-14.9691,0.0175,0.0403,-0.0332,39
10.713,206,9.1451,-3.091,-9.8355,0.0019,0.018,0.0044,70,10.294,198,3.1356,-7.736,-14.9747,0.0016,0.0191,-0.032,39
10.765,207,9.1509,-3.0887,-9.8285,-0.0199,0.0168,0.0048,70,10.346,199,3.1904,-7.8965,-14.8858,-0.0039,0.0349,-0.0239,39
10.817,208,9.1139,-3.154,-9.8406,-0.0229,0.0155,0.0069,70,10.398,200,3.1067,-7.7196,-14.7822,-0.0049,0.0404,-0.0434,39
10.869,209,9.1184,-3.1633,-9.8168,-0.0218,0.0163,0.0082,70,10.449,201,3.1637,-7.5159,-14.7125,-0.1214,0.0156,-0.0691,39
10.92,210,9.1094,-3.1642,-9.7848,-0.0124,0.0141,0.0067,70,10.501,202,3.2671,-7.541,-14.8102,-0.1084,0.0089,-0.0884,39
10.972,211,9.1188,-3.1363,-9.7723,-0.0013,0.0037,0.0073,70,10.553,203,3.2856,-7.5215,-14.9521,-0.0506,0.0009,-0.0959,39
11.024,212,9.1372,-3.1291,-9.7874,0.0026,-0.0056,0.0058,70,10.605,204,3.3281,-7.6545,-14.9729,-0.0234,-0.0127,-0.088,39
11.076,213,9.1354,-3.1228,-9.8298,0.0199,-0.0109,0.0031,70,10.657,205,3.3301,-7.6515,-14.914,-0.02,-0.0205,-0.0572,39
11.127,214,9.1436,-3.1435,-9.8502,0.0144,-0.0097,0.0009,70,10.708,206,3.2452,-7.5639,-14.8276,-0.0293,-0.0214,-0.0267,39
11.179,215,9.1802,-3.1092,-9.8607,0.0012,-0.0014,-0.0026,70,10.76,207,3.1704,-7.5227,-14.8115,-0.0214,-0.0165,-0.0118,39
11.231,216,9.1757,-3.1073,-9.8628,-0.0228,0.0185,-0.0,70,10.812,208,3.1645,-7.5167,-14.821,0.0015,-0.0019,-0.0084,39
11.283,217,9.1549,-3.1469,-9.8114,-0.0348,0.0335,0.0039,70,10.864,209,3.2008,-7.543,-14.8617,0.0137,0.0154,-0.0023,39
11.335,218,9.1338,-3.1793,-9.8104,-0.0013,0.0256,0.0002,70,10.915,210,3.2144,-7.5605,-14.9191,0.0178,0.0323,0.0061,39
11.386,219,9.137,-3.1172,-9.8204,0.0098,0.0238,0.0028,70,10.967,211,3.181,-7.5593,-14.9692,0.0038,0.0448,0.0208,39
11.438,220,9.1572,-3.0851,-9.8033,-0.0091,0.0233,-0.0008,70,11.019,212,3.2031,-7.595,-15.0413,-0.041,0.0423,0.042,39
11.49,221,9.1439,-3.1132,-9.8008,-0.0389,0.0244,-0.0016,70,11.071,213,3.2177,-7.6041,-15.0767,-0.0562,0.0275,0.0652,39
11.542,222,9.16,-3.1008,-9.8024,-0.037,0.0291,-0.0047,70,11.123,214,3.1588,-7.6079,-15.0602,-0.0599,0.0,0.0762,39
11.594,223,9.0947,-3.1777,-9.7709,-0.0162,0.0338,-0.0033,70,11.174,215,3.1028,-7.559,-15.004,-0.0708,-0.0312,0.0755,39
11.645,224,9.1071,-3.1324,-9.7536,0.0131,0.0362,-0.0026,70,11.226,216,3.0313,-7.5067,-14.9922,-0.0603,-0.0586,0.0604,39
11.697,225,9.0973,-3.0827,-9.7131,0.0122,0.0367,0.0032,70,11.278,217,2.9989,-7.4839,-15.021,-0.0323,-0.0839,0.0302,39
11.749,226,9.0672,-3.1348,-9.6897,0.022,0.0264,0.0075,70,11.33,218,3.0344,-7.5016,-15.0781,-0.0115,-0.1062,0.0023,39
11.801,227,9.0819,-3.1339,-9.6813,0.0199,0.0187,0.0064,70,11.381,219,3.0918,-7.548,-15.1831,-0.008,-0.1209,-0.0142,39
11.853,228,9.096,-3.1329,-9.7004,0.0262,0.018,0.0073,70,11.433,220,3.1075,-7.5851,-15.2499,-0.0259,-0.1305,-0.0116,39
11.904,229,9.0821,-3.1409,-9.6763,0.0268,0.0256,0.0141,70,11.485,221,3.0813,-7.6045,-15.2834,-0.0292,-0.1458,0.0016,39
11.956,230,9.0696,-3.1562,-9.6053,0.029,0.0233,0.0166,70,11.537,222,2.9694,-7.5824,-15.2555,-0.0396,-0.1599,0.0175,39
12.008,231,9.0809,-3.1705,-9.6263,0.0902,0.0006,0.0115,70,11.589,223,2.8273,-7.5386,-15.1732,-0.0431,-0.1636,0.0241,39
12.06,232,9.1302,-3.1394,-9.6529,0.0519,-0.0037,0.0101,70,11.641,224,2.7419,-7.4839,-15.1225,-0.0281,-0.1588,0.011,39
12.111,233,9.1195,-3.1988,-9.6986,-0.0052,0.0188,0.0116,70,11.692,225,2.7521,-7.4651,-15.0976,-0.0152,-0.1395,-0.0088,39
12.163,234,9.1611,-3.1315,-9.6644,-0.0759,0.0494,0.0087,70,11.744,226,2.7649,-7.4761,-15.1709,-0.0015,-0.1123,-0.0223,39
12.215,235,9.1225,-3.1565,-9.6145,-0.0884,0.07,0.0087,70,11.796,227,2.7865,-7.4973,-15.2325,0.0125,-0.0812,-0.0258,39
12.267,236,9.0652,-3.2064,-9.5471,-0.0868,0.0684,0.0042,70,11.848,228,2.7934,-7.496,-15.2605,0.0085,-0.0507,-0.0229,39
12.319,237,9.0132,-3.2751,-9.5049,-0.0531,0.0494,0.0002,70,11.899,229,2.7624,-7.4769,-15.2842,0.0096,-0.0192,-0.024,39
12.37,238,9.0435,-3.2091,-9.5051,-0.0308,0.034,0.0023,70,11.951,230,2.7577,-7.4817,-15.3326,0.0097,0.0009,-0.0306,39
12.422,239,9.0749,-3.212,-9.4841,-0.0197,0.0213,0.0001,70,12.003,231,2.8005,-7.5095,-15.4021,0.0126,0.0132,-0.0334,39
12.474,240,9.0289,-3.2625,-9.4635,0.038,0.009,-0.0044,70,12.055,232,2.8028,-7.5099,-15.4135,0.0072,0.022,-0.0255,39
12.526,241,8.9565,-3.3011,-9.446,0.043,0.0012,-0.0022,70,12.107,233,2.7634,-7.5033,-15.3882,-0.0134,0.0207,-0.0138,39
12.578,242,9.0649,-3.1064,-9.4377,0.0694,-0.0134,-0.005,70,12.158,234,2.7607,-7.4874,-15.3604,-0.0337,0.0133,-0.0026,39
12.629,243,9.0948,-3.0291,-9.4472,0.0568,-0.024,-0.012,70,12.21,235,2.7387,-7.445,-15.317,-0.0427,0.0033,0.0007,39
12.681,244,9.1056,-3.0847,-9.4679,0.0503,-0.0284,-0.0145,70,12.262,236,2.7609,-7.3453,-15.2882,-0.0528,-0.0069,-0.0119,39
12.733,245,9.1401,-3.0254,-9.466,0.0378,-0.0255,-0.0146,70,12.314,237,2.7811,-7.2736,-15.2595,-0.0592,-0.0134,-0.0486,39
12.785,246,9.1238,-3.0629,-9.4691,0.0225,-0.024,-0.0124,70,12.365,238,2.901,-7.2861,-15.3487,-0.0261,-0.0148,-0.1024,39
12.837,247,9.1373,-3.0528,-9.486,0.0067,-0.0251,-0.0112,70,12.417,239,2.9925,-7.3271,-15.446,-0.0048,-0.0207,-0.1344,39
12.888,248,9.1295,-3.0894,-9.5146,0.0138,-0.0273,-0.0086,70,12.469,240,3.0114,-7.3668,-15.5281,0.0028,-0.032,-0.1433,39
12.94,249,9.1632,-3.0469,-9.529,0.0213,-0.0284,-0.0047,70,12.521,241,2.9984,-7.3498,-15.5605,0.0087,-0.0397,-0.134,39
12.992,250,9.198,-3.0439,-9.5242,-0.0022,-0.0276,0.0015,70,12.572,242,2.9746,-7.3002,-15.5465,0.0117,-0.0429,-0.1177,39
13.044,251,9.263,-2.989,-9.5556,-0.0364,-0.0183,0.0026,70,12.624,243,2.9284,-7.2268,-15.511,0.0088,-0.0374,-0.1008,39
13.095,252,9.2623,-3.0832,-9.5777,-0.059,0.0216,0.0102,70,12.676,244,2.9317,-7.2067,-15.5161,-0.0047,-0.0294,-0.0872,39
13.147,253,9.177,-3.1559,-9.5295,-0.0538,0.0325,0.0077,70,12.728,245,2.957,-7.2129,-15.5176,-0.0092,-0.019,-0.0733,39
13.199,254,9.2619,-3.0665,-9.4631,-0.0616,0.0402,0.0045,70,12.78,246,2.992,-7.1972,-15.5277,-0.0098,-0.0125,-0.06,39
13.251,255,9.3227,-2.9567,-9.5116,-0.0424,0.0521,0.0087,70,12.831,247,3.047,-7.2116,-15.5248,-0.0103,-0.0118,-0.0476,39
13.303,256,9.2938,-3.0053,-9.5422,-0.0815,0.0967,-0.0024,70,12.883,248,3.0446,-7.1961,-15.4861,-0.006,-0.0073,-0.0393,39
13.355,257,9.1886,-3.078,-9.4095,-0.1002,0.1288,-0.017,70,12.935,249,3.106,-7.2313,-15.4826,0.0065,-0.0013,-0.0401,39
13.406,258,9.0431,-3.272,-9.2529,-0.1085,0.1314,-0.032,70,12.987,250,3.2095,-7.3176,-15.4755,0.003,0.0153,-0.0232,39
13.458,259,8.8702,-3.3589,-9.1777,-0.0083,0.085,-0.0498,70,13.039,251,3.2426,-7.1933,-15.3808,0.0155,0.0664,-0.0013,39
13.51,260,9.0922,-3.1396,-9.2061,0.014,0.0143,-0.0726,70,13.09,252,3.1729,-7.2501,-15.0377,-0.009,0.0761,-0.0158,39
