right_leg_timestamp,right_leg_index,right_leg_accel_x,right_leg_accel_y,right_leg_accel_z,right_leg_gyro_x,right_leg_gyro_y,right_leg_gyro_z,right_leg_battery_percentage,left_leg_timestamp,left_leg_index,left_leg_accel_x,left_leg_accel_y,left_leg_accel_z,left_leg_gyro_x,left_leg_gyro_y,left_leg_gyro_z,left_leg_battery_percentage
0.116,2,5.4556,1.0007,-16.036,-0.1318,-1.9743,-0.2487,70,0.004,0,8.932,0.8766,-9.743,-0.1704,-0.155,-0.0897,39
0.167,3,4.5571,1.1123,-16.5463,-0.0396,-1.7316,-0.2088,70,0.056,1,8.9252,0.9718,-9.767,-0.106,-0.1148,-0.1252,39
0.219,4,3.9309,1.1936,-17.2433,-0.0913,-1.474,-0.1742,70,0.107,2,8.9375,1.085,-9.7426,0.0105,-0.0874,-0.1379,39
0.271,5,3.3044,1.3976,-17.7999,-0.0756,-1.2805,-0.1534,70,0.159,3,8.9516,1.1215,-9.6669,0.098,-0.0357,-0.1473,39
0.323,6,2.712,1.6815,-18.0137,-0.0633,-1.1042,-0.1348,70,0.211,4,8.9727,1.4783,-9.6698,0.2073,-0.0666,-0.1439,39
0.374,7,2.0249,1.5639,-18.161,-0.0306,-0.9503,-0.1126,70,0.263,5,8.9157,1.6666,-9.7983,0.2761,-0.098,-0.1071,39
0.426,8,1.6261,1.4673,-18.077,0.0669,-0.7824,-0.0659,70,0.314,6,8.9585,1.5635,-9.9417,0.2153,-0.1006,-0.0642,39
0.478,9,1.3176,1.6128,-18.1956,0.0443,-0.559,-0.0014,70,0.366,7,8.8588,1.6932,-9.7865,0.1348,-0.1231,-0.0434,39
0.53,10,1.24,1.4962,-18.4825,0.022,-0.3259,0.062,70,0.418,8,8.7805,1.8326,-9.8796,-0.0561,-0.1546,-0.0268,39
0.582,11,1.1924,1.6456,-18.8497,0.1331,-0.1429,0.1024,70,0.47,9,8.9333,1.4604,-10.0796,-0.0389,-0.1649,-0.049,39
0.633,12,1.0529,1.8098,-19.1248,0.0985,-0.0143,0.1271,70,0.522,10,8.9241,1.4205,-10.3156,0.0328,-0.1408,-0.0582,39
0.685,13,0.9156,1.8402,-19.3468,0.0798,0.0526,0.1412,70,0.573,11,8.8578,1.2594,-10.3423,0.1964,-0.0389,-0.0771,39
0.737,14,0.9031,1.8365,-19.4456,0.1056,0.0681,0.1193,70,0.625,12,8.8773,1.5289,-10.2867,0.3542,-0.0324,-0.0667,39
0.789,15,0.8574,1.7217,-19.5092,0.1107,0.0666,0.1006,70,0.677,13,8.9008,1.6394,-10.4367,0.4277,-0.0254,-0.0412,39
0.841,16,0.8309,1.5803,-19.5475,0.0432,0.0415,0.0831,70,0.729,14,8.8645,1.7899,-10.4044,0.3418,-0.0161,-0.0226,39
0.892,17,0.8622,1.3758,-19.5634,0.0377,0.0095,0.0495,70,0.78,15,8.8384,1.8034,-10.4492,0.2266,-0.0125,-0.0089,39
0.944,18,0.9881,1.2687,-19.4879,0.0124,-0.0305,0.0266,70,0.832,16,8.8112,1.6573,-10.4711,0.1774,0.0038,0.0027,39
0.996,19,0.9966,1.1316,-19.5576,-0.0122,-0.0365,0.0065,70,0.884,17,8.6837,1.7741,-10.5848,-0.0056,-0.0034,0.0047,39
1.048,20,1.1975,1.1034,-19.5656,0.0346,-0.0081,0.0095,70,0.936,18,8.7848,1.826,-10.4934,0.0705,0.0331,-0.009,39
1.1,21,1.3357,1.0698,-19.6185,0.0079,0.0248,0.0463,70,0.988,19,8.7694,1.7738,-10.4303,0.072,0.0689,0.0021,39
1.152,22,1.3793,1.068,-19.6867,0.0381,0.0397,0.0641,70,1.039,20,8.776,1.5796,-10.254,0.068,0.0641,-0.0025,39
1.203,23,1.279,1.0824,-19.6148,0.0247,0.0413,0.0897,70,1.091,21,8.8061,1.4591,-10.2027,0.1404,0.0426,0.006,39
1.255,24,1.2367,1.0635,-19.5776,0.0017,0.0414,0.1289,70,1.143,22,8.8468,1.5118,-10.3687,0.208,0.042,0.0171,39
1.307,25,1.2634,1.0896,-19.6093,0.0063,0.0447,0.1669,70,1.194,23,8.8342,1.7306,-10.3107,0.2334,0.0484,0.0326,39
1.359,26,1.3811,1.1032,-19.7144,0.0383,0.0444,0.1726,70,1.246,24,8.7422,1.8876,-10.2775,0.151,0.0369,0.0268,39
1.41,27,1.3883,1.1315,-19.7048,0.1054,0.0377,0.1333,70,1.298,25,8.8363,1.6045,-10.2722,0.0976,0.0309,0.0389,39
1.462,28,1.2966,1.1858,-19.6285,0.1514,0.0248,0.0885,70,1.35,26,8.8902,1.5802,-10.2522,-0.0192,0.0092,0.041,39
1.514,29,1.2324,1.0786,-19.4863,0.1264,0.0051,0.0495,70,1.402,27,8.6325,2.251,-10.2062,-0.4291,-0.0197,0.0346,39
1.566,30,1.1143,1.0022,-19.4024,0.1132,0.0001,0.0179,70,1.453,28,8.9998,1.1533,-10.1805,-0.3687,-0.0536,0.0215,39
1.618,31,1.2021,1.0152,-19.4561,0.0901,0.0352,0.0056,70,1.505,29,8.9478,1.215,-10.4126,-0.267,-0.0822,0.0124,39
1.669,32,1.3585,1.0273,-19.6252,0.059,0.0772,0.0104,70,1.557,30,8.8738,1.4218,-10.4198,-0.3023,-0.0595,0.0202,39
1.721,33,1.4308,1.1385,-19.7116,0.0325,0.0933,0.0077,70,1.609,31,8.8181,1.5654,-10.3087,-0.3663,-0.0381,0.0099,39
1.773,34,1.3384,1.1848,-19.6302,0.023,0.0758,-0.0091,70,1.661,32,8.8058,1.3854,-10.284,-0.4483,-0.0533,0.0062,39
1.824,35,1.1888,1.1616,-19.5433,-0.0115,0.0441,-0.0263,70,1.712,33,8.9658,0.9739,-10.2853,-0.2946,-0.0846,-0.0149,39
1.877,36,1.2471,1.019,-19.6021,-0.0264,0.0214,-0.0419,70,1.764,34,8.9703,1.3623,-10.4116,0.1075,-0.0657,-0.0437,39
1.928,37,1.3721,0.9413,-19.6446,-0.0573,-0.002,-0.033,70,1.816,35,8.949,1.3876,-10.5026,0.1679,-0.0426,-0.0423,39
1.98,38,1.5041,0.9054,-19.6799,-0.077,-0.0244,-0.0233,70,1.868,36,8.9301,1.4923,-10.5013,0.1996,-0.0283,-0.0346,39
2.032,39,1.4911,0.9173,-19.6027,-0.0748,-0.0137,-0.0052,70,1.919,37,8.8617,1.7021,-10.4496,0.1888,-0.019,-0.0151,39
2.084,40,1.4507,0.9212,-19.5386,-0.0778,0.0058,0.0195,70,1.971,38,8.6294,2.0278,-10.4258,-0.0539,-0.0175,-0.0044,39
2.136,41,1.3956,0.8789,-19.5435,-0.0545,0.0134,0.0404,70,2.023,39,8.8169,1.4865,-10.3446,-0.1465,-0.0579,-0.0194,39
2.187,42,1.3582,0.8426,-19.5443,-0.0414,0.0092,0.0625,70,2.075,40,9.1343,1.2531,-10.3768,0.0046,-0.0894,-0.051,39
2.239,43,1.3649,0.8396,-19.5403,-0.037,0.003,0.0797,70,2.127,41,8.9536,1.8373,-10.6058,0.3035,-0.0371,-0.063,39
2.291,44,1.4088,0.9453,-19.5367,-0.0342,-0.0008,0.099,70,2.178,42,8.8977,1.9125,-10.6356,0.2713,-0.0095,-0.0382,39
2.342,45,1.4224,1.0515,-19.5503,0.0051,0.0125,0.1022,70,2.23,43,8.7681,2.0485,-10.6086,0.1383,-0.0083,-0.0203,39
2.394,46,1.5004,1.1654,-19.5744,-0.015,0.0263,0.0961,70,2.282,44,8.8464,1.3279,-10.6218,-0.1443,-0.0434,-0.0034,39
2.446,47,1.4935,1.2315,-19.5682,0.0177,0.0311,0.0655,70,2.334,45,8.7742,1.5556,-10.597,-0.1702,-0.0945,-0.0172,39
2.498,48,1.4501,1.3016,-19.5286,0.0051,0.0363,0.0248,70,2.385,46,8.7514,1.9267,-10.6895,-0.168,-0.1089,0.0018,39
2.55,49,1.413,1.2408,-19.4955,-0.0355,0.0353,-0.0108,70,2.437,47,9.017,1.3468,-10.7811,-0.191,-0.0935,0.002,39
2.601,50,1.4562,1.2477,-19.491,-0.002,0.0332,-0.0539,70,2.489,48,8.9668,1.46,-10.8194,-0.0469,-0.0329,-0.012,39
2.653,51,1.5048,1.2559,-19.5167,-0.0406,0.0362,-0.0833,70,2.541,49,8.8322,1.72,-10.7752,0.0204,0.0013,-0.0109,39
2.705,52,1.6048,1.2402,-19.5093,-0.0128,0.0324,-0.1033,70,2.593,50,8.7947,1.7661,-10.6786,0.0286,0.0098,-0.0108,39
2.757,53,1.6534,1.3162,-19.5183,-0.021,0.0448,-0.0999,70,2.644,51,8.7564,1.7001,-10.6645,0.0422,-0.0118,-0.0148,39
2.809,54,1.6762,1.3167,-19.5264,-0.0647,0.0573,-0.0875,70,2.696,52,8.7499,1.6847,-10.6875,-0.0233,-0.0407,-0.0115,39
2.86,55,1.6612,1.3289,-19.5175,-0.0449,0.0541,-0.0867,70,2.748,53,8.8354,1.6215,-10.7502,0.0032,-0.0501,-0.0214,39
2.912,56,1.6427,1.3074,-19.5187,-0.061,0.0427,-0.0878,70,2.8,54,8.8038,1.7269,-10.8396,0.0568,-0.0309,-0.0235,39
2.964,57,1.646,1.2723,-19.5226,-0.0671,0.038,-0.084,70,2.852,55,8.8017,1.6676,-10.8444,0.0623,-0.0037,-0.0157,39
3.016,58,1.7102,1.3233,-19.5422,-0.1354,0.0522,-0.0559,70,2.903,56,8.7443,1.5588,-10.797,0.1016,0.0356,-0.0207,39
3.068,59,1.7117,1.3739,-19.646,-0.2443,0.0507,-0.0215,70,2.955,57,8.7043,1.6132,-10.866,0.0971,0.0193,-0.012,39
3.119,60,1.6694,1.5048,-19.6448,-0.2301,0.0065,-0.0131,70,3.007,58,8.7018,1.603,-10.8108,0.0437,0.0005,-0.0141,39
3.171,61,1.5908,1.6759,-19.5391,-0.2419,-0.0358,-0.0058,70,3.059,59,8.719,1.6473,-10.8284,0.029,-0.0212,-0.0193,39
3.223,62,1.5533,1.821,-19.3833,-0.2284,-0.0549,0.0013,70,3.111,60,8.7506,1.6361,-10.864,0.0102,-0.0263,-0.0152,39
3.275,63,1.5224,1.94,-19.2404,-0.1604,-0.0446,-0.0037,70,3.162,61,8.7699,1.6975,-10.9189,0.0023,-0.0219,-0.0189,39
3.327,64,1.5024,2.0344,-19.1855,-0.0882,-0.0178,-0.019,70,3.214,62,8.8099,1.7182,-10.9026,0.02,0.0057,-0.0208,39
3.378,65,1.5064,2.0423,-19.264,-0.056,0.0018,-0.0322,70,3.266,63,8.7573,1.7622,-10.8406,0.0154,0.0087,-0.0158,39
3.43,66,1.536,2.0586,-19.3347,-0.0282,0.0028,-0.0395,70,3.318,64,8.7082,1.8221,-10.7892,-0.0303,-0.0059,-0.0122,39
3.482,67,1.5904,1.9885,-19.3934,-0.0075,-0.0082,-0.0266,70,3.369,65,8.7624,1.653,-10.7916,-0.1191,-0.0353,-0.0104,39
3.534,68,1.6417,1.8968,-19.4194,0.0382,-0.0138,0.0007,70,3.421,66,8.8274,1.6469,-10.8857,-0.071,-0.0507,-0.0135,39
3.585,69,1.6483,1.902,-19.3636,0.07,-0.0079,0.0391,70,3.473,67,8.8355,1.6688,-10.9821,-0.0233,-0.0323,-0.0102,39
3.637,70,1.6239,1.9295,-19.3179,0.0751,-0.0033,0.0778,70,3.525,68,8.7592,1.8391,-10.927,-0.0125,-0.0103,-0.0059,39
3.689,71,1.6159,1.9361,-19.3432,0.0808,-0.0031,0.0974,70,3.577,69,8.7673,1.7524,-10.9328,-0.0068,-0.0063,-0.0034,39
3.741,72,1.6584,1.9236,-19.4157,0.0684,0.0023,0.102,70,3.628,70,8.8532,1.7094,-10.8996,0.0171,0.0057,-0.0068,39
3.793,73,1.7656,1.9097,-19.4936,0.0598,0.0031,0.0949,70,3.68,71,8.8535,1.637,-10.955,0.0784,0.0334,-0.0103,39
3.844,74,1.7977,1.8937,-19.579,0.0192,-0.0062,0.0873,70,3.732,72,8.819,1.6716,-10.9932,0.093,0.0506,-0.0027,39
3.896,75,1.7628,1.9006,-19.5002,0.0295,-0.0253,0.0629,70,3.783,73,8.758,1.7374,-10.8927,0.1045,0.0655,0.0008,39
3.948,76,1.643,1.8572,-19.3684,0.031,-0.0349,0.0356,70,3.835,74,8.6982,1.7976,-10.8637,0.0502,0.0493,0.0004,39
4.0,77,1.5537,1.8096,-19.2633,0.0249,-0.0263,0.0141,70,3.887,75,8.7425,1.7848,-10.8038,0.0202,0.0186,0.001,39
4.051,78,1.5481,1.6952,-19.3029,-0.0031,-0.0035,0.0052,70,3.939,76,8.7445,1.7794,-10.8395,0.0203,0.0133,0.0034,39
4.103,79,1.6186,1.6659,-19.4395,0.0243,0.0158,-0.0049,70,3.991,77,8.7656,1.8013,-10.8797,0.0264,0.0219,0.0121,39
4.155,80,1.7048,1.7146,-19.5321,0.0316,0.0177,-0.0122,70,4.042,78,8.7612,1.7975,-10.8728,0.0203,0.048,0.0228,39
4.207,81,1.716,1.8207,-19.5124,0.0257,0.0095,-0.0146,70,4.094,79,8.7322,1.8408,-10.7022,-0.0168,0.0565,0.0291,39
4.259,82,1.6817,1.9111,-19.4284,0.0169,0.0031,-0.0102,70,4.146,80,8.7835,1.6899,-10.6693,-0.1521,0.0296,0.0275,39
4.31,83,1.6193,1.9256,-19.388,-0.0042,0.0035,-0.0005,70,4.198,81,8.8292,1.6296,-10.6018,-0.1527,0.0011,0.0105,39
4.362,84,1.5948,1.8436,-19.3872,-0.0358,0.0004,0.0032,70,4.249,82,8.8567,1.5619,-10.7636,-0.078,-0.0191,0.0064,39
4.414,85,1.532,1.7357,-19.4138,-0.0626,-0.0064,0.0055,70,4.301,83,8.8152,1.6672,-10.8288,-0.0527,-0.0073,0.0059,39
4.466,86,1.521,1.5893,-19.4906,-0.0304,-0.0147,0.0055,70,4.353,84,8.7633,1.7767,-10.7871,-0.0507,0.0188,0.007,39
4.518,87,1.5864,1.6168,-19.5309,0.0025,-0.0192,0.0111,70,4.405,85,8.7249,1.8718,-10.7545,-0.0988,0.038,0.0136,39
4.569,88,1.5815,1.7326,-19.4717,0.0228,-0.0207,0.0085,70,4.457,86,8.7875,1.6652,-10.6792,-0.1593,0.0508,0.0101,39
4.621,89,1.513,1.8057,-19.384,0.0527,-0.0226,-0.0035,70,4.508,87,8.8135,1.6051,-10.6156,-0.091,0.049,-0.008,39
4.673,90,1.4662,1.8189,-19.3864,0.034,-0.0237,-0.0191,70,4.56,88,8.8272,1.5184,-10.6085,-0.004,0.0299,-0.0211,39
4.725,91,1.4572,1.7743,-19.4405,0.032,-0.0268,-0.0269,70,4.612,89,8.7868,1.5483,-10.5387,0.1086,0.0492,-0.0272,39
4.777,92,1.5495,1.7296,-19.5186,0.0284,-0.0398,-0.0274,70,4.664,90,8.8009,1.5634,-10.6757,0.1367,0.0407,-0.014,39
4.828,93,1.5746,1.6753,-19.4918,0.0124,-0.0592,-0.0169,70,4.716,91,8.8045,1.5365,-10.6388,0.1263,0.0215,-0.0055,39
4.88,94,1.514,1.6423,-19.3697,0.0042,-0.0662,0.0067,70,4.767,92,8.7574,1.6976,-10.6099,0.1143,-0.0131,-0.0021,39
4.932,95,1.4521,1.5851,-19.3096,-0.0097,-0.0406,0.0374,70,4.819,93,8.6325,1.9138,-10.5084,-0.0145,-0.0592,-0.0025,39
4.984,96,1.5176,1.5736,-19.4009,-0.0159,0.0035,0.0644,70,4.871,94,8.9645,1.2097,-10.5813,-0.0909,-0.1207,0.0059,39
5.035,97,1.6148,1.6453,-19.5169,-0.0287,0.0261,0.0681,70,4.923,95,8.9073,1.4472,-10.8419,-0.0516,-0.1274,-0.0025,39
5.087,98,1.5732,1.7652,-19.5306,0.0166,0.0191,0.0303,70,4.974,96,8.9095,1.5113,-10.9387,0.0174,-0.0723,0.0028,39
5.139,99,1.5295,1.8115,-19.4935,0.0299,0.0111,-0.03,70,5.026,97,8.8628,1.6349,-10.9259,0.0491,-0.0254,0.0135,39
5.191,100,1.5069,1.8072,-19.4272,0.0312,0.0067,-0.093,70,5.078,98,8.8049,1.7073,-10.8232,0.0477,0.0072,0.0173,39
5.243,101,1.4926,1.8085,-19.4235,0.0486,0.0155,-0.1458,70,5.13,99,8.8476,1.5157,-10.7983,0.0146,-0.0048,0.0175,39
5.294,102,1.5038,1.7806,-19.4651,0.0519,0.03,-0.1783,70,5.182,100,8.7938,1.6104,-10.8105,0.026,-0.0196,0.0147,39
5.346,103,1.5459,1.76,-19.4589,0.0658,0.0328,-0.1914,70,5.233,101,8.789,1.6824,-10.755,-0.015,-0.0171,0.0211,39
5.398,104,1.5223,1.6495,-19.4436,0.0456,0.0359,-0.1776,70,5.285,102,8.6425,2.0076,-10.7566,-0.1442,0.005,0.0261,39
5.45,105,1.5017,1.5066,-19.4527,0.0488,0.0455,-0.1427,70,5.337,103,8.7133,1.5481,-10.6991,-0.3908,-0.0092,0.0353,39
5.502,106,1.496,1.4357,-19.4647,0.0721,0.0456,-0.0907,70,5.389,104,8.8712,1.3972,-10.713,-0.3256,-0.0612,0.0126,39
5.553,107,1.4925,1.4262,-19.4912,0.0749,0.0402,-0.0324,70,5.44,105,8.898,1.4394,-10.7929,-0.0671,-0.0615,-0.0081,39
5.605,108,1.4771,1.4699,-19.5033,0.078,0.0313,0.0291,70,5.492,106,8.8787,1.4286,-10.8807,-0.0512,-0.0327,-0.0078,39
5.657,109,1.5201,1.5315,-19.52,0.0533,0.0276,0.0803,70,5.544,107,8.8818,1.3376,-10.8529,0.0037,-0.0153,-0.0127,39
5.709,110,1.565,1.5306,-19.5679,0.0404,0.0211,0.1182,70,5.596,108,8.8605,1.3975,-10.8546,0.0458,-0.0215,-0.0131,39
5.761,111,1.5823,1.5039,-19.5795,0.0265,0.0053,0.132,70,5.648,109,8.8379,1.4777,-10.8991,0.0665,-0.0238,-0.0157,39
5.812,112,1.5605,1.4572,-19.4798,0.0244,-0.0061,0.1256,70,5.699,110,8.8257,1.5667,-10.9698,0.0965,-0.01,-0.0131,39
5.864,113,1.5348,1.4573,-19.4333,0.0282,-0.0067,0.1146,70,5.751,111,8.789,1.638,-10.9108,0.1019,-0.0021,-0.0052,39
5.916,114,1.5661,1.4518,-19.446,0.0117,0.0093,0.1088,70,5.803,112,8.7177,1.6113,-10.9733,-0.035,-0.0069,0.0096,39
5.968,115,1.667,1.4519,-19.4737,-0.0037,0.0192,0.0971,70,5.855,113,8.7362,1.5694,-10.9103,-0.0656,-0.0072,0.008,39
6.019,116,1.6942,1.4227,-19.5062,-0.0045,0.026,0.0761,70,5.906,114,8.709,1.791,-10.9698,-0.0676,-0.0246,0.006,39
6.071,117,1.6779,1.3469,-19.5284,0.0136,0.0207,0.0407,70,5.958,115,8.7109,1.7717,-11.022,-0.1239,-0.016,0.0217,39
6.123,118,1.6723,1.3364,-19.5042,0.017,0.0174,-0.0042,70,6.01,116,8.7704,1.6804,-10.9316,-0.1885,-0.0002,0.0261,39
6.175,119,1.7238,1.3431,-19.4165,0.0526,0.0115,-0.053,70,6.062,117,8.8225,1.5674,-10.8427,-0.2093,-0.0161,0.0196,39
6.226,120,1.6955,1.3908,-19.3031,0.06,0.0217,-0.0772,70,6.113,118,8.9044,1.4508,-10.9238,-0.1741,-0.0262,0.0059,39
6.278,121,1.7338,1.3577,-19.3676,0.0449,0.0425,-0.0757,70,6.165,119,8.9125,1.2687,-11.0721,0.0175,0.0152,-0.0019,39
6.33,122,1.8175,1.2804,-19.5234,0.0365,0.0508,-0.0726,70,6.217,120,8.861,1.2918,-11.0152,-0.0136,0.034,0.0159,39
6.382,123,1.9261,1.2609,-19.6094,0.0255,0.0393,-0.0707,70,6.269,121,8.8311,1.3657,-10.8808,-0.1211,0.0385,0.0176,39
6.434,124,1.9302,1.2589,-19.5937,0.0253,0.0214,-0.0657,70,6.321,122,8.8956,1.3094,-10.8138,-0.2551,0.0312,0.022,39
6.485,125,1.8914,1.2976,-19.5055,0.0319,0.009,-0.0539,70,6.372,123,8.8589,1.3782,-10.8081,-0.2206,0.02,0.0086,39
6.537,126,1.8758,1.2857,-19.43,0.0134,0.0133,-0.0403,70,6.424,124,8.7997,1.6955,-10.7957,-0.1298,0.025,0.0008,39
6.589,127,1.8697,1.2736,-19.4224,0.0314,0.0263,-0.0381,70,6.476,125,8.8371,1.6259,-10.7439,-0.0567,0.0349,-0.0072,39
6.641,128,1.8768,1.2698,-19.4759,0.0596,0.0324,-0.0454,70,6.528,126,8.7618,2.3389,-10.5672,0.1983,0.0416,-0.0326,39
6.693,129,1.7884,1.2562,-19.4631,0.0481,0.0288,-0.052,70,6.579,127,8.8185,2.0651,-10.5799,0.2642,0.0421,-0.0174,39
6.744,130,1.7114,1.2624,-19.4253,0.0571,0.0219,-0.0521,70,6.631,128,8.7632,2.032,-10.6622,0.1289,0.041,-0.0064,39
6.796,131,1.7449,1.2192,-19.4244,0.0541,0.011,-0.0341,70,6.683,129,8.7405,1.9292,-10.6409,0.0328,0.0411,-0.0034,39
6.848,132,1.834,1.1593,-19.5168,0.0209,0.0031,-0.0019,70,6.735,130,8.7844,1.7483,-10.5869,0.0229,0.0229,-0.0158,39
6.9,133,1.8834,1.1078,-19.5967,0.0466,-0.0144,0.0094,70,6.786,131,8.8158,1.7218,-10.5402,0.0826,0.0042,-0.0267,39
6.952,134,1.8315,1.1414,-19.5334,0.0555,-0.0252,0.0103,70,6.838,132,8.8336,1.7286,-10.5413,0.0311,-0.003,-0.0182,39
7.003,135,1.7679,1.129,-19.4093,0.0116,-0.0164,0.0282,70,6.89,133,8.8832,1.5221,-10.5925,0.0277,-0.0039,-0.0213,39
7.055,136,1.7875,1.0886,-19.3933,0.0131,0.0009,0.0478,70,6.942,134,8.9912,1.3075,-10.6803,0.1418,0.0357,-0.029,39
7.107,137,1.7825,1.0758,-19.4095,-0.005,0.0217,0.0594,70,6.994,135,8.9114,1.5097,-10.6658,0.1789,0.0259,-0.0277,39
7.159,138,1.7706,1.0515,-19.4375,-0.0074,0.0301,0.0623,70,7.045,136,8.8514,1.6268,-10.6579,0.1847,0.0154,-0.0158,39
7.21,139,1.7925,1.0075,-19.5027,0.0056,0.0252,0.0579,70,7.097,137,8.8209,1.7558,-10.6462,0.1671,-0.0055,-0.0003,39
7.262,140,1.7899,0.9674,-19.5264,-0.0081,0.0175,0.0553,70,7.149,138,8.7815,1.8205,-10.6583,0.0435,-0.0183,0.0099,39
7.314,141,1.8331,0.9562,-19.5084,-0.0015,0.0148,0.0589,70,7.201,139,8.8102,1.6915,-10.7045,0.0519,-0.0308,0.0097,39
7.366,142,1.8329,0.9686,-19.5409,0.0032,0.0194,0.0698,70,7.253,140,8.7832,1.5955,-10.8004,0.0657,-0.0314,0.0041,39
7.418,143,1.8609,1.0304,-19.5602,0.0096,0.0183,0.0687,70,7.304,141,8.7336,1.8258,-10.7544,0.0547,-0.0273,0.0038,39
7.469,144,1.8548,1.0929,-19.5296,0.0148,0.0103,0.0527,70,7.356,142,8.7165,1.801,-10.8064,-0.0797,-0.0221,0.0134,39
7.521,145,1.8406,1.1495,-19.4716,0.0289,0.0002,0.0268,70,7.408,143,8.8329,1.6518,-10.741,-0.0562,-0.0178,0.0119,39
7.573,146,1.8348,1.1383,-19.4523,0.0255,-0.0073,-0.0013,70,7.46,144,8.7938,1.7225,-10.7761,0.0061,-0.0367,0.0086,39
7.625,147,1.8576,1.0313,-19.4943,0.0331,-0.0178,-0.0304,70,7.511,145,8.8204,1.6372,-10.8235,-0.0118,-0.0404,0.0092,39
7.676,148,1.8904,0.9885,-19.5003,0.0341,-0.0286,-0.0455,70,7.563,146,8.8546,1.6071,-10.8733,0.0116,-0.0364,0.004,39
7.728,149,1.9367,0.9135,-19.4873,0.0326,-0.0284,-0.0421,70,7.615,147,8.8122,1.7028,-10.8627,-0.0503,-0.0349,0.0109,39
7.78,150,1.934,0.8932,-19.449,0.0501,-0.0141,-0.0467,70,7.667,148,8.7752,1.7136,-10.8436,-0.0956,-0.0365,0.0067,39
7.832,151,1.9061,0.9194,-19.3936,0.0452,0.005,-0.0528,70,7.719,149,8.8147,1.5801,-10.8205,-0.1241,-0.0485,0.0036,39
7.884,152,1.8751,0.9045,-19.4151,0.0373,0.0187,-0.0505,70,7.77,150,8.8266,1.5962,-10.9069,-0.0172,-0.0494,-0.0072,39
7.935,153,1.9022,0.8754,-19.487,0.0109,0.0287,-0.0501,70,7.822,151,8.8223,1.6599,-10.9685,0.1192,-0.0248,-0.0183,39
7.987,154,1.9286,0.863,-19.5551,-0.0209,0.0304,-0.0501,70,7.874,152,8.8177,1.6463,-10.97,0.1187,-0.0037,-0.0145,39
8.039,155,1.917,0.8954,-19.5202,-0.029,0.0223,-0.0504,70,7.926,153,8.7897,1.6847,-10.9502,0.1052,0.0147,-0.0124,39
8.091,156,1.8675,0.9359,-19.4503,-0.0127,0.0152,-0.046,70,7.977,154,8.7706,1.7195,-10.8631,0.0727,0.0226,-0.0072,39
8.143,157,1.881,0.9719,-19.4065,-0.0143,0.0172,-0.0325,70,8.029,155,8.6939,1.7617,-10.8074,-0.0457,0.0097,0.0013,39
8.194,158,1.911,0.931,-19.439,-0.014,0.0242,-0.0225,70,8.081,156,8.7709,1.5869,-10.7719,-0.0916,-0.0284,0.0003,39
8.246,159,1.9418,0.9373,-19.4936,-0.0067,0.0247,-0.0161,70,8.133,157,8.7833,1.5884,-10.9375,-0.0529,-0.0533,-0.0039,39
8.298,160,1.9571,0.9447,-19.5104,-0.016,0.021,-0.0005,70,8.184,158,8.8041,1.6566,-10.9637,0.0499,-0.045,-0.0107,39
8.35,161,1.9449,0.9705,-19.4861,-0.0146,0.0143,0.0194,70,8.236,159,8.7665,1.7417,-10.9773,0.0484,-0.0315,-0.0014,39
8.402,162,1.9389,0.9531,-19.5018,-0.0329,0.0099,0.0457,70,8.288,160,8.7637,1.6892,-10.9578,0.0234,-0.0288,0.0042,39
8.453,163,1.9212,0.9686,-19.528,-0.025,0.0057,0.0683,70,8.34,161,8.7461,1.6895,-11.001,0.0175,-0.0321,0.0007,39
8.505,164,1.9476,1.0339,-19.5332,-0.044,-0.0029,0.0921,70,8.391,162,8.7626,1.6698,-11.0344,0.0584,-0.0309,-0.0041,39
8.557,165,1.9542,1.037,-19.4558,-0.0586,-0.0127,0.0988,70,8.443,163,8.7297,1.7411,-11.1025,0.0754,-0.0264,-0.008,39
8.609,166,1.9268,1.0436,-19.36,-0.0701,-0.0032,0.0973,70,8.495,164,8.7354,1.7636,-11.0981,0.0695,-0.0135,-0.0042,39
8.66,167,1.9517,1.0487,-19.3616,-0.051,0.0153,0.0865,70,8.547,165,8.7246,1.6979,-11.0977,0.0438,-0.0105,-0.0044,39
8.712,168,2.0354,1.1015,-19.4229,-0.0211,0.0286,0.0772,70,8.599,166,8.733,1.6965,-11.1028,0.0332,-0.0135,-0.0049,39
8.764,169,2.0507,1.1076,-19.4853,-0.032,0.0285,0.0699,70,8.651,167,8.7392,1.7184,-11.1226,0.0229,-0.0116,-0.0036,39
8.816,170,2.0569,1.1352,-19.5098,-0.0181,0.0195,0.0564,70,8.702,168,8.7105,1.8417,-11.1526,-0.0337,-0.008,0.0047,39
8.868,171,2.0451,1.1678,-19.49,-0.0147,0.0062,0.0436,70,8.754,169,8.7387,1.7426,-11.115,-0.0299,-0.0035,0.0043,39
8.92,172,2.0371,1.1898,-19.4486,-0.0153,0.0012,0.0336,70,8.806,170,8.7071,1.7834,-11.1235,-0.0268,-0.0107,0.0022,39
8.971,173,2.0222,1.1928,-19.4324,-0.0152,0.0024,0.0225,70,8.858,171,8.7558,1.6681,-11.1377,-0.0832,0.0044,0.0103,39
9.023,174,2.0138,1.1924,-19.4193,-0.0053,0.0013,0.0022,70,8.909,172,8.7804,1.6287,-11.0658,-0.0686,0.0064,0.0072,39
9.075,175,2.0294,1.1798,-19.3399,-0.0091,-0.0047,-0.014,70,8.961,173,8.7773,1.6276,-11.1092,-0.0402,-0.0017,0.0057,39
9.127,176,2.0536,1.1562,-19.3295,-0.0211,0.0119,-0.0067,70,9.013,174,8.7616,1.6479,-11.1131,-0.0315,0.0003,0.0018,39
9.178,177,2.1767,1.1334,-19.3788,-0.0464,0.0381,0.0244,70,9.065,175,8.7682,1.6513,-11.0689,-0.0054,0.0014,-0.0025,39
9.23,178,2.2259,1.0936,-19.4741,-0.0579,0.0596,0.0538,70,9.116,176,8.7447,1.6638,-11.0861,-0.0173,-0.0001,-0.0015,39
9.282,179,2.2057,1.1418,-19.5024,-0.0532,0.0721,0.0636,70,9.168,177,8.7435,1.6606,-11.0876,-0.0099,0.0056,-0.006,39
9.334,180,2.159,1.192,-19.4691,-0.041,0.0618,0.0625,70,9.22,178,8.7557,1.6494,-11.0968,0.0104,0.0072,-0.0094,39
9.386,181,2.0803,1.2298,-19.3774,-0.0287,0.0469,0.0547,70,9.272,179,8.7339,1.6916,-11.0866,0.0153,0.012,-0.0099,39
9.437,182,2.0662,1.2307,-19.3304,-0.0266,0.0423,0.038,70,9.324,180,8.8138,1.6688,-11.0517,0.0488,0.0295,-0.0108,39
9.489,183,2.108,1.2216,-19.361,-0.0146,0.0434,0.0221,70,9.375,181,8.7983,1.7438,-11.0764,0.0742,0.0404,-0.0118,39
9.541,184,2.2032,1.2622,-19.4457,-0.0171,0.0373,0.0164,70,9.427,182,8.7839,1.7529,-11.0848,0.0734,0.0507,-0.005,39
9.592,185,2.2571,1.2768,-19.479,-0.0206,0.0187,0.0152,70,9.479,183,8.7095,1.7821,-10.955,0.0362,0.0313,-0.0037,39
9.644,186,2.2791,1.3129,-19.3799,-0.0144,-0.0018,0.0126,70,9.531,184,8.5709,1.9409,-10.9742,-0.095,-0.0083,-0.0015,39
9.696,187,2.3131,1.3535,-19.253,-0.0251,-0.0042,0.0164,70,9.582,185,8.6986,1.7833,-10.9594,-0.0859,-0.0247,-0.0059,39
9.748,188,2.373,1.3719,-19.2178,-0.0258,0.0125,0.0266,70,9.634,186,8.7515,1.749,-11.0477,-0.0555,-0.0243,-0.0067,39
9.8,189,2.4369,1.3992,-19.2772,-0.0218,0.035,0.0416,70,9.686,187,8.7927,1.7425,-11.0756,0.0169,0.0024,-0.0146,39
9.851,190,2.512,1.3993,-19.3406,-0.048,0.0447,0.075,70,9.738,188,8.7941,1.7801,-11.0803,0.0574,0.031,-0.0143,39
9.904,191,2.4624,1.34,-19.3761,-0.063,0.0311,0.1025,70,9.79,189,8.7344,1.7975,-11.033,0.0334,0.0457,-0.0074,39
9.955,192,2.3756,1.282,-19.304,-0.0764,0.0086,0.1091,70,9.841,190,8.7872,1.7004,-10.9085,0.018,0.0412,-0.0097,39
10.007,193,2.33,1.2032,-19.2359,-0.0611,-0.0098,0.0926,70,9.893,191,8.7494,1.7701,-10.9378,0.0299,0.0531,-0.0145,39
10.059,194,2.3849,1.157,-19.2521,-0.0224,-0.0155,0.0594,70,9.945,192,8.8098,1.7702,-10.9177,0.0183,0.0461,-0.0143,39
10.111,195,2.4318,1.1863,-19.2604,0.0125,-0.0177,0.0326,70,9.996,193,8.7651,1.8092,-10.8986,0.031,0.0744,-0.0119,39
10.163,196,2.4339,1.2406,-19.3431,0.0525,-0.024,0.0137,70,10.049,194,8.7602,1.7884,-10.8379,0.0215,0.0773,-0.0091,39
10.214,197,2.4376,1.2927,-19.4731,0.0669,-0.0441,0.0151,70,10.1,195,8.7204,1.758,-10.7709,0.0431,0.0864,-0.0068,39
10.266,198,2.412,1.3324,-19.4438,0.0372,-0.0706,0.0283,70,10.152,196,8.7238,1.8292,-10.7115,0.027,0.0625,0.0004,39
10.318,199,2.3671,1.3261,-19.3843,0.0156,-0.08,0.0321,70,10.204,197,8.7607,1.8179,-10.7259,0.0472,0.0344,0.0147,39
10.37,200,2.2787,1.3807,-19.2947,0.0065,-0.0713,0.0192,70,10.256,198,8.7855,1.8461,-10.7405,0.0633,0.0087,0.0216,39
10.421,201,2.2239,1.3557,-19.2251,0.0075,-0.0474,-0.0109,70,10.308,199,8.7946,1.865,-10.824,0.0509,0.003,0.0225,39
10.473,202,2.2113,1.3439,-19.2483,0.006,-0.0169,-0.0349,70,10.359,200,8.7823,1.7606,-10.7326,0.0294,0.0226,0.0182,39
10.525,203,2.2629,1.3574,-19.3723,0.0282,0.0116,-0.0595,70,10.411,201,8.7881,1.7973,-10.6571,0.0404,-0.0224,0.0025,39
10.577,204,2.3036,1.3798,-19.4558,0.043,0.0257,-0.0772,70,10.463,202,8.6993,1.9273,-10.8474,-0.0278,-0.0396,-0.0003,39
10.628,205,2.2568,1.4261,-19.3903,0.0457,0.0267,-0.0862,70,10.515,203,8.6924,1.9898,-10.7308,0.0085,-0.0262,-0.0021,39
10.68,206,2.1434,1.4196,-19.099,0.0117,0.0367,-0.0933,70,10.566,204,8.5248,2.2562,-10.782,-0.1797,-0.0358,-0.0028,39
10.732,207,2.1435,1.2999,-18.9379,0.0112,0.0821,-0.1052,70,10.618,205,8.7626,1.7334,-10.7086,-0.2318,-0.0611,-0.0033,39
10.784,208,2.0879,1.1398,-18.5162,-0.0284,0.1764,-0.0986,70,10.67,206,8.7762,1.6731,-10.8491,-0.2219,-0.0766,-0.0154,39
10.835,209,2.2513,1.2279,-17.8726,-0.1966,0.4799,-0.0438,70,10.722,207,8.7613,1.6506,-11.0577,-0.1229,-0.0545,-0.0189,39
10.887,210,2.6094,1.4253,-17.1794,-0.4191,0.8958,0.0615,70,10.773,208,8.7446,1.7368,-10.9472,0.0132,-0.0262,-0.0273,39
10.939,211,3.4291,1.5925,-16.9462,-0.3563,1.3321,0.1698,70,10.825,209,8.682,1.8618,-10.9342,0.0189,-0.0383,-0.0262,39
10.991,212,4.4146,1.8649,-16.9768,-0.0976,1.6506,0.2135,70,10.877,210,8.6945,1.7852,-10.907,-0.0082,-0.0497,-0.0233,39
11.043,213,5.6188,1.9471,-17.0991,0.4092,1.883,0.2036,70,10.929,211,8.8444,1.6427,-10.7359,0.0952,-0.0209,-0.0305,39
11.094,214,6.8121,1.7247,-17.2278,0.9703,2.0178,0.1288,70,10.98,212,8.8681,1.7514,-10.8999,0.2209,-0.0287,-0.0321,39
11.146,215,7.7254,1.3713,-16.8904,1.3047,2.0333,0.0461,70,11.032,213,8.8449,1.8236,-11.0419,0.2719,-0.006,-0.0119,39
