right_leg_timestamp,right_leg_index,right_leg_accel_x,right_leg_accel_y,right_leg_accel_z,right_leg_gyro_x,right_leg_gyro_y,right_leg_gyro_z,right_leg_battery_percentage,left_leg_timestamp,left_leg_index,left_leg_accel_x,left_leg_accel_y,left_leg_accel_z,left_leg_gyro_x,left_leg_gyro_y,left_leg_gyro_z,left_leg_battery_percentage
0.292,5,9.6688,-0.8638,-10.8154,0.0057,-0.045,-0.046,86,0.664,12,8.6649,0.5724,-12.6241,-0.258,-0.1055,0.1127,51
0.344,6,9.8283,-0.7835,-10.7986,-0.0977,-0.0232,-0.0357,86,0.716,13,8.586,0.7092,-12.6206,-0.2697,-0.0949,0.1493,51
0.395,7,10.8797,-0.8158,-10.3438,-0.2878,0.2332,0.0054,86,0.768,14,8.5666,0.455,-12.567,-0.2247,-0.1826,0.1974,51
0.447,8,11.3274,-0.7127,-12.3174,-0.4238,-0.0014,-0.0911,86,0.82,15,8.5199,-0.4602,-12.7004,0.0186,-0.2399,0.1879,51
0.499,9,11.999,-0.8548,-13.4666,-0.3371,-0.6744,-0.1925,86,0.872,16,8.597,0.3176,-12.8838,0.2858,-0.2353,0.0754,51
0.551,10,11.4593,-0.4075,-13.5433,-0.2946,-1.1656,-0.3339,86,0.923,17,8.5804,0.332,-13.0864,0.256,-0.2174,0.0793,51
0.603,11,9.9205,0.2703,-13.3289,0.0067,-1.499,-0.4522,86,0.975,18,8.5181,0.393,-13.157,0.1735,-0.1594,0.0574,51
0.654,12,9.3045,0.2801,-13.115,0.0696,-1.6337,-0.4316,86,1.027,19,8.346,0.6371,-13.3056,-0.1165,-0.092,0.0628,51
0.706,13,8.7858,0.2295,-13.1028,0.0694,-1.5488,-0.3268,86,1.079,20,8.4053,0.6432,-13.2355,-0.1889,0.0001,0.0241,51
0.758,14,8.6005,0.0333,-13.4688,0.1043,-1.307,-0.2324,86,1.131,21,8.4395,0.965,-13.1577,-0.2443,0.0762,0.0408,51
0.81,15,7.8707,-0.1646,-13.9084,0.219,-1.0056,-0.164,86,1.182,22,8.5059,0.8685,-12.9,-0.2283,0.0888,0.031,51
0.861,16,7.265,-0.3856,-14.52,0.25,-0.7215,-0.1322,86,1.234,23,8.4276,0.6333,-12.8726,-0.2268,0.0493,0.0587,51
0.913,17,6.9228,-0.5588,-15.1021,0.2805,-0.478,-0.1093,86,1.286,24,8.4487,0.8031,-12.9719,-0.2313,0.002,0.1157,51
0.965,18,6.67,-0.6168,-15.5597,0.3109,-0.3257,-0.0964,86,1.338,25,9.1611,-0.7913,-12.7424,0.1272,0.2618,-0.0275,51
1.017,19,6.5653,-0.5855,-15.8215,0.3319,-0.2005,-0.1001,86,1.389,26,9.4408,0.1393,-12.7097,0.3796,0.1659,-0.1493,51
1.069,20,6.3538,-0.6467,-16.0743,0.2598,-0.0627,-0.1336,86,1.441,27,9.4028,0.1118,-12.8578,0.49,0.1191,-0.1837,51
1.12,21,6.4634,-0.4472,-16.0519,-0.1575,0.0864,-0.204,86,1.493,28,9.0576,0.6527,-12.8743,0.5767,0.0949,-0.2176,51
1.172,22,6.9654,0.3004,-16.3191,0.1455,0.1728,-0.4343,86,1.545,29,8.7047,1.1048,-12.6773,0.4336,0.0431,-0.1745,51
1.224,23,7.6255,0.2704,-16.4284,0.1811,0.1484,-0.5713,86,1.597,30,8.6876,0.2085,-12.9624,0.3605,-0.0535,-0.1281,51
1.276,24,8.101,0.3086,-16.6476,0.183,0.0938,-0.5963,86,1.648,31,8.5449,0.4651,-13.219,0.3588,-0.0642,-0.1478,51
1.328,25,8.063,0.2413,-16.408,0.2764,0.0029,-0.5296,86,1.7,32,8.4971,0.3719,-13.1825,0.2758,-0.0397,-0.1127,51
1.379,26,7.8546,0.063,-16.3047,0.0734,-0.0217,-0.3479,86,1.752,33,8.3474,0.8326,-13.1901,0.1438,-0.0532,-0.0632,51
1.431,27,7.7441,-0.0029,-16.265,-0.1781,-0.0198,-0.1087,86,1.804,34,8.3038,1.1055,-13.131,-0.2384,-0.0019,0.1278,51
1.483,28,7.4796,0.2153,-16.1974,-0.0596,-0.0405,0.0056,86,1.856,35,8.5883,0.9741,-13.1618,-0.3499,0.018,0.1469,51
1.535,29,7.1703,0.287,-16.1924,0.0368,-0.0351,0.0283,86,1.907,36,8.7561,0.615,-13.0273,-0.1759,0.0632,0.0194,51
1.587,30,6.8372,0.5419,-16.2031,-0.0152,-0.0009,-0.0771,86,1.959,37,8.6349,0.5333,-12.9742,0.1871,0.0377,-0.0982,51
1.638,31,6.8498,0.501,-16.3757,0.1709,-0.0258,-0.1439,86,2.011,38,8.4877,0.8554,-13.1562,0.3449,0.0136,-0.1114,51
1.69,32,7.2369,0.5357,-16.5337,0.0171,-0.0121,-0.1499,86,2.062,39,8.6348,0.1394,-12.9699,0.3396,0.0895,-0.133,51
1.742,33,7.3152,0.5265,-16.7733,0.0634,-0.073,-0.0942,86,2.114,40,8.3043,0.9025,-13.0198,0.2412,0.101,-0.1178,51
1.793,34,7.2808,0.7791,-16.8908,0.0639,-0.1407,-0.0638,86,2.166,41,8.3056,0.8572,-13.0487,-0.3396,0.0825,0.0909,51
1.845,35,6.8946,0.7387,-17.0155,0.0644,-0.2265,-0.0564,86,2.218,42,8.732,0.5701,-12.8072,-0.5345,0.034,0.1363,51
1.897,36,6.763,0.7237,-17.0791,0.0286,-0.3156,-0.0559,86,2.27,43,8.6199,0.6266,-12.773,-0.3423,-0.0357,0.0327,51
1.949,37,6.949,0.5603,-17.3092,0.0303,-0.4002,-0.093,86,2.321,44,8.5702,0.3102,-12.9503,0.013,-0.0146,-0.0617,51
2.001,38,6.7524,0.473,-17.1817,0.0937,-0.472,-0.1417,86,2.373,45,8.5946,0.4397,-13.1184,0.1744,-0.0504,-0.0077,51
2.052,39,6.5725,0.4765,-17.176,0.1674,-0.4886,-0.095,86,2.425,46,8.4802,0.3827,-13.1711,0.2022,-0.0121,0.0013,51
2.104,40,6.3046,0.6122,-17.4433,0.1524,-0.4736,-0.0318,86,2.477,47,8.2528,1.0461,-13.0953,0.1421,0.0079,-0.0322,51
2.156,41,6.008,0.7898,-17.6548,0.2255,-0.4718,-0.0676,86,2.528,48,8.3531,0.4698,-13.1199,-0.2613,0.0034,0.0944,51
2.208,42,5.8763,-0.468,-18.3198,0.5281,-0.5024,-0.1567,86,2.58,49,8.4212,0.5687,-12.93,-0.3892,-0.0679,0.1315,51
2.26,43,5.4781,-0.6125,-18.2587,0.7117,-0.57,-0.1537,86,2.632,50,8.4495,0.4234,-13.0014,-0.4369,-0.0614,0.1471,51
2.311,44,5.3425,-0.5795,-18.3127,0.6589,-0.5453,-0.1118,86,2.684,51,8.48,0.4756,-13.0111,-0.3057,-0.0334,0.0728,51
2.363,45,5.3605,-0.51,-18.2331,0.4112,-0.547,-0.0623,86,2.736,52,8.4406,0.4687,-12.9154,0.0337,-0.0146,-0.0868,51
2.415,46,5.4428,-0.3975,-18.2428,0.4054,-0.4967,-0.0143,86,2.787,53,8.4347,0.5546,-13.0115,0.2088,0.0012,-0.1364,51
2.467,47,5.3839,-0.314,-18.2125,0.3243,-0.3904,0.0024,86,2.839,54,8.4523,0.555,-12.8463,0.3008,0.0291,-0.174,51
2.519,48,5.2228,-0.3319,-18.2673,0.194,-0.2707,-0.0047,86,2.891,55,8.4837,0.7607,-12.9548,0.2705,-0.007,-0.1152,51
2.57,49,4.9551,-0.3844,-18.3093,0.1884,-0.1929,-0.0362,86,2.943,56,8.4659,0.623,-12.9788,0.234,-0.0041,-0.0546,51
2.622,50,4.9309,-0.635,-18.3412,0.1379,-0.153,-0.0424,86,2.994,57,8.3999,0.7276,-13.0235,0.2338,-0.0086,-0.0301,51
2.674,51,4.6856,-0.9067,-18.2759,0.1457,-0.1206,-0.024,86,3.046,58,8.2271,1.0979,-13.1274,0.0488,0.0255,0.0113,51
2.726,52,4.5361,-0.7444,-18.3708,0.1154,-0.0714,-0.0015,86,3.098,59,8.5289,0.3544,-13.0106,-0.2826,0.0219,0.1641,51
2.777,53,4.4114,-0.8587,-18.4585,0.0235,-0.0131,-0.0378,86,3.15,60,8.6217,0.3256,-13.0773,-0.3198,-0.0436,0.1779,51
2.829,54,4.3275,-0.834,-18.5891,0.0358,0.0081,-0.0921,86,3.202,61,8.6012,0.1933,-13.1088,-0.0728,-0.0245,0.0728,51
2.881,55,4.092,-0.8541,-18.581,0.0722,-0.0067,-0.1555,86,3.254,62,8.4534,0.472,-13.1425,0.0975,-0.0259,0.0102,51
2.933,56,3.9011,-0.9073,-18.1851,0.0203,0.0083,-0.1795,86,3.305,63,8.4152,0.4873,-13.1761,0.1231,-0.0139,-0.017,51
2.985,57,4.1694,-0.937,-18.0488,0.1233,0.0677,-0.1622,86,3.357,64,8.2394,1.0167,-13.0931,-0.0231,-0.0295,0.0227,51
3.036,58,4.4505,-0.9711,-18.2339,0.4145,0.0939,-0.1597,86,3.409,65,8.3643,0.655,-13.0289,-0.0598,-0.0416,0.0519,51
3.088,59,4.6702,-1.2071,-18.3826,0.5796,0.08,-0.2085,86,3.461,66,8.4368,0.5684,-13.0311,0.0133,-0.1336,0.0264,51
3.14,60,4.6593,-1.5444,-18.3445,0.5376,0.058,-0.2364,86,3.512,67,8.3979,0.6248,-13.1428,0.0439,-0.0878,0.0246,51
3.192,61,4.6157,-1.8566,-18.3468,0.4988,0.0194,-0.2526,86,3.564,68,8.2623,0.8808,-13.1878,-0.0476,-0.0546,0.0403,51
3.243,62,4.5728,-1.9683,-18.2661,0.4449,0.0082,-0.2601,86,3.616,69,8.2773,0.589,-13.1323,-0.014,0.025,0.0448,51
3.295,63,4.7124,-2.0333,-18.2913,0.3568,0.047,-0.2098,86,3.668,70,8.2829,0.4964,-13.2364,-0.0092,0.0086,0.0371,51
3.347,64,4.7423,-2.0239,-18.3342,0.3124,0.0741,-0.1464,86,3.72,71,8.2342,0.4962,-13.3072,-0.0859,-0.0031,0.0355,51
3.399,65,4.6508,-1.9381,-18.3741,0.2258,0.0752,-0.1112,86,3.771,72,8.2645,0.4369,-13.2644,-0.1108,-0.0192,0.0171,51
3.451,66,4.4784,-1.7343,-18.3305,0.0848,0.0869,-0.0986,86,3.823,73,8.2904,0.4308,-13.2725,-0.0558,-0.028,-0.0109,51
3.503,67,4.341,-1.7007,-18.3033,-0.279,0.1147,-0.037,86,3.875,74,8.323,0.5472,-13.2743,0.0748,-0.0365,-0.0822,51
3.554,68,4.5252,-1.6427,-18.4243,-0.381,0.0659,0.0298,86,3.927,75,8.3097,0.3509,-13.287,0.2143,-0.0431,-0.1048,51
3.606,69,4.7999,-1.4938,-18.4272,-0.3765,-0.0035,0.0527,86,3.978,76,8.2876,0.4575,-13.3554,0.3014,-0.0353,-0.1114,51
3.658,70,4.8972,-1.4245,-18.4033,-0.3947,-0.0438,0.0267,86,4.03,77,8.236,0.6487,-13.3646,0.2794,0.0267,-0.094,51
3.71,71,4.9525,-1.0837,-18.4677,-0.3,-0.0829,-0.0378,86,4.082,78,7.9042,1.6735,-13.2952,-0.0275,0.073,-0.0295,51
3.762,72,4.9246,-0.8618,-18.4101,-0.1803,-0.1048,-0.1251,86,4.134,79,8.1814,1.2658,-13.1252,-0.0697,0.0786,-0.0228,51
3.813,73,4.8679,-0.7359,-18.3922,-0.1509,-0.1084,-0.1857,86,4.186,80,8.3169,1.0679,-13.0819,-0.0597,0.0193,0.0169,51
3.865,74,4.7576,-0.8144,-18.3433,-0.0664,-0.1216,-0.2113,86,4.237,81,8.2934,0.86,-13.2224,0.0796,-0.0216,-0.0246,51
3.917,75,4.549,-0.8463,-18.2444,0.0072,-0.1188,-0.2377,86,4.289,82,8.4028,0.8204,-13.2389,0.006,0.0115,0.0224,51
3.969,76,4.4782,-0.9146,-18.2605,0.052,-0.0823,-0.2632,86,4.341,83,8.4889,0.5615,-13.1125,0.0284,0.0249,0.0029,51
4.02,77,4.4777,-0.87,-18.3557,0.1518,-0.0648,-0.2534,86,4.392,84,8.4608,0.4718,-13.1943,0.0818,0.0358,-0.0357,51
4.072,78,4.4912,-0.8311,-18.5886,0.233,-0.0776,-0.206,86,4.444,85,8.4595,0.4649,-13.1129,0.1268,-0.0094,-0.068,51
4.124,79,4.4555,-0.7757,-18.6539,0.2408,-0.0949,-0.1923,86,4.496,86,8.4243,0.5563,-13.146,0.1503,-0.0692,-0.0542,51
4.176,80,4.4294,-0.6396,-18.5721,0.1601,-0.1091,-0.1535,86,4.548,87,8.4366,0.4715,-13.221,0.1584,-0.0943,-0.04,51
4.228,81,4.4728,-0.6865,-18.5152,0.1086,-0.1173,-0.0952,86,4.6,88,8.1671,1.0973,-13.1726,0.0997,-0.1164,-0.0175,51
4.279,82,4.5019,-0.6571,-18.4635,0.0654,-0.0901,-0.0629,86,4.652,89,8.1621,0.9241,-13.4277,-0.2776,-0.1212,0.2009,51
4.331,83,4.5064,-0.6415,-18.4654,0.0397,-0.0596,-0.0481,86,4.704,90,8.5195,-0.0218,-13.3673,-0.4891,-0.1979,0.2779,51
4.383,84,4.2684,-0.5683,-18.4134,-0.0071,-0.0387,-0.011,86,4.755,91,8.3865,-0.3127,-13.5912,-0.3947,-0.1915,0.2362,51
4.435,85,4.0726,-0.6195,-18.5227,-0.0768,-0.04,0.0335,86,4.807,92,8.4135,-0.477,-13.6274,-0.1946,-0.1272,0.1075,51
4.486,86,3.8422,-0.7762,-18.5375,-0.1314,-0.0727,0.0353,86,4.859,93,8.3243,-0.2717,-13.8004,-0.0145,-0.1013,0.0349,51
4.538,87,4.0307,-0.9859,-18.5631,-0.2134,-0.0753,0.0777,86,4.911,94,8.2563,-0.0193,-13.7905,0.0466,-0.0657,0.0125,51
4.59,88,4.2979,-1.0666,-18.6736,-0.2587,-0.066,0.2162,86,4.962,95,8.2177,-0.0176,-13.8414,0.0707,-0.0586,-0.0249,51
4.642,89,4.5561,-0.9807,-18.7981,-0.2315,-0.0531,0.321,86,5.014,96,8.1961,0.1615,-13.8203,0.0655,-0.0545,-0.0291,51
4.694,90,4.4848,-0.7999,-18.8046,-0.2251,-0.0569,0.3559,86,5.066,97,8.2445,-0.0102,-13.8473,0.0609,-0.0344,-0.0334,51
4.746,91,4.3573,-0.7573,-18.928,-0.1327,-0.1125,0.3101,86,5.118,98,8.1609,0.1701,-13.824,0.0765,-0.0338,-0.0417,51
4.797,92,4.0537,-0.863,-19.0675,-0.0929,-0.1894,0.2494,86,5.169,99,8.0128,0.5777,-13.8571,-0.0018,-0.0385,-0.0267,51
4.849,93,3.8772,-0.8919,-19.0972,-0.0469,-0.2858,0.2119,86,5.221,100,8.1597,0.2256,-13.6642,-0.0138,-0.063,-0.0268,51
4.901,94,3.7654,-0.8172,-19.1173,-0.0436,-0.3638,0.1993,86,5.273,101,8.1478,0.3263,-13.78,0.0278,-0.0647,-0.0468,51
4.953,95,3.7387,-0.6631,-19.0932,-0.0213,-0.4227,0.1827,86,5.325,102,8.2556,0.2753,-13.7162,0.1011,-0.0714,-0.1049,51
5.005,96,3.5516,-0.6064,-18.981,-0.0009,-0.4464,0.1428,86,5.376,103,8.099,0.2695,-13.7473,0.1618,-0.0385,-0.1015,51
5.056,97,3.3411,-0.5842,-18.9064,0.0031,-0.4211,0.0964,86,5.428,104,8.0823,0.1635,-13.8339,0.1876,-0.055,-0.0939,51
5.108,98,3.1591,-0.5789,-18.8501,0.0047,-0.3723,0.0545,86,5.48,105,8.0322,0.2525,-13.9605,0.1846,-0.0469,-0.0879,51
5.16,99,2.8794,-0.5249,-18.7973,0.0037,-0.2854,0.0128,86,5.532,106,7.9898,0.3814,-14.0247,0.1477,-0.0326,-0.076,51
5.212,100,2.8786,-0.4306,-18.8887,-0.1557,-0.1613,0.0178,86,5.584,107,8.021,0.0561,-14.1044,-0.0954,-0.0037,0.0432,51
5.264,101,2.8725,-0.3804,-19.0981,-0.1734,-0.0754,0.0255,86,5.635,108,8.1824,0.0539,-13.8956,-0.1559,-0.0317,0.0721,51
5.315,102,2.7943,-0.4134,-19.2351,-0.1535,-0.0332,0.0306,86,5.687,109,8.2128,-0.2972,-14.1687,-0.3496,-0.0663,0.146,51
5.367,103,2.7494,-0.4492,-19.2715,-0.1579,-0.0166,0.0101,86,5.739,110,8.1791,-0.0941,-14.2263,-0.2184,-0.0355,0.082,51
5.419,104,2.651,-0.4944,-19.206,-0.1069,-0.0274,-0.0157,86,5.791,111,8.1523,-0.0513,-14.2007,-0.1017,0.0141,0.0157,51
5.471,105,2.6826,-0.4941,-19.1409,-0.0219,-0.02,-0.0499,86,5.842,112,8.0184,0.4533,-14.0998,-0.0762,0.0509,-0.001,51
5.522,106,2.5986,-0.4887,-19.1533,-0.0075,0.0126,-0.0697,86,5.894,113,8.036,0.4832,-14.0044,-0.0425,0.0776,-0.0137,51
5.574,107,2.5647,-0.6609,-19.3213,0.103,0.0396,-0.0791,86,5.946,114,8.0444,0.6773,-13.9055,-0.0075,0.0623,-0.0146,51
5.626,108,2.5826,-0.6641,-19.5916,0.0456,0.062,-0.0473,86,5.998,115,8.0305,0.567,-13.9434,0.0088,0.0408,-0.0083,51
5.678,109,2.6146,-0.4628,-19.5633,-0.0206,0.021,-0.0313,86,6.05,116,8.0786,0.5781,-13.879,0.0554,0.0219,-0.0415,51
5.73,110,2.5221,-0.4405,-19.2483,-0.0312,-0.0035,-0.0321,86,6.101,117,8.0485,0.6475,-13.91,0.1156,-0.0391,-0.0546,51
5.782,111,2.5485,-0.2777,-18.8801,-0.0208,0.0443,-0.0798,86,6.153,118,8.0002,0.8519,-13.9551,0.0624,-0.0363,-0.0095,51
5.833,112,2.7188,-0.1376,-18.8336,0.017,0.1155,-0.1234,86,6.205,119,8.1145,0.5283,-13.9199,-0.0379,-0.019,0.0534,51
5.885,113,2.8756,-0.0202,-19.1009,0.0841,0.1532,-0.136,86,6.257,120,8.1182,0.4275,-13.9101,-0.0374,-0.0071,0.0462,51
5.937,114,2.8918,-0.025,-19.4112,0.0497,0.134,-0.1195,86,6.309,121,8.2017,0.0964,-14.02,-0.1086,0.0109,0.0671,51
5.989,115,2.8615,-0.1137,-19.5094,0.0038,0.0701,-0.1135,86,6.36,122,8.2014,0.1471,-13.9281,-0.0867,0.0242,0.049,51
6.04,116,2.8097,-0.192,-19.5259,0.0684,-0.0303,-0.1288,86,6.412,123,8.1149,0.3802,-13.9369,-0.1032,0.029,0.0703,51
6.092,117,2.8182,-0.181,-19.4391,0.1349,-0.1007,-0.1523,86,6.464,124,8.1198,0.1473,-13.8637,-0.0706,0.0399,0.0553,51
6.144,118,2.7757,-0.313,-19.4156,0.162,-0.1519,-0.2005,86,6.516,125,8.1002,0.171,-13.861,-0.0159,0.0497,0.0255,51
6.196,119,2.7893,-0.7097,-19.4449,0.5485,-0.2541,-0.3041,86,6.567,126,8.074,0.3919,-13.8102,-0.0186,0.044,0.0216,51
6.247,120,2.7566,-0.9809,-19.4148,0.6701,-0.2962,-0.3532,86,6.619,127,8.0761,0.343,-13.7787,-0.062,0.0349,0.0391,51
6.299,121,2.6748,-1.2239,-19.3771,0.6121,-0.304,-0.3539,86,6.671,128,8.1152,0.3219,-13.7164,-0.0524,0.0099,0.041,51
6.351,122,2.5119,-1.2586,-19.1574,0.6023,-0.2894,-0.3243,86,6.723,129,8.1304,0.3481,-13.7037,-0.0161,-0.0177,0.0359,51
6.403,123,2.3783,-1.313,-19.0028,0.4216,-0.2203,-0.2856,86,6.775,130,8.0747,0.4764,-13.8116,-0.0787,-0.027,0.0637,51
6.454,124,2.3147,-1.4705,-18.9138,0.3234,-0.1387,-0.246,86,6.826,131,8.1132,0.4202,-13.8267,-0.1572,-0.0348,0.0983,51
6.506,125,2.2108,-1.803,-19.0374,0.2698,-0.0706,-0.2157,86,6.878,132,8.1459,0.4296,-13.8369,-0.1668,-0.0453,0.0975,51
6.558,126,2.1853,-2.047,-19.2073,0.2158,-0.0509,-0.1626,86,6.93,133,8.1707,0.2729,-13.8922,-0.1533,-0.0161,0.0862,51
6.61,127,2.1807,-2.2068,-19.3285,0.191,-0.0646,-0.0998,86,6.982,134,8.1938,0.0527,-13.8308,-0.0117,-0.005,0.0086,51
6.662,128,2.1464,-2.2072,-19.2574,0.1589,-0.073,-0.03,86,7.033,135,8.0953,0.3178,-13.9331,0.0394,-0.0151,-0.0073,51
6.713,129,2.1102,-2.1115,-19.17,0.0878,-0.0553,0.0403,86,7.085,136,8.1787,0.0263,-13.9109,0.1503,-0.0282,-0.0463,51
6.765,130,1.9891,-2.0847,-19.1022,0.0627,-0.0305,0.0784,86,7.137,137,8.1319,0.0882,-14.0551,0.1263,-0.0363,-0.0555,51
6.817,131,1.9045,-2.1321,-19.1677,0.011,-0.0046,0.0833,86,7.189,138,7.7831,-0.028,-14.1481,0.1496,0.0721,-0.0292,51
6.869,132,1.8288,-2.1405,-19.1956,0.0599,-0.027,0.0643,86,7.24,139,7.75,0.2066,-14.1117,0.0128,-0.029,0.0482,51
6.921,133,1.8797,-2.1268,-19.3116,0.0264,-0.0433,0.0537,86,7.292,140,7.9887,-0.0159,-14.0346,-0.0135,-0.1037,0.0776,51
6.972,134,1.9217,-2.1525,-19.3195,0.0325,-0.0883,0.0452,86,7.344,141,7.8456,0.1853,-14.2741,-0.0358,-0.1274,0.0969,51
7.024,135,1.9585,-2.1295,-19.1771,-0.0286,-0.1013,0.0525,86,7.396,142,7.8869,0.12,-14.2554,-0.0889,-0.1068,0.1141,51
7.076,136,2.0812,-2.1699,-18.9442,-0.0007,-0.0901,0.101,86,7.447,143,7.8837,0.0487,-14.319,-0.1746,-0.0975,0.1209,51
7.128,137,2.1254,-2.2853,-18.8905,-0.0017,-0.005,0.1557,86,7.499,144,7.9003,0.1545,-14.2638,-0.1747,-0.0843,0.0935,51
7.179,138,1.9829,-2.4096,-18.9855,0.0329,0.0662,0.1727,86,7.551,145,8.1073,-0.0887,-14.2021,-0.0789,-0.0409,0.027,51
7.231,139,1.8926,-2.4456,-19.1625,0.0621,0.1003,0.1812,86,7.603,146,8.3518,-0.0986,-14.1208,0.1802,0.0379,-0.1173,51
7.283,140,1.8349,-2.3944,-19.3059,0.0515,0.0908,0.1806,86,7.655,147,8.1736,0.204,-14.0591,0.4463,0.003,-0.2706,51
7.335,141,1.8303,-2.382,-19.2969,0.0687,0.0414,0.1471,86,7.707,148,8.0925,0.3488,-14.2113,0.3784,0.0304,-0.2477,51
7.387,142,1.8455,-2.3784,-19.2661,0.0513,0.0084,0.1076,86,7.758,149,8.1015,0.3089,-14.1776,0.3122,0.0798,-0.2274,51
7.438,143,1.8382,-2.2932,-19.2444,0.0505,-0.0035,0.0527,86,7.81,150,8.0454,0.5359,-14.1009,0.2758,0.0911,-0.1978,51
7.49,144,1.7457,-2.1851,-19.2362,0.0006,0.0027,0.0068,86,7.862,151,7.9726,0.3052,-14.0927,0.0536,0.0796,-0.0667,51
7.542,145,1.7997,-2.1822,-19.3301,-0.0582,0.0038,-0.0443,86,7.914,152,8.0571,0.3856,-13.9753,-0.0335,0.0354,-0.0164,51
7.594,146,1.8793,-2.2581,-19.3443,-0.0887,-0.0099,-0.0726,86,7.965,153,8.0839,0.1951,-13.9623,-0.1218,0.0033,0.0408,51
7.645,147,1.9391,-2.3465,-19.217,-0.139,-0.0216,-0.0506,86,8.017,154,8.06,0.2171,-13.9556,-0.0792,0.0035,0.0271,51
7.697,148,1.8655,-2.3437,-18.9683,-0.1862,-0.0102,-0.0111,86,8.069,155,8.022,0.4236,-14.0165,-0.1269,0.0116,0.0584,51
7.749,149,1.9243,-2.3311,-18.9868,-0.2665,0.0436,0.0517,86,8.121,156,8.041,0.6217,-13.9059,-0.2297,0.0102,0.0797,51
7.801,150,1.9354,-2.2782,-19.2216,-0.3152,0.0771,0.1032,86,8.173,157,8.0452,0.4659,-13.877,-0.256,-0.0114,0.1074,51
7.853,151,2.0737,-1.9954,-19.4499,-0.3316,0.0528,0.1287,86,8.224,158,8.1132,0.4067,-13.9753,-0.2403,-0.0398,0.1131,51
7.904,152,2.0442,-1.7317,-19.45,-0.3343,0.0085,0.1126,86,8.276,159,8.1457,0.2732,-14.0473,-0.1483,-0.0321,0.0613,51
7.956,153,1.9623,-1.5222,-19.2983,-0.3092,-0.0044,0.0828,86,8.328,160,8.1434,0.2814,-14.04,-0.1275,-0.0137,0.0483,51
8.008,154,1.9145,-1.3772,-19.236,-0.3259,0.0159,0.094,86,8.38,161,8.132,0.1544,-14.0313,-0.0877,0.0061,0.0226,51
8.06,155,1.8661,-1.2821,-19.274,-0.3296,0.0461,0.1549,86,8.431,162,8.0964,0.3063,-14.0396,-0.0697,0.0178,0.0081,51
8.112,156,1.8334,-1.2856,-19.3944,-0.2455,0.0536,0.2024,86,8.483,163,8.0746,0.2674,-14.012,-0.0769,0.0327,0.0021,51
8.164,157,1.8054,-1.2233,-19.4457,-0.1978,0.0458,0.1877,86,8.535,164,8.0812,0.322,-13.9646,-0.0506,0.0227,-0.0088,51
8.215,158,1.8032,-1.0679,-19.3947,-0.1418,0.0175,0.1494,86,8.587,165,8.0609,0.1732,-13.9813,0.0334,0.0191,-0.0447,51
8.267,159,1.8266,-0.9555,-19.2873,-0.0584,-0.0024,0.1164,86,8.639,166,8.0224,0.3715,-13.9693,0.1353,-0.0204,-0.0974,51
8.319,160,1.9216,-0.9882,-19.3282,-0.0387,0.0097,0.0796,86,8.69,167,7.9585,0.6395,-14.0495,0.1274,-0.0406,-0.0566,51
8.371,161,1.9625,-1.0058,-19.3034,0.1025,-0.0052,0.0529,86,8.742,168,7.9897,0.5202,-14.0839,-0.0149,-0.0392,0.0116,51
8.422,162,2.0072,-0.967,-19.3025,0.1188,0.0067,0.083,86,8.794,169,7.9641,0.4371,-14.0409,0.0204,-0.0296,-0.0179,51
8.474,163,2.1253,-0.98,-19.4808,0.0132,0.0363,0.0916,86,8.846,170,7.9338,0.4357,-14.1057,0.0384,-0.0079,-0.037,51
8.526,164,2.2393,-1.0749,-19.4566,0.0454,0.0242,0.0314,86,8.897,171,7.9816,0.4241,-14.0312,0.0351,-0.0042,-0.0437,51
8.578,165,2.217,-1.2082,-19.3471,0.0395,0.0326,-0.0342,86,8.949,172,8.0078,0.4027,-14.0754,0.0042,-0.012,-0.0213,51
8.63,166,2.1854,-1.2633,-19.2864,0.0241,0.0526,-0.059,86,9.001,173,8.0618,0.3947,-14.0808,0.0141,-0.0123,-0.0333,51
8.681,167,2.084,-1.3258,-19.2832,0.0672,0.0642,-0.0753,86,9.053,174,8.0678,0.453,-14.1245,0.0356,0.0307,-0.0499,51
8.733,168,2.0692,-1.3411,-19.3308,0.0538,0.0783,-0.1017,86,9.105,175,8.0495,0.4831,-14.0266,0.0282,0.0649,-0.0347,51
8.785,169,2.0874,-1.3582,-19.4335,0.0166,0.0704,-0.114,86,9.156,176,8.0819,0.4405,-13.9116,0.0403,0.0589,-0.0182,51
8.837,170,2.2983,-1.2305,-19.4111,0.0075,0.0642,-0.1117,86,9.208,177,8.0115,0.5961,-13.9913,0.028,0.0382,0.0007,51
8.888,171,2.5459,-1.0071,-19.3456,-0.0523,0.094,-0.0943,86,9.26,178,8.0982,0.4507,-13.8898,0.0164,0.0375,0.004,51
8.94,172,2.8267,-0.7288,-19.2651,-0.1058,0.1584,-0.1082,86,9.312,179,8.0353,0.6266,-13.8924,-0.0109,-0.0166,0.0365,51
8.992,173,2.9256,-0.5855,-19.3279,-0.2509,0.2383,-0.1399,86,9.364,180,8.0805,0.5051,-13.9298,-0.0178,-0.0398,0.0517,51
9.044,174,2.8439,-0.6379,-19.3026,-0.1834,0.2334,-0.2046,86,9.415,181,7.909,0.4364,-14.0013,0.0053,0.0133,0.0436,51
9.096,175,2.6854,-0.7289,-19.2039,-0.2056,0.2389,-0.2628,86,9.467,182,7.906,0.4904,-13.9518,0.0175,0.0146,0.0326,51
9.147,176,2.613,-0.7921,-19.1465,-0.1936,0.2253,-0.3166,86,9.519,183,7.9972,0.3133,-13.9751,0.0004,-0.0116,0.0397,51
9.199,177,2.6069,-0.7791,-19.1108,-0.108,0.1895,-0.3474,86,9.57,184,8.0462,0.178,-14.0213,0.0419,0.0161,0.0073,51
9.303,179,2.7846,-0.7635,-19.3499,0.0294,0.1277,-0.3248,86,9.622,185,8.0617,0.3992,-13.9394,0.1019,0.0288,-0.0433,51
9.355,180,2.8525,-0.7215,-19.3759,0.1019,0.0728,-0.231,86,9.674,186,8.0462,0.4579,-13.929,0.0945,0.0316,-0.0391,51
9.406,181,2.9679,-0.4714,-19.3431,0.044,0.043,-0.1245,86,9.726,187,8.0988,0.2839,-13.8495,0.1151,0.0366,-0.0448,51
9.458,182,3.0033,-0.2836,-19.3517,0.1622,0.016,-0.0754,86,9.778,188,8.0238,0.5304,-13.889,0.1051,-0.0061,-0.0429,51
9.51,183,2.9207,-0.2556,-19.2557,0.1094,-0.0015,-0.0353,86,9.829,189,8.1042,0.5037,-13.9006,0.0629,-0.0095,-0.0286,51
9.562,184,2.948,-0.232,-19.1693,0.0137,-0.0155,-0.0098,86,9.881,190,8.0874,0.4371,-13.8542,0.0218,-0.0418,-0.0065,51
9.614,185,3.013,-0.3506,-19.1557,0.0131,-0.0283,-0.0002,86,9.933,191,8.1022,0.422,-13.8807,-0.0459,-0.0471,0.0231,51
9.665,186,3.0939,-0.4559,-19.1669,-0.0265,-0.0298,0.0348,86,9.985,192,8.2062,0.3443,-13.8098,-0.0576,0.0194,0.0314,51
9.717,187,3.1563,-0.5552,-19.1441,-0.0492,-0.0296,0.0734,86,10.036,193,8.1526,0.4251,-13.8638,-0.0583,0.0313,0.0348,51
9.769,188,3.0868,-0.6786,-19.1699,-0.0453,-0.0537,0.1428,86,10.088,194,8.1785,0.2837,-13.818,-0.0455,0.0528,0.0291,51
9.821,189,3.072,-0.6066,-19.2803,-0.1437,-0.0531,0.2377,86,10.14,195,8.1701,0.3854,-13.7609,-0.0119,0.0427,0.004,51
9.872,190,3.0744,-0.6521,-19.3406,-0.1422,-0.0774,0.3114,86,10.192,196,8.2674,0.2303,-13.7107,-0.0237,0.0452,-0.0011,51
9.924,191,2.9457,-0.5229,-19.3626,-0.1158,-0.1182,0.3309,86,10.244,197,8.2152,0.2934,-13.7385,-0.0439,0.0162,0.0057,51
9.976,192,2.8703,-0.3972,-19.2674,-0.1165,-0.1715,0.3131,86,10.295,198,8.1846,0.323,-13.7262,-0.073,0.0109,0.0115,51
10.028,193,2.8286,-0.3585,-19.1549,-0.0591,-0.2009,0.2561,86,10.347,199,8.1881,0.3062,-13.6557,-0.0898,0.0005,0.0064,51
