right_leg_timestamp,right_leg_index,right_leg_accel_x,right_leg_accel_y,right_leg_accel_z,right_leg_gyro_x,right_leg_gyro_y,right_leg_gyro_z,right_leg_battery_percentage,left_leg_timestamp,left_leg_index,left_leg_accel_x,left_leg_accel_y,left_leg_accel_z,left_leg_gyro_x,left_leg_gyro_y,left_leg_gyro_z,left_leg_battery_percentage
0.144,2,9.4866,-0.2351,-11.7552,0.1021,0.0911,0.0908,80,0.147,2,8.2958,3.5092,-11.1892,0.0803,0.0912,0.2152,52
0.195,3,9.4968,-0.279,-11.722,0.0801,0.0681,0.0902,80,0.199,3,8.357,3.2094,-11.025,0.1798,-0.026,0.3922,52
0.247,4,9.5011,-0.35,-11.7096,0.1115,0.0452,0.0836,80,0.25,4,7.9584,3.0277,-11.7931,0.3283,-0.3033,0.5355,52
0.299,5,9.4936,-0.4527,-11.684,0.1055,0.0242,0.0864,80,0.302,5,9.0717,0.9904,-13.2493,0.2027,-0.372,1.0711,52
0.351,6,9.4521,-0.5535,-11.6985,0.2202,-0.0029,0.0803,80,0.354,6,9.3497,-0.2013,-13.7433,-0.0691,-0.6405,1.4621,52
0.403,7,9.5757,-0.5587,-11.658,0.214,-0.0292,0.0919,80,0.406,7,9.0386,-0.7495,-13.3626,0.0465,-0.9723,1.7475,52
0.454,8,9.5926,-0.4444,-11.6291,0.215,-0.0508,0.1132,80,0.458,8,8.4159,-1.1159,-13.3036,0.2577,-1.3764,1.9557,52
0.506,9,9.5851,-0.5796,-11.7937,0.1354,-0.0697,0.1278,80,0.509,9,8.344,-2.1237,-13.7899,0.5587,-1.6713,2.1077,52
0.558,10,9.5716,-0.5991,-11.7999,0.0323,-0.0352,0.1485,80,0.561,10,7.7417,-2.7943,-14.3847,0.6109,-1.7017,2.2187,52
0.61,11,9.5699,-1.2425,-11.8043,-0.0905,-0.0393,0.147,80,0.613,11,6.6239,-3.2982,-14.5322,0.5751,-1.5694,2.0605,52
0.662,12,9.5676,-0.9921,-11.859,0.1176,-0.03,0.1059,80,0.665,12,5.5644,-4.3123,-14.5766,0.6299,-1.3921,1.8542,52
0.713,13,9.5827,-1.0073,-11.7667,0.1923,-0.0156,0.1063,80,0.717,13,5.0417,-4.7565,-14.5258,0.6472,-1.2693,1.64,52
0.765,14,9.5199,-0.9392,-11.7429,0.1687,0.0201,0.138,80,0.768,14,4.1439,-5.914,-14.5808,0.5133,-1.1127,1.6405,52
0.817,15,9.5094,-0.9413,-11.6292,-0.0146,0.0379,0.1664,80,0.82,15,2.8314,-6.692,-14.5349,0.3844,-0.7391,1.5443,52
0.869,16,9.5152,-1.1629,-11.664,-0.0985,0.0074,0.1457,80,0.872,16,1.8641,-7.121,-14.5837,0.3543,-0.6805,1.3108,52
0.92,17,9.4556,-1.3298,-11.6986,-0.176,0.0071,0.1234,80,0.924,17,1.0306,-7.3737,-14.5349,0.3039,-0.4623,1.1045,52
0.972,18,9.4083,-1.3032,-11.6337,-0.1977,-0.0177,0.0792,80,0.976,18,0.4793,-7.3575,-14.427,0.266,-0.2627,0.9262,52
1.024,19,9.3806,-1.3294,-11.7793,-0.2497,-0.0379,0.0344,80,1.027,19,-0.0995,-7.3178,-14.435,0.2052,-0.0614,0.7625,52
1.076,20,9.3793,-1.3012,-11.8742,-0.2689,-0.0268,0.0096,80,1.079,20,-0.3085,-7.382,-14.708,0.1503,0.1788,0.5611,52
1.128,21,9.2855,-1.6502,-11.9029,-0.2186,-0.0021,0.0026,80,1.131,21,-0.4671,-7.4234,-15.167,-0.0305,0.482,0.159,52
1.179,22,9.3109,-1.0808,-11.9512,0.1668,0.0168,-0.0097,80,1.183,22,-0.6361,-7.2566,-15.8229,-0.2554,0.4882,-0.3282,52
1.231,23,9.4477,-1.2489,-11.879,0.1462,-0.0212,-0.0127,80,1.235,23,0.2594,-7.2562,-15.3239,-0.4174,0.5165,-0.722,52
1.283,24,9.4695,-1.2117,-11.9609,0.115,-0.0362,-0.0072,80,1.286,24,0.2596,-6.8439,-15.2065,-0.1867,0.6307,-0.9195,52
1.335,25,9.4275,-1.2172,-11.9195,0.1032,-0.005,0.0134,80,1.338,25,0.6537,-7.4036,-15.7519,-0.363,0.5207,-0.6002,52
1.387,26,9.4116,-1.2857,-11.8109,0.069,-0.0226,0.0123,80,1.39,26,0.9273,-7.5749,-16.0072,-0.3021,0.383,-0.5071,52
1.438,27,9.4042,-1.2239,-11.8905,0.0691,-0.0337,0.0077,80,1.442,27,1.4911,-7.7995,-16.2075,-0.1806,0.2937,-0.4873,52
1.49,28,9.4043,-1.1999,-11.8229,-0.0341,-0.0407,0.0196,80,1.493,28,1.3159,-5.7269,-16.0663,-0.6025,0.8993,-0.7883,52
1.542,29,9.3923,-1.1745,-11.9519,-0.0803,-0.0549,0.0217,80,1.545,29,1.019,-5.9675,-15.7428,-1.1168,0.5006,0.1006,52
1.594,30,9.3799,-1.2759,-11.9716,-0.0941,-0.0399,0.0231,80,1.597,30,1.2956,-5.526,-15.1281,-0.7481,0.4034,-0.0501,52
1.646,31,9.3735,-1.2757,-12.0233,-0.0531,-0.0281,0.0202,80,1.649,31,1.4374,-5.8066,-15.6306,-0.5774,0.2402,0.031,52
1.697,32,9.3877,-1.1553,-11.9751,-0.0436,-0.0082,0.0207,80,1.701,32,1.9437,-5.7778,-15.9929,-0.4757,0.1955,0.0812,52
1.749,33,9.3598,-1.2004,-11.9885,-0.0285,-0.0025,0.0154,80,1.752,33,2.3405,-5.8297,-16.2925,-0.3142,0.0564,0.0809,52
1.801,34,9.3628,-1.2006,-11.9809,-0.0132,0.0146,0.0139,80,1.804,34,2.5028,-5.8959,-16.4388,-0.2156,-0.0712,0.088,52
1.853,35,9.3539,-1.2514,-11.9612,-0.0098,0.0201,0.0128,80,1.856,35,2.601,-5.7653,-16.5398,-0.1045,-0.161,0.0568,52
1.905,36,9.3525,-1.2856,-11.9461,0.0054,0.029,0.0073,80,1.908,36,2.4983,-5.6807,-16.4399,0.0406,-0.2045,0.0563,52
1.957,37,9.2856,-1.5021,-11.8941,0.0788,0.0339,-0.0022,80,1.96,37,2.5794,-5.6607,-16.4592,0.1158,-0.2437,0.0834,52
2.008,38,9.3965,-1.2112,-11.789,0.0815,0.0179,-0.0102,80,2.011,38,2.6125,-5.8878,-16.5831,0.0624,-0.2049,0.1167,52
2.06,39,9.3692,-1.2276,-11.8018,0.0718,-0.0137,-0.0154,80,2.063,39,2.4559,-6.2812,-16.796,0.0058,-0.1559,0.1615,52
2.112,40,9.4011,-1.2141,-11.8839,0.0793,-0.0158,-0.0185,80,2.115,40,2.5945,-6.3809,-16.8281,0.0027,-0.116,0.1457,52
2.164,41,9.4015,-1.2254,-11.8692,0.0557,-0.0095,-0.0083,80,2.166,41,2.4779,-6.5132,-16.7791,0.0248,-0.0858,0.1206,52
2.215,42,9.3912,-1.2099,-11.8759,0.0379,-0.0018,-0.0008,80,2.218,42,2.3558,-6.4937,-16.8303,-0.025,-0.0551,0.1008,52
2.267,43,9.4097,-1.1678,-11.8528,-0.0063,-0.0013,0.0064,80,2.27,43,2.2449,-6.4512,-16.7277,0.0103,-0.0051,0.0598,52
2.319,44,9.3889,-1.2398,-11.8874,-0.0451,-0.0081,0.0056,80,2.322,44,2.2534,-6.2202,-16.6186,0.088,0.0738,-0.017,52
2.371,45,9.3852,-1.2774,-11.8879,-0.0606,-0.0079,0.0009,80,2.374,45,2.3838,-6.2312,-16.7009,0.0822,0.1708,-0.1205,52
2.423,46,9.3825,-1.2872,-11.8825,-0.0449,-0.0038,-0.0093,80,2.425,46,2.5172,-6.3034,-16.8445,0.056,0.2206,-0.1539,52
2.475,47,9.3969,-1.2658,-11.8704,-0.0346,-0.0042,-0.0157,80,2.477,47,2.6224,-6.4306,-16.9738,0.0442,0.21,-0.1543,52
2.526,48,9.4002,-1.2527,-11.8765,-0.0189,-0.0076,-0.0211,80,2.529,48,2.5461,-6.5013,-16.9857,0.0168,0.1782,-0.1131,52
2.578,49,9.3851,-1.2691,-11.9077,-0.01,-0.013,-0.0229,80,2.581,49,2.6362,-6.4862,-16.9901,0.0401,0.1053,-0.0534,52
2.63,50,9.3834,-1.3607,-11.9102,0.0113,-0.0259,-0.0348,80,2.632,50,2.7204,-6.3926,-16.9258,0.062,0.0439,-0.0172,52
2.682,51,9.3854,-1.2379,-11.893,0.1523,-0.0104,-0.0425,80,2.684,51,2.7643,-6.3339,-16.8234,0.0349,0.0049,0.0189,52
2.733,52,9.3772,-1.2415,-11.921,0.1061,-0.0348,-0.0332,80,2.736,52,2.8066,-6.299,-16.724,0.0238,-0.0333,0.0325,52
2.785,53,9.3959,-1.1856,-11.95,0.0709,-0.0252,-0.011,80,2.788,53,2.7701,-6.3103,-16.6572,0.0319,-0.0453,0.0195,52
2.837,54,9.4027,-1.1961,-11.9051,0.0662,-0.0209,-0.0012,80,2.84,54,2.7192,-6.3274,-16.6581,0.0661,-0.0425,0.0007,52
2.889,55,9.3635,-1.3244,-11.9426,0.0521,-0.0251,-0.0027,80,2.891,55,2.7245,-6.3351,-16.6681,0.0552,-0.0239,0.0086,52
2.941,56,9.3988,-1.3717,-11.9097,0.1029,-0.0299,-0.0191,80,2.943,56,2.837,-6.3575,-16.6666,0.0384,-0.0415,0.0261,52
2.992,57,9.475,-1.1871,-11.8792,0.1667,-0.0526,-0.0303,80,2.995,57,2.901,-6.4423,-16.5361,0.0219,-0.0556,0.0549,52
3.044,58,9.4985,-1.0651,-11.8843,0.0558,-0.0465,0.0056,80,3.047,58,2.8327,-6.4224,-16.3183,-0.0042,-0.0449,0.0504,52
3.096,59,9.4731,-0.9627,-11.9088,-0.1496,-0.0381,0.0423,80,3.099,59,2.701,-6.4622,-16.2508,0.0184,-0.0169,0.0259,52
3.148,60,9.3946,-1.3884,-11.9395,-0.213,-0.0635,0.0379,80,3.15,60,2.7761,-6.4329,-16.408,0.0351,0.064,0.0211,52
3.199,61,9.3104,-1.5558,-12.03,-0.1235,-0.0554,0.0082,80,3.202,61,2.7578,-6.4254,-16.5166,-0.001,0.1215,0.0482,52
3.251,62,9.3559,-1.2628,-12.0231,0.0761,-0.0625,-0.0255,80,3.254,62,2.7018,-6.4174,-16.5941,-0.0414,0.129,0.0841,52
3.303,63,9.4033,-1.1077,-12.1186,0.0358,-0.0752,-0.0306,80,3.306,63,2.6901,-6.3845,-16.5891,-0.0461,0.118,0.0933,52
3.355,64,9.3921,-1.1486,-12.2018,0.013,-0.0764,-0.0288,80,3.358,64,2.6498,-6.3908,-16.5548,-0.0553,0.1077,0.0666,52
3.407,65,9.3656,-1.0803,-12.2224,-0.0458,-0.0636,-0.0085,80,3.409,65,2.5452,-6.4367,-16.6079,-0.0394,0.0999,0.0273,52
3.459,66,9.3488,-1.1866,-12.2543,-0.1309,-0.062,0.0092,80,3.461,66,2.5123,-6.4329,-16.7065,-0.0057,0.0828,0.0025,52
3.51,67,9.3096,-1.264,-12.3017,-0.0924,-0.0624,-0.0062,80,3.513,67,2.5001,-6.4214,-16.7737,0.0331,0.0289,-0.0173,52
3.562,68,9.3147,-1.21,-12.3145,0.0199,-0.0451,-0.0252,80,3.565,68,2.5425,-6.348,-16.7721,0.0679,-0.0314,-0.0412,52
3.614,69,9.3417,-1.2043,-12.3505,0.0746,-0.0353,-0.0366,80,3.616,69,2.7076,-6.2484,-16.6476,0.0711,-0.081,-0.0567,52
3.666,70,9.3728,-1.0303,-12.328,0.0932,-0.0281,-0.0356,80,3.668,70,2.9226,-6.2854,-16.4749,0.0693,-0.1311,-0.1046,52
3.717,71,9.4116,-0.83,-12.3071,0.0256,-0.0054,-0.0087,80,3.72,71,2.9431,-6.3708,-16.3006,0.0332,-0.1047,-0.1335,52
3.769,72,9.3135,-1.239,-12.356,-0.1616,-0.0267,0.0271,80,3.772,72,2.924,-6.4559,-16.1837,0.0563,-0.0866,-0.1689,52
3.821,73,9.3273,-1.2848,-12.395,-0.1523,-0.0426,0.0256,80,3.823,73,3.0032,-6.5204,-16.2703,0.0268,-0.0029,-0.1398,52
3.873,74,9.2381,-1.4215,-12.4116,-0.0753,-0.0416,0.0048,80,3.875,74,3.0194,-6.5594,-16.3509,0.0014,0.0622,-0.0974,52
3.925,75,9.3341,-1.0289,-12.3257,-0.0112,-0.0456,-0.0215,80,3.927,75,2.9567,-6.5755,-16.4282,-0.0331,0.0991,-0.0308,52
3.976,76,9.3179,-1.0149,-12.4085,-0.0185,-0.0581,-0.0307,80,3.979,76,2.9034,-6.5138,-16.4401,-0.0397,0.1058,0.0136,52
4.028,77,9.3239,-1.0122,-12.4802,-0.0203,-0.0476,-0.0248,80,4.031,77,2.889,-6.4712,-16.4458,-0.049,0.1028,0.0372,52
4.08,78,9.3066,-1.0207,-12.4989,-0.0186,-0.0321,-0.0194,80,4.082,78,2.9083,-6.4432,-16.4856,-0.0392,0.0932,0.0343,52
4.132,79,9.2828,-0.9986,-12.5109,-0.0313,-0.0205,-0.0138,80,4.134,79,2.8671,-6.467,-16.51,-0.0243,0.0819,0.0338,52
4.184,80,9.2782,-1.0303,-12.5163,-0.0335,-0.0138,-0.0184,80,4.186,80,2.9196,-6.4565,-16.5977,-0.0076,0.0646,0.038,52
4.235,81,9.2446,-1.1587,-12.5325,-0.0025,-0.0182,-0.0347,80,4.238,81,2.9322,-6.4069,-16.6231,-0.01,0.0528,0.0673,52
4.287,82,9.2377,-1.1388,-12.6242,0.1706,-0.0026,-0.0515,80,4.289,82,3.0297,-6.4302,-16.5692,-0.0226,0.0244,0.106,52
4.339,83,9.3284,-0.8593,-12.5161,0.1644,0.007,-0.0467,80,4.341,83,3.0806,-6.4718,-16.5234,0.0732,-0.0112,0.0921,52
4.39,84,9.3389,-0.7891,-12.5159,0.0857,0.0494,-0.0093,80,4.393,84,2.9919,-6.5234,-16.4263,0.175,0.004,0.0679,52
4.442,85,9.2873,-1.1916,-12.3071,-0.033,0.0365,0.0138,80,4.445,85,2.9895,-6.5125,-16.3757,0.2309,0.0097,0.0554,52
4.494,86,9.2899,-1.0647,-12.3417,0.0369,0.0317,0.009,80,4.496,86,3.0184,-6.5108,-16.2711,0.1655,0.0097,0.0755,52
4.546,87,9.3332,-1.0069,-12.2981,0.0692,0.0136,0.0057,80,4.548,87,3.0132,-6.5515,-16.1315,0.0749,0.0001,0.0906,52
4.598,88,9.3528,-0.8588,-12.3558,-0.045,0.0354,0.0398,80,4.6,88,2.8753,-6.6679,-16.0244,-0.0012,0.0417,0.1016,52
4.65,89,9.3225,-0.9685,-12.3284,-0.1758,0.0326,0.0625,80,4.652,89,2.923,-6.6962,-15.9608,-0.0293,0.0718,0.0773,52
4.702,90,9.2923,-1.0502,-12.3642,-0.1916,0.0325,0.0644,80,4.704,90,2.9972,-6.7454,-16.0105,-0.0627,0.1127,0.0665,52
4.753,91,9.2446,-1.1918,-12.3393,-0.1658,0.0327,0.0612,80,4.755,91,2.9934,-6.7901,-16.0992,-0.0734,0.1424,0.0756,52
4.805,92,9.2726,-1.1077,-12.3301,-0.178,0.0155,0.0576,80,4.807,92,2.9371,-6.7677,-16.1243,-0.0892,0.1609,0.1035,52
4.857,93,9.2851,-1.0879,-12.3688,-0.1549,0.0024,0.0458,80,4.859,93,2.9143,-6.7278,-16.1543,-0.1145,0.1727,0.1269,52
4.909,94,9.2826,-1.0892,-12.3927,-0.154,-0.001,0.0394,80,4.911,94,2.8993,-6.7122,-16.1891,-0.1377,0.1795,0.1437,52
4.961,95,9.2926,-1.0486,-12.4212,-0.1705,-0.0045,0.0374,80,4.963,95,2.8702,-6.7174,-16.1663,-0.1581,0.1848,0.1586,52
5.012,96,9.2834,-1.0699,-12.4477,-0.2018,-0.0015,0.04,80,5.014,96,2.7756,-6.7565,-16.0928,-0.1531,0.1728,0.1603,52
5.064,97,9.3132,-1.0706,-12.4196,-0.2166,0.0056,0.0372,80,5.066,97,2.9124,-6.7182,-16.2693,-0.0182,0.1061,0.0799,52
5.116,98,9.2781,-1.1966,-12.4062,-0.2211,0.0198,0.0339,80,5.118,98,2.9632,-6.6996,-16.3569,0.0559,0.126,0.0448,52
5.168,99,9.0181,-1.7646,-12.4556,0.0059,0.0334,0.0111,80,5.17,99,2.9891,-6.5426,-16.3824,0.0792,0.0686,-0.0048,52
5.219,100,9.4715,-0.6798,-12.1916,0.1174,0.0042,-0.0323,80,5.221,100,2.895,-6.5183,-16.351,0.0243,0.0392,0.0279,52
5.271,101,9.4522,-0.7917,-12.3929,0.1801,-0.0607,-0.0681,80,5.273,101,2.8921,-6.4895,-16.2548,0.0203,0.0035,0.0193,52
5.323,102,9.4613,-0.6447,-12.4678,0.1667,-0.0413,-0.0737,80,5.325,102,2.9408,-6.5235,-16.2378,0.0062,-0.0044,-0.0024,52
5.375,103,9.389,-0.7033,-12.449,0.0996,-0.0212,-0.0523,80,5.377,103,3.0059,-6.5752,-16.2543,0.0092,-0.0184,-0.046,52
5.426,104,9.3652,-0.7269,-12.4824,0.0711,-0.0094,-0.0328,80,5.429,104,3.0525,-6.6599,-16.2974,-0.0113,-0.0215,-0.0492,52
5.478,105,9.3438,-0.7806,-12.469,0.0705,0.003,-0.0174,80,5.48,105,3.0722,-6.7438,-16.2231,-0.0018,-0.0388,-0.03,52
5.53,106,9.4178,-0.7274,-12.3946,0.0079,0.0213,0.0124,80,5.532,106,3.0489,-6.7364,-16.0308,-0.0076,-0.0506,0.0022,52
5.582,107,9.3809,-0.7285,-12.4429,-0.0909,0.0344,0.0304,80,5.584,107,3.0244,-6.7565,-15.9343,-0.0059,-0.0397,0.0164,52
5.634,108,9.2991,-0.9108,-12.4324,-0.1608,0.0424,0.0432,80,5.636,108,3.0993,-6.7257,-15.9445,-0.0006,0.0092,0.0159,52
5.685,109,9.2274,-1.1847,-12.4212,-0.1374,0.0471,0.0401,80,5.687,109,3.1082,-6.703,-16.0154,-0.0146,0.0489,0.0149,52
5.737,110,9.3221,-0.9346,-12.3558,-0.0357,0.0522,0.0214,80,5.739,110,3.0634,-6.7412,-16.1307,0.0099,0.0485,0.0157,52
5.789,111,9.3476,-0.9328,-12.3342,-0.009,0.0364,0.0102,80,5.791,111,3.0627,-6.6893,-16.1644,0.0171,0.0561,0.0261,52
5.841,112,9.3213,-1.0391,-12.3612,0.0294,0.0374,0.0019,80,5.843,112,3.0691,-6.5951,-16.1726,-0.0062,0.0464,0.0154,52
5.893,113,9.5238,-0.47,-12.158,0.0812,0.0306,-0.0119,80,5.895,113,3.0182,-6.6172,-16.1221,-0.0308,0.0424,0.0138,52
5.944,114,9.4727,-0.5652,-12.2469,0.0577,-0.0057,-0.0208,80,5.946,114,2.9969,-6.6575,-16.0799,-0.038,0.0354,0.0044,52
5.996,115,9.4574,-0.6411,-12.3025,0.0254,0.0034,-0.0157,80,5.998,115,2.968,-6.7337,-16.0842,0.0214,0.0102,-0.0286,52
6.048,116,9.3728,-0.803,-12.3003,0.0179,0.0073,-0.0159,80,6.05,116,3.1411,-6.7028,-16.2044,0.0754,0.002,-0.0526,52
6.1,117,9.3056,-0.9807,-12.3054,0.0431,0.0091,-0.0173,80,6.102,117,3.148,-6.6568,-16.2143,0.0823,-0.0029,-0.0493,52
6.152,118,9.3242,-0.9064,-12.2766,0.2227,-0.0056,-0.0391,80,6.154,118,3.0836,-6.6655,-16.1471,0.0063,0.0055,0.0062,52
6.203,119,9.3223,-0.8455,-12.2795,0.1882,-0.0456,-0.0489,80,6.205,119,3.0777,-6.6991,-16.0447,-0.0158,0.0032,0.0274,52
6.255,120,9.3378,-0.896,-12.405,0.1212,-0.0369,-0.0375,80,6.257,120,3.1364,-6.7061,-15.9921,-0.0033,0.0015,0.0225,52
6.307,121,9.3282,-0.9191,-12.3711,0.0227,0.0005,-0.0086,80,6.309,121,3.1696,-6.6976,-16.0316,0.0151,0.0153,-0.0013,52
6.359,122,9.2953,-0.9899,-12.3461,-0.011,0.0111,0.007,80,6.361,122,3.159,-6.6871,-16.074,0.0178,0.0262,-0.0134,52
6.411,123,9.2875,-1.0413,-12.3236,0.0168,0.0132,0.006,80,6.413,123,3.1232,-6.7229,-16.0884,-0.0035,0.0262,-0.0,52
6.462,124,9.3047,-1.0135,-12.3164,0.0083,-0.0035,0.0023,80,6.464,124,3.1246,-6.7622,-16.1045,0.0024,0.01,0.0108,52
6.514,125,9.2974,-1.0071,-12.3377,0.0013,-0.0048,-0.0004,80,6.516,125,3.1038,-6.764,-16.1007,0.0055,-0.0063,0.0144,52
6.566,126,9.29,-1.0123,-12.3108,-0.0018,-0.0046,-0.0013,80,6.568,126,3.098,-6.7691,-16.1314,-0.0014,-0.0268,0.0159,52
6.618,127,9.2791,-1.0262,-12.2854,-0.0009,-0.0139,-0.0048,80,6.62,127,3.0363,-6.7677,-16.1387,0.0013,-0.0492,0.0317,52
6.67,128,9.3122,-0.9897,-12.3031,0.0092,-0.0219,-0.0065,80,6.671,128,2.98,-6.732,-16.0948,0.0178,-0.0598,0.041,52
6.721,129,9.3379,-0.9524,-12.3205,0.0078,-0.0245,-0.0081,80,6.723,129,2.9872,-6.7069,-16.0822,0.0109,-0.0567,0.0391,52
6.773,130,9.3453,-0.935,-12.3361,-0.0005,-0.0191,-0.0044,80,6.775,130,2.9883,-6.7167,-16.0996,0.0071,-0.0517,0.031,52
6.825,131,9.3316,-0.9382,-12.35,-0.0142,-0.0141,0.0026,80,6.827,131,2.9846,-6.7192,-16.0918,0.0058,-0.0448,0.0203,52
6.877,132,9.3251,-0.9365,-12.3688,-0.0247,-0.012,0.0066,80,6.879,132,2.9706,-6.7312,-16.0766,-0.0006,-0.0379,0.0192,52
6.929,133,9.3196,-0.9388,-12.3786,-0.0318,-0.0077,0.0107,80,6.93,133,2.9669,-6.7591,-16.0685,0.006,-0.026,0.0141,52
6.98,134,9.3163,-0.9471,-12.3734,-0.0535,-0.0001,0.0174,80,6.982,134,2.9535,-6.8552,-16.0929,0.0657,-0.0173,0.0087,52
7.032,135,9.3213,-0.961,-12.3608,-0.0745,0.0031,0.0216,80,7.034,135,2.9587,-6.8414,-15.962,0.0684,-0.0106,0.0207,52
7.084,136,9.3105,-0.9884,-12.3767,-0.0792,0.0053,0.0233,80,7.085,136,2.9425,-6.9272,-15.9024,0.0265,0.0188,0.0543,52
7.136,137,9.3117,-1.0198,-12.3856,-0.0693,0.0017,0.019,80,7.137,137,2.9813,-7.0249,-15.9136,0.0264,0.06,0.0864,52
7.187,138,9.3101,-0.9973,-12.3715,-0.0497,-0.0044,0.0112,80,7.189,138,2.9328,-6.9716,-15.9115,0.0082,0.091,0.1057,52
7.239,139,9.2965,-0.9922,-12.3908,-0.028,-0.0087,0.0045,80,7.241,139,2.8699,-6.9386,-15.9622,-0.0239,0.1155,0.1242,52
7.291,140,9.2927,-0.9891,-12.3942,-0.0109,-0.0123,-0.0006,80,7.293,140,2.8129,-6.9285,-16.008,-0.0398,0.1356,0.142,52
7.343,141,9.2987,-1.0123,-12.3954,0.004,-0.0231,-0.0128,80,7.344,141,2.821,-6.9043,-16.0366,-0.0397,0.128,0.1417,52
7.395,142,9.2998,-0.9666,-12.4168,0.0384,-0.013,-0.018,80,7.396,142,2.876,-6.9112,-16.0549,-0.0143,0.1069,0.1165,52
7.446,143,9.2955,-0.9701,-12.382,0.0342,-0.0068,-0.0118,80,7.448,143,2.8939,-6.8745,-16.0364,0.0045,0.0832,0.0868,52
7.498,144,9.3049,-0.9447,-12.3481,0.0216,-0.0124,-0.0055,80,7.5,144,2.8553,-6.8593,-16.0038,-0.0063,0.0739,0.0742,52
7.55,145,9.3021,-0.9396,-12.3811,0.0215,-0.0247,-0.0104,80,7.552,145,2.8496,-6.853,-15.9857,-0.0019,0.0641,0.0547,52
7.602,146,9.2987,-0.9522,-12.4314,0.0198,-0.0345,-0.0169,80,7.603,146,2.8704,-6.8758,-16.0073,0.0,0.0625,0.0415,52
7.654,147,9.2816,-0.9603,-12.4512,0.031,-0.0406,-0.0214,80,7.655,147,2.8816,-6.8996,-16.0083,0.0075,0.0469,0.0296,52
7.706,148,9.2817,-0.9251,-12.4899,0.0269,-0.0424,-0.0196,80,7.707,148,2.8849,-6.9099,-15.8964,-0.0561,-0.058,0.0008,52
7.757,149,9.2922,-0.9033,-12.477,0.0219,-0.0431,-0.0141,80,7.759,149,3.0448,-7.2366,-15.9053,-0.1762,-0.1038,0.0953,52
7.809,150,9.2878,-0.9309,-12.4933,0.0027,-0.0522,-0.0086,80,7.81,150,2.9352,-7.0986,-15.9843,-0.1122,-0.1496,0.1182,52
7.861,151,9.2864,-0.8576,-12.5316,-0.0148,-0.0497,-0.0011,80,7.862,151,2.785,-7.0601,-15.9842,-0.1013,-0.0935,0.0978,52
7.913,152,9.2892,-0.8762,-12.5377,-0.0647,-0.0509,0.0095,80,7.914,152,2.7002,-6.9808,-16.0407,-0.0749,-0.0518,0.0716,52
7.965,153,9.2768,-0.9691,-12.591,-0.0782,-0.0575,0.0066,80,7.966,153,2.6328,-6.9354,-16.1168,-0.0552,-0.0221,0.0499,52
8.016,154,9.272,-0.9505,-12.62,-0.0658,-0.0608,0.001,80,8.018,154,2.5815,-6.9196,-16.1996,-0.0361,-0.0073,0.0351,52
8.068,155,9.2435,-0.9144,-12.658,-0.0543,-0.0588,-0.0053,80,8.069,155,2.5274,-6.9531,-16.2152,-0.0187,0.0066,0.0234,52
8.12,156,9.2322,-0.91,-12.6938,-0.0409,-0.0564,-0.0112,80,8.121,156,2.48,-6.9481,-16.2196,-0.0171,0.0159,0.0174,52
8.172,157,9.2169,-0.8909,-12.7144,-0.0228,-0.0537,-0.0157,80,8.173,157,2.3872,-6.9997,-16.2747,-0.0167,0.0183,0.0254,52
8.224,158,9.223,-0.8912,-12.7377,0.0134,-0.0493,-0.0242,80,8.225,158,2.3654,-7.0232,-16.3067,-0.0004,0.0128,0.047,52
8.275,159,9.2059,-0.9426,-12.7811,0.0214,-0.0348,-0.0244,80,8.276,159,2.4214,-6.9007,-16.2817,0.0119,-0.0091,0.06,52
8.327,160,9.2166,-0.7933,-12.787,0.0343,-0.0102,-0.0204,80,8.328,160,2.4927,-6.8279,-16.2241,0.0006,-0.0302,0.0484,52
8.379,161,9.225,-0.7247,-12.7917,0.0217,0.0066,-0.0077,80,8.38,161,2.4997,-6.7735,-16.1306,-0.014,-0.0246,0.0151,52
8.431,162,9.2212,-0.6276,-12.7398,-0.0414,0.0205,0.0099,80,8.432,162,2.4916,-6.7653,-16.0808,-0.0075,-0.0076,-0.0309,52
8.483,163,9.2017,-0.7859,-12.8055,-0.0336,0.0193,0.0117,80,8.484,163,2.6726,-6.8505,-16.1332,-0.0125,0.0261,-0.1082,52
8.534,164,9.2195,-0.852,-12.7637,-0.0362,0.0285,0.0125,80,8.535,164,2.7333,-6.8792,-16.1239,-0.003,0.0355,-0.1133,52
8.586,165,9.236,-0.789,-12.7207,-0.0173,0.0294,0.0062,80,8.587,165,2.7433,-6.8551,-16.1554,-0.0448,0.0413,-0.0889,52
8.638,166,9.2284,-0.8243,-12.7119,-0.0098,0.0269,0.0046,80,8.639,166,2.7386,-6.8858,-16.2014,-0.0412,0.0436,-0.0803,52
8.69,167,9.2467,-0.7895,-12.6919,0.001,0.028,0.0038,80,8.691,167,2.7225,-6.8439,-16.1724,-0.0371,0.0407,-0.0667,52
8.741,168,9.2562,-0.7964,-12.698,0.0111,0.0282,0.0056,80,8.742,168,2.7464,-6.807,-16.1599,-0.0361,0.0318,-0.0622,52
8.793,169,9.2693,-0.818,-12.6803,0.0285,0.0291,0.0058,80,8.794,169,2.7846,-6.7603,-16.1872,-0.0054,0.0286,-0.0701,52
8.845,170,9.2782,-0.8195,-12.5962,0.0264,0.0263,0.0104,80,8.846,170,2.7909,-6.7114,-16.1829,-0.0162,0.0316,-0.0656,52
8.897,171,9.2673,-0.8168,-12.5999,0.0239,0.0137,0.0096,80,8.898,171,2.8281,-6.7253,-16.198,-0.03,0.0347,-0.0575,52
8.949,172,9.2623,-0.8182,-12.6184,0.0225,0.0116,0.0094,80,8.95,172,2.827,-6.6549,-16.1177,-0.0365,0.0346,-0.0637,52
9.001,173,9.2704,-0.7855,-12.6263,0.017,0.0208,0.0151,80,9.002,173,2.8614,-6.6246,-16.1538,-0.0318,0.0541,-0.0864,52
9.052,174,9.2733,-0.8745,-12.5971,-0.0125,0.0277,0.0225,80,9.053,174,2.967,-6.6225,-16.2757,-0.0038,0.045,-0.129,52
9.104,175,9.2679,-0.8984,-12.6198,0.0097,0.0474,0.022,80,9.105,175,3.0041,-6.5989,-16.2846,-0.0029,0.014,-0.1311,52
9.156,176,9.2722,-0.9501,-12.5521,0.0194,0.0526,0.023,80,9.157,176,3.012,-6.6249,-16.2524,-0.0103,-0.0094,-0.1277,52
9.208,177,9.2746,-0.9343,-12.5158,0.0105,0.0467,0.018,80,9.209,177,3.0415,-6.6512,-16.1807,-0.0083,-0.0137,-0.1148,52
9.26,178,9.2879,-0.9145,-12.4932,0.0173,0.0427,0.0119,80,9.261,178,3.1101,-6.6779,-16.1322,-0.019,0.0021,-0.0968,52
9.311,179,9.3107,-0.91,-12.4776,0.0021,0.0471,0.0152,80,9.312,179,3.1815,-6.6932,-16.1397,-0.0157,0.0119,-0.0853,52
9.363,180,9.318,-0.9193,-12.4755,-0.0087,0.0614,0.0183,80,9.364,180,3.1964,-6.6657,-16.137,0.0099,0.0055,-0.0778,52
9.415,181,9.3233,-0.9501,-12.4127,-0.012,0.068,0.0215,80,9.416,181,3.1788,-6.5811,-16.1618,0.0182,0.0088,-0.0772,52
9.467,182,9.2998,-0.9961,-12.3614,-0.0004,0.0552,0.0133,80,9.468,182,3.1846,-6.5287,-16.1957,0.0258,0.006,-0.0835,52
9.518,183,9.3231,-0.9086,-12.3351,0.0797,0.044,-0.003,80,9.52,183,3.2126,-6.5288,-16.2451,0.009,0.0049,-0.0739,52
9.57,184,9.3362,-0.9767,-12.3095,0.0669,0.0246,-0.0108,80,9.571,184,3.226,-6.5156,-16.2433,-0.0049,-0.0061,-0.0548,52
9.622,185,9.3487,-0.9339,-12.33,0.0597,0.0207,-0.0155,80,9.623,185,3.2629,-6.5047,-16.2534,-0.0133,-0.0173,-0.0337,52
9.674,186,9.3374,-0.9335,-12.3245,0.0619,0.029,-0.0141,80,9.675,186,3.3353,-6.519,-16.2423,0.0159,-0.0287,-0.0296,52
9.726,187,9.3226,-0.9944,-12.2956,0.0813,0.0448,-0.0091,80,9.727,187,3.4108,-6.493,-16.1588,0.0381,-0.0404,-0.0372,52
9.777,188,9.3706,-0.8812,-12.1791,0.0706,0.0497,-0.0016,80,9.779,188,3.4219,-6.4859,-16.0836,0.0443,-0.0266,-0.0375,52
9.829,189,9.3691,-0.8887,-12.135,0.0565,0.0308,-0.0002,80,9.83,189,3.3869,-6.4586,-15.9844,0.0103,0.0167,-0.0199,52
9.881,190,9.3798,-0.8982,-12.1243,0.0052,-0.0029,-0.0037,80,9.882,190,3.377,-6.5185,-16.0376,-0.0362,0.0665,0.0039,52
9.933,191,9.3807,-0.8821,-12.1732,-0.0379,-0.0151,-0.005,80,9.934,191,3.3876,-6.5278,-16.0831,-0.0391,0.0851,0.0188,52
9.985,192,9.3765,-0.8996,-12.2351,-0.0584,-0.0016,0.0018,80,9.986,192,3.3635,-6.4945,-16.1282,-0.0338,0.0727,0.0215,52
10.036,193,9.3393,-0.9812,-12.2334,-0.0635,0.0154,0.0078,80,10.038,193,3.353,-6.4373,-16.1841,0.015,0.0496,-0.0112,52
10.088,194,9.308,-1.038,-12.1951,-0.0361,0.0187,0.008,80,10.089,194,3.3424,-6.3186,-16.2448,0.0159,0.0378,-0.0302,52
10.14,195,9.3665,-0.9079,-12.1205,0.0203,0.0042,-0.0044,80,10.141,195,3.3174,-6.3008,-16.2631,-0.0131,0.0286,-0.0451,52
10.192,196,9.4023,-0.8417,-12.1572,0.0813,-0.0192,-0.0223,80,10.193,196,3.3753,-6.3695,-16.2573,-0.0336,0.0112,-0.0528,52
10.244,197,9.4112,-0.8754,-12.2279,0.0577,-0.0226,-0.0229,80,10.245,197,3.4072,-6.4264,-16.2059,-0.0444,0.0004,-0.0502,52
10.295,198,9.3971,-0.8859,-12.2201,0.0525,-0.0171,-0.0209,80,10.297,198,3.4267,-6.4861,-16.1725,-0.0508,0.0012,-0.0351,52
10.347,199,9.3952,-0.8728,-12.2148,0.033,-0.0138,-0.0146,80,10.349,199,3.4491,-6.4988,-16.1773,-0.0503,0.0129,-0.007,52
10.399,200,9.3797,-0.8869,-12.2343,0.0146,0.0002,-0.0072,80,10.4,200,3.4565,-6.4567,-16.1474,-0.0612,0.0219,0.0254,52
10.451,201,9.393,-0.8538,-12.2199,-0.0075,0.0182,-0.0016,80,10.452,201,3.4913,-6.4037,-16.1758,-0.0743,0.026,0.0521,52
10.503,202,9.3997,-0.7992,-12.2037,-0.0579,0.0371,0.0094,80,10.504,202,3.4473,-6.318,-16.1954,-0.0676,0.0156,0.0568,52
10.554,203,9.3785,-0.8727,-12.2144,-0.0982,0.0467,0.0121,80,10.556,203,3.3991,-6.2363,-16.1935,-0.0363,-0.0211,0.0217,52
10.606,204,9.3731,-0.9278,-12.1801,-0.1015,0.0605,0.008,80,10.608,204,3.4504,-6.1372,-16.3098,0.0116,-0.034,-0.0421,52
10.658,205,9.3249,-1.0885,-12.1504,-0.0462,0.0654,-0.0032,80,10.659,205,3.4898,-6.0347,-16.4393,0.0679,-0.0512,-0.1097,52
10.71,206,9.3726,-0.963,-12.047,0.1387,0.0498,-0.0366,80,10.711,206,3.4011,-5.9682,-16.5151,0.0559,-0.0591,-0.1255,52
10.762,207,9.3932,-1.0319,-12.0528,0.2332,0.0056,-0.063,80,10.763,207,3.3224,-5.9841,-16.5069,0.0226,-0.0795,-0.1231,52
10.813,208,9.4048,-0.8819,-12.1175,0.2784,-0.0092,-0.0606,80,10.815,208,3.3649,-6.0651,-16.4574,-0.0089,-0.1109,-0.1138,52
10.865,209,9.4112,-0.7418,-12.1008,0.2726,-0.0006,-0.0312,80,10.866,209,3.48,-6.2016,-16.3539,-0.0125,-0.148,-0.1306,52
10.917,210,9.4081,-0.6259,-12.0488,0.2074,0.0222,0.0189,80,10.918,210,3.5232,-6.3156,-16.2798,0.0007,-0.1699,-0.1752,52
10.969,211,9.4246,-0.5692,-11.9583,0.0431,0.0459,0.0815,80,10.97,211,3.5224,-6.4335,-16.2417,0.0466,-0.1649,-0.203,52
11.02,212,9.4108,-0.9925,-11.9824,0.0203,0.0379,0.0965,80,11.022,212,3.5495,-6.3908,-16.2715,0.0691,-0.1497,-0.1696,52
11.072,213,9.4196,-1.0863,-11.9339,0.0359,0.0344,0.0808,80,11.074,213,3.5873,-6.2817,-16.3265,0.088,-0.1546,-0.1193,52
11.124,214,9.4058,-1.0785,-11.9483,0.1042,0.0185,0.0485,80,11.125,214,3.613,-6.1241,-16.303,0.0549,-0.1319,-0.0656,52
11.176,215,9.3937,-1.0526,-11.8718,0.1305,0.0011,0.0258,80,11.177,215,3.518,-6.0648,-16.219,-0.009,-0.0851,-0.0377,52
11.228,216,9.4007,-0.956,-11.8288,0.0894,-0.0205,0.0242,80,11.229,216,3.5124,-6.1322,-16.2443,-0.0143,-0.0385,-0.0367,52
11.279,217,9.3922,-1.108,-11.9394,0.0574,-0.0278,0.0275,80,11.281,217,3.5569,-6.1671,-16.2911,-0.028,-0.0008,-0.0091,52
11.331,218,9.3936,-1.1055,-11.9743,0.0334,-0.0072,0.0344,80,11.332,218,3.5673,-6.1529,-16.3308,-0.04,0.0194,0.0224,52
11.383,219,9.3818,-1.1324,-11.9587,0.0106,0.0062,0.0368,80,11.384,219,3.5461,-6.0999,-16.3164,-0.047,0.0371,0.0279,52
11.435,220,9.3815,-1.1393,-11.9017,-0.0138,0.006,0.0393,80,11.436,220,3.5325,-6.0865,-16.3322,-0.069,0.0689,0.0345,52
11.487,221,9.3879,-1.2665,-11.8962,-0.0721,-0.0021,0.0406,80,11.488,221,3.5224,-6.1046,-16.3638,-0.0869,0.0923,0.0489,52
11.538,222,9.3961,-1.217,-11.9153,-0.0775,-0.0087,0.0304,80,11.54,222,3.5021,-6.1195,-16.4045,-0.1022,0.1096,0.0799,52
11.59,223,9.3835,-1.3287,-11.9277,-0.1316,-0.0135,0.0244,80,11.591,223,3.4958,-6.0703,-16.4281,-0.1148,0.1206,0.105,52
11.642,224,9.3934,-1.2572,-11.9346,-0.1217,-0.0115,0.0133,80,11.643,224,3.4918,-6.0244,-16.4602,-0.1329,0.1305,0.1282,52
11.694,225,9.3714,-1.2468,-11.9433,-0.1333,-0.0124,0.0084,80,11.695,225,3.5129,-6.0853,-16.5058,-0.1228,0.1306,0.1294,52
11.745,226,9.3808,-1.2003,-11.9732,-0.1324,-0.0071,0.0069,80,11.746,226,3.4964,-6.1321,-16.5028,-0.0713,0.1216,0.1181,52
11.797,227,9.3672,-1.192,-11.9868,-0.1505,-0.0002,0.0065,80,11.799,227,3.434,-6.0676,-16.4872,-0.0196,0.1056,0.1016,52
11.849,228,9.3537,-1.2511,-11.9693,-0.1489,0.0003,0.0002,80,11.85,228,3.3953,-5.9886,-16.5323,0.0148,0.0797,0.0629,52
11.901,229,9.3304,-1.2508,-12.0127,-0.0894,-0.0142,-0.0217,80,11.902,229,3.3615,-5.9038,-16.6107,0.0173,0.0667,0.0324,52
11.953,230,9.3118,-1.3481,-11.9649,-0.018,-0.0345,-0.0387,80,11.954,230,3.3918,-5.9304,-16.7119,0.0393,0.027,-0.0286,52
12.005,231,9.4909,-0.8532,-11.9076,0.1265,-0.0616,-0.0583,80,12.006,231,3.3644,-5.9746,-16.7241,0.0787,-0.0362,-0.0729,52
12.056,232,9.4564,-0.9321,-12.0356,0.1264,-0.0618,-0.053,80,12.058,232,3.2876,-5.9705,-16.7189,0.1098,-0.1047,-0.0968,52
12.108,233,9.4356,-1.0297,-12.0797,0.1554,-0.0489,-0.0479,80,12.109,233,3.4,-5.9606,-16.7416,0.1406,-0.1772,-0.1242,52
12.16,234,9.4106,-0.9555,-12.0742,0.1937,-0.0377,-0.0435,80,12.161,234,3.5232,-5.8968,-16.6434,0.1567,-0.2418,-0.1687,52
12.212,235,9.3579,-0.9512,-12.0985,0.2309,-0.0418,-0.0343,80,12.213,235,3.5426,-5.8865,-16.4848,0.1562,-0.2792,-0.2126,52
12.264,236,9.3277,-0.9749,-12.193,0.2252,-0.0447,-0.0205,80,12.264,236,3.5799,-5.901,-16.3311,0.1475,-0.2784,-0.2449,52
12.315,237,9.3284,-1.0184,-12.154,0.1761,-0.0364,-0.0014,80,12.316,237,3.7178,-6.0216,-16.2097,0.1022,-0.2366,-0.2414,52
12.367,238,9.3449,-0.9704,-12.1014,0.1439,-0.0321,0.011,80,12.368,238,3.8045,-6.2432,-16.1671,0.0414,-0.1656,-0.2079,52
12.419,239,9.3363,-0.927,-12.112,0.0536,-0.0358,0.0276,80,12.42,239,3.6888,-6.4463,-16.1545,-0.0287,-0.0791,-0.1271,52
12.471,240,9.3221,-1.2202,-12.1812,-0.0961,-0.0438,0.0443,80,12.472,240,3.5771,-6.4879,-16.1973,-0.0396,-0.0106,-0.0132,52
12.523,241,9.3292,-1.2606,-12.2794,-0.0981,-0.0343,0.0441,80,12.523,241,3.5228,-6.3571,-16.2166,-0.0522,0.0602,0.0951,52
12.574,242,9.3319,-1.2401,-12.2677,-0.0986,-0.0192,0.0405,80,12.575,242,3.5205,-6.2192,-16.2696,-0.0743,0.1205,0.165,52
12.626,243,9.315,-1.2585,-12.2612,-0.1145,-0.0102,0.0334,80,12.627,243,3.4615,-6.1406,-16.3804,-0.0887,0.1643,0.1873,52
12.678,244,9.3164,-1.2462,-12.2731,-0.1247,-0.0069,0.0229,80,12.679,244,3.3973,-6.0198,-16.4535,-0.0914,0.184,0.1871,52
12.73,245,9.3212,-1.2761,-12.2802,-0.1228,-0.0055,0.0129,80,12.73,245,3.3425,-5.9461,-16.576,-0.0754,0.1806,0.1584,52
12.782,246,9.2984,-1.2565,-12.3437,-0.0567,-0.0011,-0.0079,80,12.782,246,3.2706,-5.9002,-16.6236,-0.0757,0.1803,0.1386,52
