right_leg_timestamp,right_leg_index,right_leg_accel_x,right_leg_accel_y,right_leg_accel_z,right_leg_gyro_x,right_leg_gyro_y,right_leg_gyro_z,right_leg_battery_percentage,left_leg_timestamp,left_leg_index,left_leg_accel_x,left_leg_accel_y,left_leg_accel_z,left_leg_gyro_x,left_leg_gyro_y,left_leg_gyro_z,left_leg_battery_percentage
0.625,12,9.6869,-1.3588,-12.1425,-1.1619,-0.5574,0.0095,75,0.022,0,7.9604,5.3111,-14.1838,-0.5707,0.6177,-0.5953,51
0.677,13,9.4099,-0.2397,-12.959,-0.7744,-0.7787,0.2142,75,0.074,1,10.9271,2.6811,-16.0782,-1.0936,0.2207,-1.1059,51
0.729,14,9.6651,-0.3887,-13.7151,-0.2384,-0.6256,0.4624,75,0.126,2,11.9118,-3.34,-19.6886,-0.9954,0.7323,-1.1501,51
0.781,15,9.7489,-0.5698,-13.8255,-0.4162,-0.4209,0.4829,75,0.178,3,13.0407,2.8545,-11.7619,-0.1368,0.7484,-1.4015,51
0.832,16,9.6672,-0.1358,-13.8449,-0.457,-0.3169,0.3552,75,0.23,4,14.635,-0.0742,-7.7294,0.1283,-0.1205,-0.7812,51
0.884,17,9.5723,-0.6584,-13.0649,-0.5686,-0.2223,0.2925,75,0.281,5,13.2639,0.7718,-8.9187,0.2566,0.073,-0.2513,51
0.936,18,9.4423,-0.8232,-12.4943,-0.5824,-0.2851,0.2331,75,0.333,6,11.5303,0.856,-10.8838,0.3203,0.1271,-0.0122,51
0.988,19,9.4914,-0.5319,-11.7142,-0.544,-0.4239,0.1818,75,0.385,7,10.1094,1.3838,-11.6495,0.518,0.1047,0.1552,51
1.039,20,11.2854,-0.7705,-11.5436,-0.7541,-0.9828,-0.012,75,0.437,8,9.5207,1.8364,-12.2429,0.6649,0.0559,0.3739,51
1.091,21,13.131,-0.1138,-10.8869,-0.6521,-1.3907,-0.2371,75,0.489,9,9.2836,1.3303,-12.9457,0.7643,0.0136,0.611,51
1.143,22,14.8493,-0.5903,-10.7243,-0.5662,-1.6884,-0.3687,75,0.54,10,9.6312,1.9514,-12.6058,0.8036,-0.1305,0.9837,51
1.195,23,12.1154,-0.6074,-10.8415,-0.5547,-1.6944,-0.4656,75,0.592,11,9.602,1.9203,-13.5327,1.2246,-0.1067,1.3983,51
1.247,24,10.6854,-2.0038,-9.7109,-0.2575,-0.6006,-0.4072,75,0.644,12,9.3361,1.0153,-13.3702,1.5685,-0.233,1.6436,51
1.298,25,10.1301,-2.5723,-10.4057,-0.0404,0.24,-0.4184,75,0.696,13,8.25,-0.2081,-14.2533,1.5912,-0.0601,1.8742,51
1.351,26,10.5816,-1.5355,-11.6364,0.008,0.8535,-0.3001,75,0.748,14,9.8373,-1.4554,-13.4449,1.7123,-0.6039,1.0753,51
1.402,27,12.8534,-2.3388,-13.1816,0.5479,1.3013,0.0317,75,0.799,15,8.0752,-2.8757,-13.1415,1.5042,-0.6714,0.5092,51
1.454,28,13.9631,-2.2751,-15.3501,1.0764,1.6281,0.3881,75,0.851,16,6.6747,-3.9893,-12.5802,1.2505,-0.3795,0.2927,51
1.506,29,10.5513,-1.6869,-18.4951,1.4621,1.7049,0.3689,75,0.903,17,3.9717,-1.6568,-10.7587,1.2341,0.408,0.3008,51
1.558,30,11.9378,-4.6857,-21.5034,1.3532,0.575,0.8065,75,0.955,18,5.9491,-3.0025,-5.2444,0.5181,-0.2437,-0.4435,51
1.61,31,5.8442,-4.2508,-23.699,1.3374,0.0759,0.1867,75,1.007,19,7.5239,-1.6477,-9.8928,0.3797,-0.8212,-0.979,51
1.661,32,6.7976,-2.2974,-21.3299,1.0807,0.0976,0.1759,75,1.058,20,9.0704,-3.1027,-11.4836,0.5708,-0.5663,-0.2772,51
1.713,33,7.5763,-2.0791,-18.6984,0.5512,0.2091,0.2046,75,1.11,21,11.7373,-2.6451,-13.4334,0.6998,-0.6886,-0.1189,51
1.765,34,8.182,-1.441,-15.9939,0.6382,0.2276,0.0955,75,1.162,22,11.3663,-6.0208,-14.3757,0.6573,-0.6061,-0.406,51
1.816,35,8.0687,-1.365,-13.9566,0.5644,-0.4462,0.0396,75,1.213,23,8.0105,-6.4766,-13.7503,1.1544,-0.2691,-0.163,51
1.868,36,8.1325,-1.209,-13.3103,0.7184,-0.7773,0.2542,75,1.265,24,5.2759,-5.2519,-12.1228,0.8156,0.1791,0.2606,51
1.92,37,7.9,-0.4564,-13.6371,0.604,-0.9333,0.3611,75,1.317,25,4.0873,-4.0594,-11.022,0.3863,0.05,0.5034,51
1.972,38,8.3566,0.2094,-12.7758,0.0133,-0.5281,0.747,75,1.369,26,5.278,-2.9558,-11.352,0.3449,-0.3134,0.5908,51
2.024,39,8.6074,-0.8118,-13.4652,-0.1549,-0.1859,0.5569,75,1.421,27,8.8355,-1.0655,-11.9103,0.5347,-0.5003,0.7574,51
2.075,40,9.6129,0.2698,-9.4032,0.3265,-0.6182,0.2068,75,1.472,28,11.2269,-1.8771,-12.9782,0.1412,-0.3514,0.4578,51
2.127,41,6.9747,-0.1756,-8.1555,-0.4074,0.0439,0.3166,75,1.524,29,11.6699,-5.6168,-13.7246,-0.478,-0.0902,-0.3361,51
2.179,42,8.1312,0.6199,-5.8214,0.3792,-0.3702,0.0608,75,1.576,30,9.5682,-9.3962,-14.7498,-0.4469,0.6192,-0.7332,51
2.231,43,4.7341,1.9835,-5.8692,-0.3985,0.4082,0.261,75,1.628,31,4.7717,-9.2154,-14.2322,-0.6552,1.1369,0.1258,51
2.283,44,4.2691,0.0524,-12.2885,0.1721,0.4033,-0.0369,75,1.679,32,2.5279,-7.5619,-13.1338,-0.8032,0.7648,0.1015,51
2.334,45,8.3815,-3.574,-8.8456,0.7763,-0.3791,0.5285,75,1.731,33,1.3517,-6.1094,-12.0519,-1.0616,0.6274,0.1282,51
2.386,46,8.4404,-5.2319,-12.3035,0.8516,-0.9048,0.3661,75,1.783,34,2.7629,-4.8609,-10.6424,-0.5698,0.3119,-0.0587,51
2.438,47,9.8838,-4.3364,-14.0735,0.5513,-0.2362,0.3006,75,1.835,35,7.1338,-2.1508,-10.6289,0.0117,-0.3367,-0.5991,51
2.49,48,11.3643,-2.2435,-10.512,0.5608,-0.6858,0.2991,75,1.887,36,10.3238,-1.271,-11.4881,-0.3132,0.1792,-0.7953,51
2.542,49,8.7286,-3.2062,-8.2124,-0.124,-0.4127,0.2447,75,1.938,37,12.6521,-4.5708,-12.1384,-0.7383,0.3395,-1.2518,51
2.593,50,9.2234,-1.7154,-4.1334,0.4782,-0.5251,0.1582,75,1.99,38,13.2855,-8.6328,-14.5227,-0.4413,0.713,-1.0553,51
2.645,51,8.5581,-0.5613,-3.5265,0.1424,0.2951,0.1644,75,2.042,39,9.2326,-10.165,-16.8039,-0.3187,1.2053,-0.0899,51
2.697,52,6.7569,0.1602,-10.5787,-0.4057,0.8937,0.4028,75,2.094,40,6.1113,-8.3254,-15.8969,0.068,0.2129,0.589,51
2.749,53,10.1973,1.3966,-5.1368,0.1603,0.0923,0.2124,75,2.146,41,3.2532,-4.8431,-12.7818,-0.2534,-0.5114,0.9724,51
2.801,54,10.6174,2.2088,-7.671,0.5595,-0.4063,0.4813,75,2.197,42,2.791,-3.3253,-11.2476,-0.6,-0.5919,0.7154,51
2.852,55,10.9423,0.0132,-10.1902,0.2013,-0.1582,0.2604,75,2.249,43,7.1543,-1.7277,-12.7809,0.2367,-1.0988,-0.1493,51
2.904,56,12.4618,0.8423,-12.6106,-0.1867,0.1695,0.3297,75,2.301,44,10.3388,-0.2978,-13.7548,-0.2084,-0.6068,-0.187,51
2.956,57,11.6042,-1.7822,-9.3451,-0.8115,0.5125,0.3297,75,2.353,45,12.663,-1.4418,-15.0114,-0.8292,-0.1358,-0.7957,51
3.008,58,12.3051,-2.6322,-6.8546,-0.5024,-0.2994,0.1724,75,2.405,46,14.3593,-6.3491,-16.111,-1.1112,0.3584,-1.2522,51
3.06,59,9.626,-1.7411,-4.9798,0.2774,0.4561,0.2505,75,2.457,47,12.1882,-9.9306,-15.9167,-0.4038,0.8619,-0.8389,51
3.111,60,8.6612,0.0358,-8.3385,0.879,1.0112,-0.0553,75,2.508,48,7.19,-9.3279,-18.1369,-0.9069,1.314,0.0681,51
3.163,61,4.0383,-5.1188,-14.0907,0.243,0.9615,0.0264,75,2.56,49,3.3956,-6.2112,-15.6554,-0.6417,0.6434,0.6074,51
3.215,62,-2.3768,-7.1184,-18.2889,-0.1831,0.9728,0.031,75,2.612,50,1.1309,-4.7529,-13.8579,-1.1158,0.0199,1.0191,51
3.267,63,0.6175,-5.8955,-18.0099,-0.0436,1.167,0.1245,75,2.664,51,1.395,-3.7016,-12.4643,-1.2327,-0.6066,0.7529,51
3.319,64,3.6495,-3.9126,-17.7136,-0.1792,1.3121,0.0581,75,2.715,52,4.1588,-2.4631,-14.4936,-0.225,-1.1095,-0.1219,51
3.37,65,7.9293,-3.1151,-10.7995,-0.3891,0.3097,0.0269,75,2.767,53,6.8967,3.1145,-14.5876,-0.2887,-0.3694,-0.2698,51
3.422,66,7.2711,-5.8903,-8.5471,-0.6724,-0.1675,-0.1319,75,2.819,54,9.675,1.9464,-14.9776,-0.8321,-0.0645,-0.7858,51
3.474,67,10.1824,-5.1327,-3.654,-0.4092,-0.2043,0.0958,75,2.871,55,12.1786,-3.0985,-15.0471,-1.2844,0.195,-1.2449,51
3.526,68,9.5773,-3.4443,-3.036,-0.2289,0.5292,0.0216,75,2.923,56,12.3436,-7.5583,-16.214,-0.8632,0.7854,-1.2557,51
3.578,69,9.2263,-1.7912,-7.0905,-0.0419,1.0646,0.144,75,2.974,57,8.434,-8.2486,-15.7695,-0.2288,1.2352,-0.4748,51
3.63,70,4.9923,-0.324,-13.1798,0.4389,1.4553,0.5428,75,3.026,58,0.6829,-10.4559,-17.8634,0.0225,0.7432,0.2683,51
3.681,71,-1.6806,-5.1744,-17.6241,0.675,1.4128,0.836,75,3.078,59,-1.151,-9.9801,-16.1062,-0.2802,-0.0179,0.3271,51
3.733,72,-0.6774,-5.5384,-16.8994,0.6155,1.3439,0.5593,75,3.13,60,-0.765,-7.8649,-14.4999,-0.2553,-0.422,0.7107,51
3.785,73,4.4302,-2.8118,-17.8793,0.0231,0.8645,0.4786,75,3.181,61,4.559,-2.7186,-18.4123,0.4879,-0.9748,-0.1168,51
3.837,74,7.9615,-2.3417,-17.8784,-0.0937,1.0593,0.2326,75,3.233,62,8.4446,1.8579,-18.3463,-0.2167,-0.8193,0.3707,51
3.888,75,11.0764,-3.7836,-14.4357,-0.7134,1.0377,0.3449,75,3.285,63,11.2806,0.9679,-17.179,-0.7016,-0.5182,-0.2668,51
3.94,76,9.2549,-4.0182,-11.4663,-0.1092,0.161,0.159,75,3.337,64,12.9647,-4.5904,-17.8308,-0.9131,0.115,-0.7842,51
3.992,77,5.8624,-3.4249,-6.1634,0.2394,0.7931,0.1345,75,3.389,65,9.6084,-7.3363,-16.3147,-0.0595,0.7689,-0.2883,51
4.044,78,7.0642,-2.8965,-7.0145,0.1184,1.2572,0.1658,75,3.44,66,1.54,-10.6511,-16.844,0.4511,0.9524,-0.5658,51
4.096,79,5.3922,-2.5013,-13.1243,0.7629,1.5959,0.1279,75,3.492,67,-0.5308,-8.4656,-16.096,0.1722,0.364,-0.0157,51
4.147,80,-1.3887,-7.0626,-17.5836,0.1823,1.7919,0.4332,75,3.544,68,-1.6008,-6.1993,-15.5686,-0.0788,0.1938,0.6689,51
4.199,81,4.2522,-4.9123,-20.7795,-0.3591,0.7399,0.5418,75,3.596,69,-0.2904,-5.5222,-14.2913,0.0962,-0.4999,0.5056,51
4.251,82,7.9856,-2.8781,-18.9797,-0.7097,1.0587,0.3715,75,3.648,70,4.9054,-3.4694,-15.1027,0.7443,-1.0316,0.2542,51
4.303,83,11.094,-0.945,-13.2992,-0.9757,1.0411,0.2261,75,3.699,71,8.6975,-3.0012,-16.413,-0.1338,-0.8187,0.8659,51
4.355,84,8.7558,-4.6224,-7.1223,-1.1661,0.1194,0.1268,75,3.751,72,10.3112,-5.3863,-16.7154,-0.6381,-0.1765,0.5244,51
4.406,85,7.9502,-5.5558,-2.6141,-0.3592,0.7371,0.2607,75,3.803,73,11.2391,-8.7098,-18.0595,-0.6677,-0.0668,-0.272,51
4.458,86,8.788,-5.0556,-3.3605,0.4144,1.2163,0.0966,75,3.855,74,8.2457,-10.5151,-17.1628,-0.1583,0.4439,-0.3069,51
4.51,87,8.2052,-2.2514,-7.1736,-0.0967,1.5661,0.1433,75,3.907,75,0.7477,-12.0438,-14.9036,-0.2525,0.4065,-0.7466,51
4.562,88,3.9161,-6.8802,-13.2405,0.0418,1.8214,-0.4346,75,3.958,76,-1.2141,-9.3995,-13.8762,-0.4684,-0.0102,-0.1028,51
4.614,89,-2.466,-7.7127,-17.6684,-0.6447,2.004,0.3431,75,4.01,77,-0.5998,-6.6806,-13.1272,-0.1633,-0.2906,0.3239,51
4.665,90,-0.1785,-6.9009,-16.4464,-0.1647,1.9281,-0.0636,75,4.062,78,2.1521,-4.8169,-12.4807,0.1594,-0.5897,0.1582,51
4.717,91,4.3032,-4.0298,-16.7043,-0.7954,1.7508,0.0503,75,4.114,79,4.5905,-3.0256,-12.5764,0.4874,-0.5546,0.2311,51
4.769,92,8.4064,-2.6153,-12.8047,-0.5783,1.4035,-0.1368,75,4.165,80,6.3788,-1.9375,-13.5466,0.2003,0.2066,-0.5016,51
4.821,93,6.8211,-4.9256,-6.9099,-0.1254,1.0716,-0.0316,75,4.217,81,9.044,-4.345,-15.512,0.1149,0.7587,-1.0375,51
4.873,94,5.365,-3.4874,-3.7462,0.4832,1.4604,-0.0578,75,4.269,82,10.228,-6.2701,-15.607,-0.475,0.5819,-1.4286,51
4.924,95,6.1075,-3.3827,-3.9639,0.2787,1.7442,0.109,75,4.321,83,7.2278,-7.0927,-15.4648,-0.9003,1.1097,-1.4838,51
4.976,96,5.814,-3.1916,-8.1365,0.7522,1.9514,0.1621,75,4.373,84,3.3119,-7.3976,-13.9927,-0.5915,1.3323,-1.4035,51
5.028,97,2.7142,-3.1758,-13.9432,1.2255,1.4381,0.0493,75,4.424,85,2.3856,-6.3037,-12.9378,-1.1088,0.9823,-1.0721,51
5.08,98,-3.3432,-2.6514,-16.1667,0.4877,1.728,0.5676,75,4.476,86,1.7642,-4.6803,-12.1974,-1.475,0.9402,-0.9778,51
5.132,99,-0.0637,-2.8898,-15.8768,0.0918,1.9281,0.2436,75,4.528,87,6.4049,-1.2265,-6.2944,-0.4344,0.0333,-0.3712,51
5.183,100,5.2193,-2.346,-13.7235,0.2428,1.6529,0.0652,75,4.58,88,4.3721,-1.472,-6.4634,-0.2961,-0.6402,-0.3856,51
