right_leg_timestamp,right_leg_index,right_leg_accel_x,right_leg_accel_y,right_leg_accel_z,right_leg_gyro_x,right_leg_gyro_y,right_leg_gyro_z,right_leg_battery_percentage,left_leg_timestamp,left_leg_index,left_leg_accel_x,left_leg_accel_y,left_leg_accel_z,left_leg_gyro_x,left_leg_gyro_y,left_leg_gyro_z,left_leg_battery_percentage
0.585,11,9.6468,1.258,-10.8959,0.1105,-0.1605,-0.0739,95,0.195,3,8.682,0.5714,-10.9078,0.1271,-0.0155,0.0558,64
0.636,12,9.5993,1.489,-11.0474,0.1007,-0.1833,-0.0802,95,0.246,4,8.4931,0.5427,-10.7699,0.2106,0.0344,0.1314,64
0.688,13,9.5236,1.3772,-11.2924,0.0799,-0.1435,-0.05,95,0.298,5,8.5364,0.4565,-10.8633,0.2607,-0.1385,0.144,64
0.74,14,9.4785,1.4492,-11.1798,0.061,-0.0748,-0.0223,95,0.35,6,8.5654,0.517,-10.8842,0.3637,-0.3922,0.0899,64
0.792,15,9.4967,1.391,-11.3888,0.1214,-0.0832,-0.009,95,0.402,7,8.7625,0.6444,-11.7781,0.2873,-0.7542,0.1363,64
0.843,16,9.6992,1.1382,-11.2762,0.065,-0.0923,-0.0159,95,0.454,8,8.7487,0.3489,-11.167,0.144,-0.9408,0.1407,64
0.895,17,10.1144,-0.0642,-11.6806,0.3403,-0.1535,0.0201,95,0.506,9,8.8697,-0.6362,-12.091,-0.0289,-1.0409,0.1649,64
0.947,18,10.4438,0.5497,-10.2682,0.5517,-0.1613,0.0357,95,0.557,10,8.8989,-1.2215,-12.2247,-0.1468,-1.1662,-0.0472,64
0.999,19,10.2827,0.3941,-9.9052,0.3649,0.0145,0.2544,95,0.609,11,10.7447,-0.0675,-12.58,-0.1175,-1.5179,-0.3048,64
1.051,20,10.0157,0.5229,-9.7848,0.7239,0.1398,0.2454,95,0.661,12,12.9593,1.6374,-16.4119,0.2548,-1.7747,-0.4375,64
1.103,21,9.7569,0.0395,-10.0924,1.1899,0.2399,0.2232,95,0.713,13,14.5534,1.9243,-19.1607,0.6189,-1.962,-0.5397,64
1.154,22,9.482,-0.217,-9.9684,1.3405,0.266,0.2172,95,0.764,14,12.958,0.0923,-19.7343,0.4208,-2.0987,-0.5796,64
1.206,23,9.6506,-0.4163,-9.7099,1.3437,0.2278,0.269,95,0.816,15,9.7739,0.5539,-17.71,0.2453,-2.1671,-0.424,64
1.258,24,9.4025,-0.2482,-9.443,0.9753,0.2844,0.327,95,0.868,16,5.9745,1.2888,-14.6052,-0.2396,-1.7284,0.0006,64
1.31,25,10.0107,0.1535,-11.8935,0.6046,0.0162,0.2951,95,0.92,17,3.1295,1.1478,-11.0298,-0.1506,-0.8425,0.3853,64
1.362,26,6.5139,1.4673,-11.9613,0.4055,-0.5761,0.1495,95,0.972,18,4.1484,0.4519,-8.4005,-0.0392,0.07,0.711,64
1.413,27,7.7477,0.8882,-13.9491,0.2778,-1.074,-0.0007,95,1.023,19,5.9128,0.2255,-8.4013,0.1712,0.7361,0.6424,64
1.465,28,8.7653,1.0384,-14.2827,0.2919,-1.4334,0.0589,95,1.075,20,6.2214,2.5503,-9.9794,0.6417,1.2222,0.1768,64
1.517,29,9.1074,0.4481,-14.8268,0.3188,-1.2266,0.2163,95,1.127,21,9.6579,2.653,-14.0021,0.857,1.577,-0.5424,64
1.569,30,11.9048,0.7682,-14.489,0.0889,-0.2219,-0.0669,95,1.179,22,12.0898,1.9957,-17.1053,0.6107,1.6267,-0.6937,64
1.621,31,13.9544,0.4314,-10.396,-0.2403,0.0617,0.166,95,1.231,23,12.9768,1.8371,-16.8108,0.3453,0.5317,-0.2006,64
1.672,32,12.4464,1.0031,-11.2933,0.0682,-0.5569,-0.2092,95,1.282,24,12.5546,1.2205,-15.9319,-0.425,-0.2787,0.5293,64
1.724,33,5.5968,2.8408,-5.6583,-0.3685,0.1942,0.103,95,1.334,25,10.7051,1.3665,-15.7037,-0.954,-0.8702,1.0667,64
1.776,34,5.4281,4.1708,-9.271,-0.9442,0.8201,0.7529,95,1.386,26,7.8925,1.5433,-15.159,-1.3725,-1.3019,1.2389,64
1.828,35,3.3431,4.4037,-14.7713,-0.9643,1.2769,0.9066,95,1.438,27,7.098,0.53,-12.9207,-1.0984,-1.6169,0.7455,64
1.879,36,7.7057,8.5659,-8.1967,-0.3289,0.2585,0.3229,95,1.489,28,7.7652,-1.0558,-9.7966,-0.8744,-1.3744,-0.0839,64
1.931,37,7.1766,7.3013,-12.602,-0.1665,-0.4847,0.2357,95,1.541,29,8.6324,-2.7534,-7.3533,-0.6405,-0.3181,-0.6338,64
1.983,38,8.3247,5.0141,-13.9885,-0.1321,-0.5197,0.5852,95,1.593,30,9.9665,1.0968,-12.6251,0.2072,0.4306,-0.664,64
2.035,39,9.2881,3.3942,-14.0443,-0.4697,0.1303,0.1629,95,1.645,31,12.2979,3.4423,-14.5181,0.8083,0.9869,-0.3374,64
2.087,40,12.0446,1.1823,-11.4755,-0.262,-0.107,-0.1512,95,1.697,32,13.7161,2.2118,-15.6634,0.2752,0.7677,0.1969,64
2.139,41,12.2417,-1.9752,-10.5539,0.0526,-0.7515,-0.644,95,1.748,33,13.3536,1.393,-16.5499,-0.2429,0.0944,0.6111,64
2.19,42,11.8052,-1.6309,-5.1186,0.7149,-0.8962,-0.2114,95,1.8,34,11.6979,1.6327,-16.1501,-0.6386,-0.5538,0.921,64
2.242,43,7.2524,-1.2784,-5.2964,-0.0937,0.0242,0.5233,95,1.852,35,9.4906,2.5848,-15.067,-0.7563,-0.6409,0.7142,64
2.294,44,7.1104,4.4068,-11.8704,0.5038,0.696,0.3935,95,1.904,36,7.3933,2.3276,-13.929,-0.569,-0.3925,0.1948,64
2.346,45,10.4553,3.6509,-16.6684,-0.2191,-0.0093,0.674,95,1.956,37,6.8617,0.3099,-13.004,-0.4283,-0.2055,-0.5044,64
2.398,46,8.6316,1.9794,-12.2327,0.0029,-0.6796,0.2139,95,2.007,38,6.1806,-1.6925,-10.769,0.3104,-0.27,-1.0332,64
2.449,47,9.3353,1.7954,-13.1719,0.0301,-0.9802,0.4226,95,2.059,39,7.5686,-1.256,-9.2448,0.8992,0.1105,-1.4255,64
2.501,48,9.4396,1.0157,-14.2132,-0.157,-0.3345,0.3045,95,2.111,40,8.6932,0.7835,-12.3514,1.3183,0.7617,-1.3066,64
2.553,49,12.1552,-0.3212,-12.9663,-0.7814,-0.6816,-0.3008,95,2.163,41,11.4619,2.4466,-15.9954,1.2609,0.4422,-0.6073,64
2.605,50,12.2932,-3.9475,-9.3533,-1.1292,-1.0472,-0.3185,95,2.214,42,12.9174,3.4369,-15.3552,1.047,-0.2901,-0.0371,64
2.657,51,12.0542,-7.2084,-9.8547,-0.23,-1.4377,0.1918,95,2.266,43,11.8295,4.0826,-15.6822,0.1135,-0.5973,0.4549,64
2.708,52,5.0127,-6.8581,-4.6083,-0.247,-0.371,0.8038,95,2.318,44,9.9957,2.4927,-16.3054,-0.5943,-0.4938,0.6039,64
2.76,53,8.0826,0.3465,-11.3683,0.4718,0.4076,1.1525,95,2.37,45,6.4175,0.6777,-17.1081,-1.0652,-0.3527,0.299,64
2.812,54,0.5748,5.6048,-16.3019,1.0209,0.4028,0.5512,95,2.421,46,4.4218,-1.2569,-15.6497,-0.5933,-0.5776,-0.381,64
2.864,55,5.6853,5.0347,-11.3074,0.845,-0.0415,0.0576,95,2.473,47,4.6695,-3.2473,-11.1204,0.2269,-0.6601,-0.9495,64
2.915,56,7.7165,4.4443,-12.6349,0.597,-0.6394,0.1583,95,2.525,48,3.7593,-1.8434,-8.995,0.8403,0.0527,-1.1862,64
2.967,57,8.2507,2.6007,-13.5239,0.2629,-0.5033,0.2634,95,2.577,49,5.556,0.6195,-12.2859,1.288,0.7234,-1.3509,64
3.019,58,11.2875,0.1565,-11.2448,0.0588,-0.5091,-0.0948,95,2.629,50,9.1723,0.5972,-16.9479,0.7328,0.5565,-0.4422,64
3.071,59,8.0809,-2.5969,-8.1491,-0.0142,-0.4071,-0.3521,95,2.68,51,11.8116,0.7524,-18.2165,0.2654,-0.2606,0.3576,64
3.123,60,11.1635,-1.953,-7.2646,0.6451,-0.9705,-0.9063,95,2.732,52,12.8951,0.7087,-17.6528,-0.4681,-0.857,0.9413,64
3.175,61,9.8939,-1.2522,-2.718,-0.1406,-0.2948,-0.2955,95,2.784,53,11.4389,0.9389,-15.8365,-1.0187,-1.2923,1.3674,64
3.226,62,6.9259,0.9534,-3.9426,-0.132,0.4632,0.4621,95,2.836,54,8.3635,0.652,-14.8041,-1.4188,-0.9807,1.4245,64
3.278,63,2.2235,3.3592,-10.8824,0.5802,1.0164,-0.2186,95,2.887,55,6.4034,0.0795,-12.802,-1.3938,-0.4003,1.1751,64
3.33,64,6.8886,3.7428,-15.941,0.4158,0.4291,-0.0849,95,2.939,56,6.2388,-0.8402,-11.4178,-0.9927,0.3906,0.6264,64
3.382,65,7.9723,3.6035,-16.0329,0.3486,-0.3558,-0.0329,95,2.991,57,5.3914,0.0884,-10.4773,-0.8634,0.97,0.3012,64
3.433,66,7.9471,2.3821,-16.4716,0.4703,-0.4025,0.1462,95,3.043,58,4.9929,5.2348,-9.1761,-0.0872,1.3929,0.0746,64
3.485,67,8.74,1.3871,-16.2653,0.5697,0.0973,0.3452,95,3.095,59,7.5559,4.5061,-11.6412,0.6111,1.7016,-0.288,64
3.537,68,11.6446,0.5732,-13.0917,-0.2567,0.7308,-0.0286,95,3.146,60,9.5835,3.5007,-14.9945,0.1494,1.3982,-0.3047,64
3.589,69,13.2627,-4.1346,-9.389,-0.8563,-0.0654,-0.269,95,3.198,61,10.0516,2.9349,-14.7734,0.7117,0.3537,-0.3793,64
3.641,70,14.0092,-3.6847,-5.3669,-0.3499,-0.7055,-0.3397,95,3.25,62,10.3395,2.2206,-13.8288,0.1447,-0.4087,-0.2156,64
3.692,71,7.7691,-4.4255,-1.3329,-0.9306,0.1634,0.2769,95,3.302,63,10.0762,2.2512,-12.1962,0.0158,-0.8877,0.1682,64
3.744,72,9.5058,-0.323,-8.9777,-0.0026,0.7976,0.5286,95,3.354,64,7.6754,1.3975,-11.6278,-0.6423,-0.4989,0.7214,64
3.796,73,12.2035,-5.4728,-14.5572,-0.4471,0.2325,1.0635,95,3.406,65,5.3723,1.0972,-11.497,-0.6355,0.0056,0.7395,64
3.848,74,14.1724,-6.3767,-8.6494,-0.3452,-0.1577,0.4771,95,3.457,66,4.6574,0.7999,-11.0448,-0.3407,0.2683,0.155,64
3.9,75,11.8584,-4.7848,-11.5544,-0.3956,-0.6128,0.5712,95,3.509,67,1.7878,1.4411,-10.0993,-0.0241,0.7015,-0.3955,64
3.952,76,11.6385,-3.644,-12.5315,-0.1399,-0.165,0.8738,95,3.561,68,6.032,-0.1909,-11.172,0.312,1.029,-0.5595,64
4.003,77,12.5465,-5.2494,-11.9194,-0.7773,-0.0572,0.2148,95,3.613,69,9.5197,-0.9476,-13.6426,0.5081,0.9792,-0.1337,64
4.055,78,13.3959,-3.717,-7.9367,-1.0801,0.6366,0.2834,95,3.665,70,12.0652,-1.1708,-14.5514,0.4397,0.3594,0.566,64
4.107,79,12.4643,-3.5546,-10.6007,-0.2905,-0.2088,-0.4672,95,3.716,71,12.4653,-0.2757,-14.0756,0.402,-0.3316,0.9978,64
4.159,80,12.2982,-3.2015,-6.3687,-0.3533,-0.8256,-0.4094,95,3.768,72,10.306,0.9906,-14.1614,-0.0709,-0.582,1.156,64
4.211,81,3.7956,-4.891,-2.0641,-0.9331,0.0758,0.3086,95,3.82,73,6.1658,2.0709,-14.3968,-0.4248,-0.5416,1.0811,64
4.262,82,5.7503,-4.5046,-8.9823,-0.0139,0.7337,0.903,95,3.872,74,3.8669,1.9572,-13.7869,-0.5558,-1.023,0.4572,64
4.314,83,4.1085,1.262,-3.9716,0.0289,-0.1379,-0.01,95,3.923,75,5.4145,0.8607,-11.5901,0.0176,-1.2536,-0.3377,64
4.366,84,5.5914,1.69,-8.6163,0.1533,-0.7471,-0.243,95,3.975,76,6.4049,-0.869,-8.6133,-0.0655,-0.6579,-0.9179,64
4.418,85,6.086,1.6794,-11.5362,0.193,-0.6598,-0.0618,95,4.027,77,9.7919,-1.8955,-9.2034,0.4046,0.2048,-1.2231,64
4.469,86,7.2141,1.3011,-13.1581,-0.1038,-0.0567,0.2243,95,4.079,78,12.2638,-2.2539,-14.4548,0.97,0.8344,-0.7573,64
4.521,87,10.5309,-2.9949,-12.2394,-0.4947,0.1012,-0.0068,95,4.131,79,14.068,-1.2047,-18.531,0.2458,0.5275,0.1276,64
4.573,88,10.7239,-5.6956,-11.5638,-1.0363,-0.5605,-0.136,95,4.182,80,13.7735,0.7896,-17.9799,-0.2727,-0.2818,0.7735,64
4.625,89,13.0919,-6.6435,-9.9345,-0.0798,-1.0825,-0.5302,95,4.234,81,11.9764,1.8433,-16.6018,-0.8581,-0.8724,1.2449,64
4.677,90,5.2755,-7.2781,-4.6666,-0.3367,-0.1336,-0.3763,95,4.286,82,10.1889,1.9918,-14.2027,-1.1974,-1.3035,1.3086,64
4.728,91,5.3279,-2.8848,-9.3537,0.3975,0.5809,0.3827,95,4.338,83,8.8198,0.9323,-11.4935,-1.2693,-0.9917,0.9269,64
4.78,92,9.1543,-7.3425,-14.8316,0.9667,0.8506,0.7382,95,4.39,84,7.6971,-0.6466,-9.7839,-1.0981,-0.0819,0.2897,64
4.832,93,11.3944,-0.7846,-14.1511,0.9603,-0.0469,0.1083,95,4.441,85,6.3691,-0.5751,-8.7973,-0.9524,0.6252,-0.2148,64
4.884,94,10.9667,-1.3559,-14.3302,0.6973,-0.3479,0.0265,95,4.493,86,3.7752,-1.8626,-10.5658,-0.3561,1.1413,-0.4903,64
4.936,95,10.5714,-1.0944,-14.7389,0.2945,0.1163,-0.1565,95,4.545,87,7.3461,-1.7941,-11.6787,0.4148,1.5179,-0.9344,64
4.987,96,12.6683,-0.6717,-14.1953,-0.371,0.6444,-0.5045,95,4.597,88,10.4788,-1.2322,-13.2492,0.3768,1.7503,-1.0835,64
5.039,97,13.6684,-2.7648,-12.2591,-0.9023,-0.0838,-0.1584,95,4.648,89,10.8782,-0.678,-13.2981,0.5825,0.9282,-0.6978,64
5.091,98,11.8083,-3.968,-14.602,-0.9638,-0.7346,0.1695,95,4.7,90,9.7856,0.2694,-13.8697,0.3334,0.0107,-0.1521,64
5.143,99,3.6302,-3.9627,-9.421,-1.3786,-0.1161,0.7725,95,4.752,91,10.0403,1.2459,-14.8061,-0.1438,-0.659,0.3211,64
5.195,100,3.9232,-1.5955,-11.7667,-0.5068,0.5936,0.9534,95,4.804,92,8.6407,1.6683,-14.1193,-0.7591,-1.1477,0.6099,64
5.246,101,8.0828,0.2266,-6.0038,-0.0062,-0.1939,0.1869,95,4.856,93,6.3479,1.3782,-13.4234,-1.1615,-1.1775,0.3488,64
5.298,102,8.3019,-2.1214,-9.1403,-0.0306,-0.8149,-0.0485,95,4.908,94,5.6607,-0.2207,-12.1928,-0.7888,-1.3091,-0.3343,64
5.35,103,8.2192,-1.0618,-11.6981,0.0179,-1.2621,-0.2367,95,4.959,95,7.2825,-1.6734,-9.6185,-0.3333,-1.2494,-0.9024,64
5.402,104,8.1209,-0.0508,-13.3266,0.0714,-0.9932,-0.0185,95,5.011,96,10.0338,-2.8331,-11.8178,-0.0184,-0.524,-0.9886,64
5.454,105,8.7592,0.1944,-14.8638,-0.0338,-0.0585,0.1397,95,5.063,97,12.4404,-2.2451,-16.6063,-0.3016,-0.2833,-0.0412,64
5.506,106,11.6586,-2.3179,-18.8532,-0.2448,-0.7161,0.0248,95,5.115,98,14.1969,-1.0841,-17.3673,-0.1723,-0.8736,0.6503,64
5.557,107,11.7072,-3.5473,-19.9415,-0.6583,-1.1875,-0.0844,95,5.166,99,12.6362,0.8395,-16.7942,-0.1846,-0.9182,1.1197,64
5.609,108,13.8102,-5.8162,-12.4911,-1.1378,-1.2951,0.2324,95,5.218,100,8.9126,2.9618,-15.8201,-0.3526,-0.5008,1.3772,64
5.661,109,6.4897,-9.2688,-6.5325,-1.3815,-0.2669,0.8449,95,5.27,101,5.4297,2.9434,-13.7946,-0.2654,0.0283,0.9197,64
5.713,110,6.6588,-2.856,-12.7726,-0.3317,0.4836,1.2944,95,5.322,102,4.8934,1.2084,-11.6316,-0.0459,0.5309,-0.0002,64
5.765,111,0.7775,-7.3215,-17.3269,-0.371,0.0174,0.6644,95,5.374,103,5.4483,-2.9028,-9.5854,-0.5192,1.0725,-0.6715,64
5.816,112,3.4695,-4.9215,-17.0332,-0.2742,-0.4333,0.7702,95,5.425,104,7.3615,-4.0811,-9.1144,0.2282,1.4677,-1.154,64
5.868,113,4.787,-4.3246,-16.648,-0.4376,-0.2791,0.442,95,5.477,105,9.1772,-2.0054,-11.4074,0.8413,1.7562,-1.5055,64
5.92,114,6.9248,-5.1967,-19.5247,-0.7869,-0.5101,0.0441,95,5.529,106,11.0186,-0.4249,-14.9512,1.0823,1.9667,-1.3923,64
5.972,115,8.1123,-7.7074,-15.953,-1.2496,-0.9311,-0.008,95,5.581,107,11.5597,0.3436,-16.6865,0.5785,0.8092,-0.3358,64
6.024,116,8.0138,-7.7854,-16.5311,-1.4255,-1.353,0.0954,95,5.632,108,11.2484,0.4436,-17.1927,-0.1844,-0.0762,0.4352,64
6.075,117,1.0588,-5.7478,-10.6492,-0.3639,-0.3091,0.6578,95,5.684,109,10.0401,-0.7435,-17.1605,-0.6012,-0.7224,0.8397,64
6.127,118,2.6814,0.265,-13.3401,0.3241,0.4528,1.157,95,5.736,110,9.3347,-0.5408,-16.4732,-0.3505,-1.194,0.9004,64
6.179,119,-0.7161,5.5453,-16.0718,0.9131,0.5777,0.6318,95,5.788,111,7.2506,0.684,-14.6231,-0.1991,-1.5382,0.6774,64
6.231,120,4.7431,3.4361,-18.9093,0.7968,-0.2518,0.0798,95,5.84,112,7.052,1.5422,-12.2764,0.0846,-1.7895,-0.1266,64
6.283,121,6.2514,3.4898,-18.5234,0.4727,-0.7642,-0.1602,95,5.891,113,1.813,2.215,-10.7007,0.3151,-1.1404,-0.4394,64
6.334,122,6.8643,2.1133,-18.4762,0.1989,-0.334,-0.1929,95,5.943,114,3.5642,0.719,-12.1353,0.3187,-0.1474,-0.9051,64
6.386,123,8.554,1.7571,-21.3475,-0.1537,0.1523,-0.4291,95,5.995,115,7.7186,-1.7566,-16.838,-0.2064,0.5774,-0.6145,64
6.438,124,11.5088,2.6529,-16.1679,0.323,0.2722,-0.3928,95,6.047,116,10.7506,-2.3978,-20.2013,-0.3439,0.5244,0.2319,64
6.49,125,13.6654,2.4972,-13.5751,-0.2505,-0.4747,-0.6426,95,6.099,117,11.3827,-1.1177,-19.1737,-0.6164,0.1249,0.8496,64
6.542,126,12.6601,-1.7866,-8.4778,-0.858,-0.512,0.0563,95,6.151,118,9.5515,0.1087,-18.1046,-0.7465,0.0036,1.1733,64
6.593,127,3.9235,-4.3576,-7.1551,0.0276,0.3046,0.7188,95,6.202,119,5.4847,1.4575,-16.8402,-0.6621,0.4266,1.0957,64
6.645,128,4.8362,0.6034,-13.227,0.6967,0.9007,1.1902,95,6.254,120,2.9195,1.3688,-15.5338,-0.6768,0.8573,0.6602,64
6.697,129,-1.7945,5.7923,-17.6585,0.5686,0.2899,0.886,95,6.306,121,2.2983,0.4,-13.9846,-0.4238,1.1706,0.1811,64
6.749,130,1.6909,4.6844,-16.9097,0.1791,-0.4618,0.7504,95,6.358,122,1.2775,-0.9244,-13.2401,-0.2977,1.2413,-0.4457,64
6.801,131,3.6124,2.6586,-17.1303,0.1162,-0.5689,0.8852,95,6.409,123,4.4881,-1.6415,-13.4052,0.0712,1.5906,-0.971,64
6.853,132,5.2523,1.4525,-16.8858,-0.2781,-0.1008,0.5036,95,6.461,124,8.3703,-1.8497,-15.1561,0.5168,1.8459,-0.9785,64
6.904,133,9.0991,-1.602,-14.8741,-0.4736,-0.7348,-0.1379,95,6.513,125,11.176,-2.1094,-16.5291,0.4345,1.575,-0.3355,64
6.956,134,7.8639,-3.3116,-12.6517,-1.0031,-0.7871,-0.311,95,6.565,126,11.8373,-1.6927,-17.0578,-0.243,0.8125,0.4355,64
7.008,135,7.17,-5.2758,-11.9876,-0.4251,-1.0495,-0.422,95,6.617,127,10.6309,0.6618,-15.0293,-0.8189,0.0675,0.9982,64
7.06,136,6.4892,-6.2256,-7.167,-0.1817,-0.0876,0.3541,95,6.669,128,6.98,1.4413,-14.6959,-1.1343,-0.0528,0.9165,64
7.112,137,6.8927,0.8082,-11.3665,0.544,0.6144,0.9362,95,6.72,129,3.9776,1.0168,-13.7088,-1.3007,0.1672,0.4169,64
7.163,138,10.2963,5.9418,-5.7117,0.7356,0.7889,0.3471,95,6.772,130,2.9259,-0.9571,-12.1527,-0.8253,0.4967,-0.2582,64
7.215,139,11.4344,5.6723,-9.1206,0.7866,-0.0977,0.0959,95,6.824,131,5.2889,-2.7231,-9.528,-0.2058,0.6407,-0.7235,64
7.267,140,11.0166,4.0386,-11.3959,0.5759,-0.6794,0.5007,95,6.876,132,8.5486,-0.4152,-8.3041,0.5245,1.1526,-1.0576,64
7.319,141,10.7657,2.6249,-13.0186,0.0598,-0.1816,0.2056,95,6.928,133,11.3564,0.2301,-9.919,0.8159,1.5262,-0.7743,64
7.371,142,11.8507,0.3081,-14.8444,-0.6315,-0.4295,-0.3367,95,6.979,134,13.4057,-0.0165,-9.9344,0.2099,1.7686,-0.2101,64
7.422,143,9.5918,-4.4483,-13.7097,-1.1361,-0.6309,-0.1884,95,7.031,135,13.5298,-0.0905,-9.4627,-0.5239,1.1281,0.2779,64
7.474,144,9.8344,-7.3018,-15.759,-0.812,-1.1338,-0.0635,95,7.083,136,10.979,0.3757,-8.2187,-1.0306,0.4509,0.4675,64
7.526,145,8.8393,-6.8618,-9.6551,0.0839,-0.3991,0.3671,95,7.135,137,7.5069,1.1279,-7.482,-1.1077,0.7699,0.3546,64
7.578,146,8.7562,-0.8705,-11.3233,0.7378,0.387,0.9253,95,7.187,138,6.465,1.5648,-9.6727,-0.7566,1.2468,-0.0912,64
7.63,147,5.0642,-2.5277,-12.6528,1.215,0.9608,0.0515,95,7.238,139,5.1219,1.4351,-13.429,0.1177,0.7499,-0.3135,64
7.681,148,8.9618,-7.0818,-6.6505,1.1151,0.0279,0.1959,95,7.29,140,3.6106,-0.7148,-13.9575,-0.5912,0.2011,-0.4435,64
7.733,149,9.9155,-4.193,-9.1525,0.7672,-0.5266,0.1858,95,7.342,141,7.7525,-2.4761,-15.3461,-0.1981,-0.4697,0.0187,64
7.785,150,10.0003,-3.182,-10.7256,0.4829,-0.2574,0.072,95,7.394,142,9.86,-3.4936,-19.1815,-0.3105,-0.5946,0.6026,64
7.837,151,10.9157,-2.9408,-11.5187,0.0487,-0.312,-0.0943,95,7.446,143,12.3136,2.0895,-14.8528,0.1271,-0.5822,-0.2316,64
7.889,152,11.6316,-2.074,-9.8731,-0.1902,-0.0709,-0.1428,95,7.497,144,8.5146,-3.5288,-15.1769,-0.1397,0.0769,0.5113,64
7.94,153,10.2639,-2.365,-9.8404,-0.5945,-0.524,-0.3051,95,7.549,145,9.3989,-2.0946,-11.7499,-0.5035,0.7312,0.7388,64
7.992,154,9.4682,-2.4214,-10.5881,-1.1071,-1.0558,-0.5988,95,7.601,146,9.5582,0.0738,-8.5827,-0.0619,0.3198,0.4764,64
8.044,155,12.1761,-2.3109,-13.0993,-1.1919,-1.444,-1.0352,95,7.653,147,9.6226,-0.5717,-10.439,0.3561,-0.3814,0.0658,64
8.096,156,12.7003,-1.7528,-13.162,-1.5315,-1.7273,-1.4296,95,7.705,148,9.132,-0.7473,-11.5732,0.0999,-0.6051,-0.1091,64
8.148,157,11.7038,-2.9452,-14.6409,-0.7907,-1.6948,-1.7174,95,7.756,149,9.1475,1.2267,-12.7676,0.4105,-0.5979,-0.011,64
8.2,158,4.9219,1.7122,-13.1464,0.0994,-0.5586,-1.6874,95,7.808,150,9.1215,1.0071,-12.8814,0.4344,-1.0936,0.0475,64
8.251,159,6.9639,-0.0131,-13.8281,-0.6027,0.2707,-1.0097,95,7.86,151,8.8716,0.8331,-13.0989,0.6204,-1.1767,0.0106,64
8.303,160,7.4778,5.3423,-13.849,-1.0399,0.8759,-0.3435,95,7.912,152,9.4154,1.0564,-12.6329,0.731,-1.1858,0.0339,64
8.355,161,7.829,4.2206,-14.6998,-0.0825,1.3176,0.1788,95,7.964,153,8.9539,0.4959,-13.0285,0.589,-0.9487,0.1902,64
8.407,162,8.973,4.1971,-15.6147,0.6164,1.64,0.1202,95,8.015,154,8.4744,0.7449,-13.2096,1.1045,-0.7095,-0.0442,64
8.459,163,8.4908,2.0938,-17.697,0.1039,1.4843,0.173,95,8.067,155,8.1326,0.8854,-13.4507,1.4808,-0.5957,-0.4013,64
8.511,164,8.2908,1.5971,-17.1322,0.0547,0.8102,0.1458,95,8.119,156,8.0893,0.9643,-13.3994,1.7555,-0.4462,-0.7835,64
8.563,165,11.3168,1.7626,-9.9198,0.6775,-0.0733,0.1953,95,8.171,157,7.9459,0.2285,-13.5984,1.9559,-0.186,-1.2318,64
8.614,166,10.5424,1.2726,-9.5385,0.097,-0.1456,0.5378,95,8.223,158,7.8622,0.6001,-12.4586,2.1022,-0.015,-1.5698,64
8.666,167,9.8326,0.4386,-10.0286,0.3556,-0.2838,0.6218,95,8.274,159,8.6684,-0.6655,-11.769,2.2089,0.3675,-1.6271,64
8.718,168,11.2545,2.4789,-9.7464,0.8662,-0.2553,0.627,95,8.326,160,8.6374,0.9575,-11.1507,1.3776,0.2791,-1.5938,64
8.769,169,10.8498,2.0287,-9.7034,0.7361,-0.1503,0.7191,95,8.378,161,8.8201,0.6306,-11.7617,1.4918,0.2628,-1.351,64
8.821,170,10.3142,1.4783,-9.553,0.5445,-0.1632,0.674,95,8.43,162,9.1922,0.1777,-11.3297,0.9992,0.4404,-1.0596,64
8.873,171,10.1244,0.8574,-9.7607,0.4253,-0.275,0.551,95,8.481,163,8.9217,0.16,-11.058,0.7681,0.4715,-0.9182,64
8.925,172,9.9626,0.2684,-10.0393,0.4202,-0.377,0.3993,95,8.533,164,9.1912,0.72,-10.2424,0.5636,0.3656,-0.7261,64
8.977,173,9.828,0.2973,-10.2921,0.4995,-0.3943,0.2433,95,8.585,165,8.8771,0.3711,-9.9302,0.4244,0.3359,-0.4936,64
9.028,174,10.093,-0.0157,-10.9858,0.4789,-0.3327,0.1245,95,8.637,166,9.0839,0.1867,-9.781,0.381,0.2189,-0.2763,64
9.08,175,10.0248,-0.1998,-10.9573,0.4551,-0.3104,-0.0503,95,8.689,167,9.021,0.1018,-9.7579,0.3597,0.1582,-0.0885,64
9.132,176,10.0389,-0.0311,-10.8848,0.5437,-0.2027,-0.1268,95,8.74,168,9.2654,-0.0022,-9.9465,0.2939,0.1552,0.0093,64
9.184,177,9.9173,-0.0721,-11.0949,0.4863,-0.1284,-0.099,95,8.792,169,9.1154,-0.0996,-9.6475,0.3246,0.1733,0.0778,64
9.235,178,9.846,-0.2285,-10.8639,0.4511,-0.0561,-0.1633,95,8.844,170,9.108,-0.2041,-9.4956,0.3095,0.1172,0.1116,64
9.287,179,9.6419,0.0973,-10.7841,0.4416,-0.126,-0.3204,95,8.896,171,9.1419,-0.3823,-9.3016,0.3056,0.065,0.1194,64
9.339,180,9.7512,-0.2536,-10.9364,0.9601,-0.2666,-0.545,95,8.948,172,9.1325,-0.3846,-9.3841,0.2418,-0.0061,0.1044,64
9.391,181,9.6234,0.3562,-11.2236,1.3772,-0.2422,-0.7691,95,8.999,173,9.0948,-0.7488,-9.3262,0.2182,-0.1132,0.0921,64
9.443,182,9.4512,0.2445,-11.4797,1.6817,-0.0204,-0.7444,95,9.051,174,9.2036,-0.6063,-9.8191,0.2999,-0.1436,0.0513,64
9.494,183,9.1546,1.4265,-12.7944,1.8115,0.12,-0.5188,95,9.103,175,9.192,-0.7451,-9.942,0.2652,-0.0927,0.0548,64
9.546,184,9.4167,0.8406,-12.3609,1.0597,0.2726,-0.1789,95,9.155,176,9.094,-0.7178,-9.8977,0.2663,-0.0464,0.0499,64
9.598,185,9.2109,0.4158,-12.0639,0.8606,0.2652,-0.0392,95,9.207,177,9.0317,-0.8132,-9.7665,0.2749,-0.027,0.0281,64
9.65,186,9.3738,0.6723,-11.8143,0.7237,0.2545,0.0888,95,9.258,178,9.0693,-0.9968,-9.8198,0.4045,-0.042,-0.0006,64
9.702,187,9.6192,-0.0959,-11.7469,0.5492,0.2324,0.2183,95,9.31,179,9.0533,-1.263,-9.4955,0.6506,-0.1065,-0.0383,64
9.754,188,9.6462,-0.2262,-11.4191,0.3444,0.2709,0.2902,95,9.362,180,8.9248,-1.6256,-9.8392,1.1471,-0.181,-0.0819,64
9.805,189,9.5908,-0.3835,-11.1808,0.3396,0.2824,0.3327,95,9.413,181,8.8154,-1.5262,-9.8296,1.5119,-0.2418,-0.1942,64
9.857,190,9.5873,-0.6519,-10.8988,0.2834,0.2446,0.2987,95,9.465,182,8.8515,0.6453,-11.2153,1.3944,-0.2042,-0.2058,64
9.909,191,9.5847,-0.686,-10.6658,0.2344,0.1667,0.2357,95,9.517,183,8.9798,-0.102,-10.9148,0.6641,-0.0635,-0.1658,64
9.961,192,9.6267,-0.7301,-10.606,0.1838,0.117,0.1837,95,9.569,184,8.9219,0.0635,-10.4721,0.4679,0.0382,-0.2198,64
10.013,193,9.6719,-0.7382,-10.6058,0.0924,0.1447,0.1456,95,9.621,185,8.8127,0.1509,-10.2494,0.4075,0.0871,-0.223,64
10.064,194,9.5045,-1.0318,-10.3698,-0.0496,0.1634,0.104,95,9.672,186,8.8959,0.0923,-10.0827,0.2629,0.1025,-0.2164,64
10.116,195,9.5428,-1.0313,-10.293,-0.0603,0.1181,0.064,95,9.724,187,8.9328,0.1261,-10.0038,0.174,0.0942,-0.2252,64
10.168,196,9.5584,-1.049,-10.2233,-0.1095,0.0961,0.0154,95,9.776,188,8.9926,0.1379,-10.0073,0.16,0.0862,-0.2045,64
10.22,197,9.6062,-0.9949,-10.1893,-0.0663,0.0464,-0.0224,95,9.828,189,8.9962,0.1523,-9.9416,0.095,0.084,-0.2055,64
10.271,198,9.5553,-1.088,-10.0808,-0.051,-0.0409,-0.149,95,9.879,190,8.9196,0.268,-9.6687,0.1248,0.0638,-0.1777,64
10.323,199,9.569,-0.9279,-10.1439,0.0079,-0.1575,-0.2978,95,9.931,191,8.9438,0.1671,-9.6114,0.178,-0.0341,-0.1452,64
