right_leg_timestamp,right_leg_index,right_leg_accel_x,right_leg_accel_y,right_leg_accel_z,right_leg_gyro_x,right_leg_gyro_y,right_leg_gyro_z,right_leg_battery_percentage,left_leg_timestamp,left_leg_index,left_leg_accel_x,left_leg_accel_y,left_leg_accel_z,left_leg_gyro_x,left_leg_gyro_y,left_leg_gyro_z,left_leg_battery_percentage
0.36,6,9.6291,-0.1058,-11.254,0.0242,-0.0094,0.0154,75,0.04,0,8.8209,1.5859,-8.9762,0.0002,0.0018,0.0109,51
0.411,7,9.6205,-0.1253,-11.2211,0.0186,-0.0099,0.0157,75,0.092,1,8.8245,1.5957,-8.9802,-0.0007,0.0017,0.0056,51
0.463,8,9.6051,-0.1439,-11.2247,0.0119,-0.0193,0.0112,75,0.144,2,8.8213,1.59,-8.9674,0.0,-0.0008,0.0056,51
0.515,9,9.5985,-0.1252,-11.2665,0.0157,-0.0235,0.0102,75,0.196,3,8.8207,1.5882,-8.9652,0.0044,-0.0024,0.002,51
0.567,10,9.6049,-0.1466,-11.2787,0.0119,-0.0285,0.0077,75,0.247,4,8.8309,1.6211,-8.9587,0.0134,-0.0075,0.005,51
0.619,11,9.6133,-0.1047,-11.2692,0.005,-0.0263,0.0056,75,0.299,5,8.8342,1.5928,-8.967,0.0191,-0.0304,0.0247,51
0.67,12,9.5823,-0.0905,-11.2941,-0.0067,-0.0278,0.0058,75,0.351,6,8.8715,1.5844,-8.9371,0.0535,-0.031,0.0309,51
0.722,13,9.5548,-0.1308,-11.3553,0.0382,-0.039,0.0021,75,0.403,7,8.9438,1.5143,-8.9408,0.079,-0.0193,0.022,51
0.774,14,9.3907,-0.0584,-11.46,0.0311,-0.0467,-0.0123,75,0.455,8,8.9219,1.6968,-8.9975,0.131,-0.1084,0.0344,51
0.826,15,9.4602,-0.222,-11.5523,0.0392,-0.0634,-0.0169,75,0.507,9,9.0154,1.9828,-9.8805,0.5778,-0.145,0.0341,51
0.878,16,9.4247,-0.3887,-11.3511,0.0403,-0.1632,-0.0502,75,0.558,10,8.2329,2.7652,-9.3322,0.5677,-0.2942,-0.0937,51
0.929,17,9.401,-0.2607,-11.3093,0.0532,-0.415,-0.0852,75,0.61,11,7.9667,0.9652,-9.2157,0.2857,-0.2151,-0.0109,51
0.981,18,9.3691,-0.3138,-11.3284,0.0588,-0.7608,-0.0822,75,0.662,12,7.7317,1.9331,-9.6702,0.2571,-0.3354,0.5785,51
1.033,19,9.1951,-0.7927,-12.3317,0.0371,-0.9415,-0.1903,75,0.714,13,7.8203,1.5495,-9.6065,0.2977,-0.5637,0.888,51
1.085,20,8.1964,-0.0387,-12.8744,-0.0449,-1.0765,-0.3528,75,0.765,14,8.2634,1.1041,-10.1155,0.0475,-1.0782,0.9936,51
1.137,21,9.0234,0.8497,-13.5017,0.0184,-1.2275,-0.3332,75,0.817,15,8.6372,0.6059,-11.1403,-0.176,-1.4465,1.0507,51
1.188,22,9.0131,1.1752,-15.0503,-0.1551,-1.0719,-0.2309,75,0.869,16,8.856,0.1092,-12.124,-0.1904,-1.1267,0.8258,51
1.24,23,9.9033,1.3503,-16.4043,-0.399,-0.6205,-0.0225,75,0.921,17,11.5808,1.1109,-12.1037,0.5038,-1.2863,-0.0687,51
1.292,24,12.4936,2.18,-12.1409,-0.677,0.0708,0.0294,75,0.973,18,13.4239,3.4598,-13.8167,1.0424,-1.4605,0.1542,51
1.344,25,12.7852,0.6847,-12.5404,-0.35,-0.6217,-0.5311,75,1.024,19,12.6481,7.1361,-7.5506,1.4355,-1.1293,-0.3078,51
1.395,26,14.5969,-0.2751,-12.6721,0.4211,-1.1272,-0.7443,75,1.076,20,4.8245,8.3133,-8.4163,1.4684,-0.1423,-0.8372,51
1.447,27,11.1438,0.4054,-11.4799,0.8347,-1.496,-0.6771,75,1.128,21,4.4829,4.4896,-9.5869,0.9535,-0.7706,-1.2825,51
1.499,28,8.3169,-0.0192,-10.4842,0.3244,-1.7653,-0.3287,75,1.18,22,4.4124,0.4853,-10.1325,0.3634,0.1216,-1.2509,51
1.551,29,6.8052,0.5813,-10.5515,0.174,-1.9618,-0.0051,75,1.231,23,-2.2522,5.6464,-4.7874,0.8935,-0.0413,-0.2326,51
1.603,30,8.1998,0.3204,-12.2739,0.3986,-1.6593,-0.1677,75,1.283,24,2.6469,-1.0617,-10.1315,-0.0162,0.3169,-0.5033,51
1.655,31,7.1804,0.5295,-15.5425,0.0509,-0.5326,-0.463,75,1.335,25,3.8598,-1.3351,-11.4027,0.1101,0.071,-0.5621,51
1.706,32,5.8335,0.5444,-19.3485,0.3146,0.2896,-0.3319,75,1.387,26,7.9343,4.3177,-14.3998,0.7397,-0.2943,-0.072,51
1.758,33,0.7313,0.505,-19.7841,-0.4393,0.8897,-0.0148,75,1.439,27,7.4241,6.4506,-13.6172,1.2146,-0.7869,0.5726,51
1.81,34,-3.2126,0.3284,-19.67,-0.6416,0.7856,-0.0545,75,1.49,28,6.1064,9.0602,-10.9376,0.4091,-0.6571,0.0748,51
1.862,35,-3.5713,1.3464,-18.567,-0.8004,-0.0983,-0.3393,75,1.542,29,3.2302,7.3761,-10.6877,0.8013,0.2054,-0.6168,51
1.914,36,-1.1471,1.6525,-16.3897,-0.4198,-0.5032,-0.4645,75,1.594,30,2.8394,0.6115,-10.2657,-0.0754,0.5918,-0.4734,51
1.966,37,3.6434,1.9807,-14.3021,-0.156,-0.664,-0.5618,75,1.646,31,7.1896,5.7384,-4.8846,-0.2688,0.777,-1.0156,51
2.017,38,7.9249,0.3175,-17.9454,-0.6639,-0.179,-0.6631,75,1.697,32,7.0337,3.7553,-9.0807,-0.8732,-0.0997,-0.0609,51
2.069,39,8.8195,0.7678,-21.1023,0.192,0.5477,-0.7174,75,1.749,33,6.4536,3.2776,-10.2441,0.0374,-0.7396,-0.6778,51
2.121,40,8.4279,1.7266,-23.4062,0.0362,0.9924,-0.5206,75,1.801,34,8.7419,5.0572,-11.568,0.6391,0.1452,-0.1245,51
2.173,41,0.8269,1.9013,-22.6237,-0.1655,0.9346,-0.1635,75,1.853,35,10.8672,6.7285,-12.6712,1.1411,-0.2091,0.0988,51
2.225,42,-2.3591,0.6201,-19.6393,-0.1925,0.0087,-0.1766,75,1.905,36,7.3272,10.2029,-8.9902,1.4198,0.5279,-0.5993,51
2.276,43,-2.7407,1.107,-16.5103,0.513,-0.5626,-0.552,75,1.957,37,4.1337,7.2625,-9.1636,0.3706,0.4036,-1.1088,51
2.328,44,-0.9316,1.8788,-14.2624,0.9291,-0.6914,-0.8925,75,2.008,38,6.6335,0.0037,-13.3275,-0.4066,0.5269,-0.1289,51
2.38,45,4.5858,1.7257,-14.8003,0.0029,-0.2018,-0.2286,75,2.06,39,-0.6312,4.4477,-13.1638,-0.553,0.545,0.28,51
2.432,46,8.2612,1.422,-17.7305,-0.1853,0.4827,0.1687,75,2.112,40,-0.2084,-0.1655,-15.4369,-1.0796,1.0049,0.2308,51
2.484,47,8.3966,3.1815,-20.9454,0.2497,1.0306,0.5765,75,2.164,41,1.9646,1.0002,-15.4599,-0.1133,0.0667,-0.5029,51
2.535,48,7.2785,4.0338,-23.2917,0.2262,1.1571,0.5408,75,2.216,42,5.2447,3.2675,-14.5297,0.5686,0.7336,0.1835,51
2.587,49,-0.012,2.4428,-22.1008,0.0138,0.5227,0.4359,75,2.267,43,8.6778,5.2088,-14.6399,0.8311,-0.0231,0.5084,51
2.639,50,-2.6106,1.3786,-19.3187,-0.07,-0.2919,0.276,75,2.319,44,4.1071,7.7093,-12.0129,0.3381,0.6681,-0.3004,51
2.691,51,-3.0241,1.7447,-16.7251,0.6254,-0.8864,-0.0182,75,2.371,45,3.4899,5.9489,-10.2102,0.1529,0.3847,-0.8906,51
2.742,52,-0.1285,2.9485,-13.8209,0.7481,-1.0481,-0.3605,75,2.423,46,3.7166,-0.955,-15.4331,-0.5654,0.5615,0.0296,51
2.794,53,5.172,2.5449,-14.4994,-0.1292,-0.7275,-0.4133,75,2.475,47,2.755,-4.6154,-18.4036,-1.0898,-0.257,0.7019,51
2.846,54,9.0405,1.5518,-17.4894,0.5393,0.1474,-0.6038,75,2.526,48,4.5552,-3.5501,-16.9679,-0.5121,-0.5229,0.7671,51
2.898,55,8.7529,2.6418,-20.7694,0.5186,0.7859,-0.3136,75,2.578,49,7.4391,-1.2913,-16.1195,0.296,-1.0265,0.0221,51
2.95,56,6.3689,3.7824,-23.1633,0.3949,1.0679,0.2407,75,2.63,50,8.5128,2.9736,-15.3621,0.8499,-0.1634,0.6046,51
3.002,57,-0.6759,1.9907,-22.1153,0.0181,0.2838,0.4268,75,2.682,51,6.7645,4.8007,-16.3037,0.8085,0.416,0.9728,51
3.053,58,-3.6267,1.0853,-18.5691,0.3951,-0.4663,0.1636,75,2.733,52,3.3196,7.0876,-13.5317,-0.0047,0.9886,0.0386,51
3.105,59,-3.3103,2.3546,-16.1001,0.9165,-1.0137,-0.0662,75,2.785,53,2.5548,3.5807,-12.5563,-0.6797,0.9737,-0.6433,51
3.157,60,2.7604,3.6081,-14.5413,0.0817,-1.2071,-0.2223,75,2.837,54,6.9819,-2.6834,-17.1209,-1.1731,0.9434,-0.3514,51
3.209,61,7.2804,2.1691,-15.1894,-0.2765,-0.8732,0.0036,75,2.889,55,2.0373,-2.848,-20.156,-1.5333,0.0217,0.4239,51
3.261,62,8.6373,2.372,-19.0908,-0.2221,0.0411,0.1381,75,2.941,56,5.0798,-2.6642,-18.3379,-0.6337,-0.6464,0.4007,51
3.312,63,6.2035,2.7854,-21.9382,-0.0719,0.7083,0.4565,75,2.992,57,8.8247,0.9168,-17.4041,0.2122,-1.1386,-0.379,51
3.364,64,3.2563,2.4444,-24.0163,-0.6979,0.2639,0.7561,75,3.044,58,8.2256,3.4667,-17.5133,0.5908,-0.3333,0.4036,51
3.416,65,-2.9476,0.9258,-22.6692,-0.5589,-0.4782,0.6345,75,3.096,59,7.9554,7.8223,-12.3823,0.7825,-0.1611,-0.2666,51
3.468,66,-3.7604,1.637,-19.3134,0.2686,-1.0224,0.2707,75,3.148,60,0.7182,9.5402,-10.4729,1.2339,0.5674,-0.866,51
3.519,67,-2.5919,2.0329,-16.584,0.7693,-1.4196,-0.0678,75,3.2,61,4.0803,3.5991,-11.0204,0.2235,-0.2527,-1.3034,51
3.571,68,3.0137,2.4394,-16.0042,-0.1137,-1.7095,-0.4916,75,3.251,62,-1.7515,7.9189,-5.4354,0.4998,0.2939,-0.3442,51
3.623,69,6.6831,1.5092,-19.4015,-0.2249,-0.5844,-0.2458,75,3.303,63,1.1074,4.9572,-10.6855,-0.2083,-0.4523,-0.6494,51
3.675,70,6.9802,2.4122,-22.165,-0.1275,0.2518,0.3023,75,3.355,64,2.5192,4.4533,-12.2991,0.0411,0.3549,0.179,51
3.727,71,6.5834,1.8534,-24.1818,0.1069,0.8622,0.7248,75,3.407,65,6.9559,5.0883,-13.9806,0.6606,-0.4062,0.811,51
3.778,72,1.7857,2.2695,-25.6539,-0.5797,1.3076,1.1972,75,3.458,66,8.123,8.8119,-13.7337,0.8165,-0.5913,1.1201,51
3.83,73,-4.0209,2.8582,-25.271,-0.1443,0.2969,0.7293,75,3.51,67,6.2964,11.7234,-9.7639,0.9306,0.0828,0.1461,51
3.882,74,-4.3661,2.9691,-21.8017,0.5646,-0.4567,0.3856,75,3.562,68,3.1011,9.9512,-8.5293,1.1069,0.7454,-0.5648,51
3.934,75,-1.6036,2.7708,-18.1912,0.1217,-1.0067,0.0277,75,3.614,69,4.1318,1.966,-14.2063,0.1308,-0.1228,-0.5568,51
3.986,76,4.0954,2.5346,-15.986,-0.4774,-1.099,-0.2505,75,3.666,70,-1.8693,6.7264,-7.7606,0.4322,0.5954,0.1794,51
4.037,77,7.0222,-0.7046,-19.0018,-0.6906,-0.205,-0.5146,75,3.717,71,-1.6061,0.4053,-12.508,-0.1024,1.1105,-0.2042,51
4.089,78,7.2897,-1.2156,-21.8733,-0.2897,0.5287,-0.4668,75,3.769,72,2.0528,-0.074,-13.2521,0.6,0.1437,-0.7358,51
4.141,79,7.217,-0.3939,-23.969,-0.765,1.0643,-0.047,75,3.821,73,6.6155,5.2381,-14.9066,1.1119,0.4519,0.0045,51
4.193,80,2.1574,-0.3068,-23.308,-1.0552,0.9703,0.5803,75,3.873,74,9.9456,8.6289,-12.9796,1.4853,-0.2663,0.3063,51
4.245,81,-1.4344,0.0989,-20.7146,-0.5628,0.0348,0.5354,75,3.925,75,7.4563,11.5899,-9.2174,1.3992,0.4906,-0.4479,51
4.296,82,-2.2434,0.4893,-16.5183,-0.0288,-0.648,0.1728,75,3.976,76,3.0659,10.1065,-9.8807,0.9653,0.7952,-0.9983,51
4.348,83,0.0344,0.5544,-14.3863,0.0116,-0.8176,-0.1686,75,4.028,77,4.9012,2.0794,-11.3666,0.0274,0.0721,-0.2721,51
4.4,84,5.2908,1.5177,-14.3427,-0.4223,-1.096,-0.4,75,4.08,78,-0.3586,6.8098,-5.6881,0.6159,-0.2713,0.1438,51
4.452,85,9.1272,0.0089,-16.2284,-0.2612,-0.1339,-0.5155,75,4.132,79,1.8922,1.4199,-10.1828,-0.0657,0.1493,0.0938,51
4.504,86,9.8307,0.8843,-19.8491,-0.1093,0.5806,-0.2251,75,4.183,80,4.12,0.7182,-10.8748,0.6117,-0.5578,-0.5932,51
4.556,87,9.4036,2.8373,-22.4916,-0.3349,0.8576,-0.0642,75,4.235,81,8.1243,1.9319,-15.9181,0.948,-0.0601,0.0915,51
4.607,88,4.335,2.1488,-22.0162,-0.9105,0.959,0.2315,75,4.287,82,8.9132,6.5707,-16.0902,1.1961,-0.7103,0.4898,51
4.659,89,0.1121,0.5363,-19.038,-1.2584,0.0265,-0.2594,75,4.339,83,5.0534,10.0878,-12.5048,0.8447,0.1665,-0.314,51
4.711,90,-1.9575,-0.6931,-16.0114,-0.4421,-0.4568,-0.3245,75,4.39,84,4.8377,9.2862,-10.624,0.0989,-0.4667,-0.9005,51
