right_leg_timestamp,right_leg_index,right_leg_accel_x,right_leg_accel_y,right_leg_accel_z,right_leg_gyro_x,right_leg_gyro_y,right_leg_gyro_z,right_leg_battery_percentage,left_leg_timestamp,left_leg_index,left_leg_accel_x,left_leg_accel_y,left_leg_accel_z,left_leg_gyro_x,left_leg_gyro_y,left_leg_gyro_z,left_leg_battery_percentage
0.574,11,9.2288,-3.1238,-10.2182,-0.534,-1.3568,0.22,93,0.107,2,6.8878,4.8468,-11.7196,-0.8082,0.5043,0.4678,64
0.626,12,10.224,-3.4819,-10.3058,-0.8176,-1.6636,0.3377,93,0.159,3,5.2322,7.5013,-11.3561,-0.481,1.0524,-0.33,64
0.678,13,12.7277,-3.5309,-11.8182,-0.9893,-1.8876,0.4598,93,0.211,4,8.936,10.7669,-9.9341,0.3236,0.6312,-0.9122,64
0.73,14,14.5549,-4.7042,-10.2922,-1.3561,-2.0511,0.3771,93,0.263,5,9.7243,8.8039,-10.6976,-0.1167,0.2021,-1.2881,64
0.781,15,11.6339,-6.4851,-12.2503,-0.6618,-1.6955,0.2298,93,0.314,6,11.1742,7.4967,-11.3596,-0.0798,-0.0881,-1.0625,64
0.833,16,8.2521,-3.6,-13.8771,-1.012,-0.5591,-0.0648,93,0.366,7,13.2727,2.1408,-9.6749,0.143,-0.0916,-0.9134,64
0.885,17,0.8872,-6.3093,-16.9815,-0.1063,0.2703,-0.7213,93,0.418,8,10.4729,-0.6775,-7.913,0.779,0.0271,-1.338,64
0.937,18,0.1923,-4.9469,-16.4683,0.2815,0.1121,-0.4935,93,0.47,9,6.9006,-0.9682,-7.8139,0.4446,0.7047,-0.3191,64
0.988,19,-0.0514,-3.8127,-15.7262,0.3428,0.1179,-0.2109,93,0.522,10,5.5694,-2.3146,-10.4119,0.3282,0.6879,-0.038,64
1.04,20,0.5559,-2.8313,-14.7004,0.6479,0.0346,-0.0172,93,0.573,11,5.9239,3.6029,-15.5802,0.8892,0.9377,0.2454,64
1.092,21,1.4519,-0.192,-15.0175,0.3172,0.1025,-0.1565,93,0.625,12,9.0202,-1.3329,-19.1427,-0.0082,0.3568,0.3432,64
1.144,22,1.2055,-1.8386,-14.2945,0.6151,0.5748,-0.4283,93,0.677,13,9.4649,-0.6065,-16.2329,0.3357,0.1492,-0.3022,64
1.196,23,2.1764,-4.1024,-17.1958,0.4146,1.0979,-0.6206,93,0.729,14,9.0805,-4.043,-16.0433,0.9197,-0.1363,-0.4308,64
1.247,24,3.7311,-5.8145,-18.3749,0.9448,1.1464,-0.8742,93,0.781,15,6.6629,0.2456,-12.0491,0.5588,-0.3621,-0.2917,64
1.299,25,4.8837,-4.8996,-17.0896,1.3661,1.1797,-0.8765,93,0.832,16,4.3423,-0.7748,-12.7251,0.1076,-0.4274,0.0685,64
1.351,26,3.838,-2.65,-15.0012,0.3402,1.5393,-0.289,93,0.884,17,1.762,4.7267,-7.6486,-0.4448,-0.8018,-0.4248,64
1.403,27,3.7186,-1.5011,-12.3985,-0.0222,1.8018,-0.2815,93,0.936,18,6.007,4.1974,-10.8423,0.0635,-0.6442,-0.7422,64
1.455,28,7.0722,-2.6358,-10.9732,0.1564,1.9934,-0.5481,93,0.988,19,8.7138,3.4605,-10.4844,0.2858,-0.6716,-1.0948,64
1.507,29,9.1049,-6.2477,-11.7832,0.4064,2.1332,-0.6678,93,1.039,20,10.242,2.3363,-10.6696,0.5319,-1.1401,-1.4705,64
1.558,30,8.4148,-7.1769,-13.156,0.1965,1.9049,-0.3487,93,1.091,21,12.2528,4.2952,-8.2626,1.0629,-1.4989,-1.7446,64
1.61,31,11.4072,-3.7789,-12.99,0.7272,0.7169,-0.1954,93,1.143,22,13.3773,-0.069,-9.589,0.1269,-1.7608,-1.5448,64
1.662,32,12.9075,-4.4366,-13.126,0.3901,-0.0333,-0.3277,93,1.195,23,11.9655,-2.5865,-9.4282,0.7673,-0.9922,-0.4471,64
1.714,33,11.5983,-4.5158,-11.8616,0.1984,-0.2121,0.2468,93,1.247,24,11.6165,-1.3676,-9.8059,1.0941,-0.0392,0.354,64
1.766,34,10.7573,-4.2328,-11.3052,-0.0372,-0.6118,0.2353,93,1.298,25,12.4213,-0.1501,-11.3187,0.1215,0.6563,0.9387,64
1.817,35,9.9175,-4.0511,-10.027,-0.2626,-0.6388,0.4297,93,1.35,26,14.1829,5.1826,-11.6264,-0.1561,1.164,1.3655,64
1.869,36,9.0085,-4.0176,-10.8455,-0.644,-1.1131,0.54,93,1.402,27,10.4787,9.0451,-16.4666,-0.1504,0.4063,0.3252,64
1.921,37,10.8312,-3.6261,-10.6906,-1.0876,-1.4858,0.6539,93,1.454,28,9.0847,7.7233,-12.8835,-0.2019,0.7846,-0.4341,64
1.973,38,13.1708,-3.0658,-11.2067,-1.469,-1.542,1.054,93,1.506,29,8.8339,6.8976,-12.8618,-0.1284,0.8679,-0.5748,64
2.025,39,10.4964,-3.9355,-9.7987,-1.3276,-1.3638,0.401,93,1.558,30,9.4282,4.5878,-12.1373,0.1223,0.7665,-0.4912,64
2.076,40,8.0711,-2.5503,-9.7178,-1.0547,-0.3248,0.1616,93,1.609,31,8.8969,3.6615,-11.6597,0.3566,0.6095,-0.5506,64
2.128,41,6.8568,-3.3744,-10.974,-0.0932,0.4413,-0.1154,93,1.661,32,8.585,3.1068,-10.9901,0.3893,0.4356,-0.5221,64
2.18,42,8.4509,-2.9565,-13.9393,0.6085,1.0005,-0.3041,93,1.713,33,8.5928,2.6259,-10.9209,0.3055,0.2675,-0.5205,64
2.232,43,8.9194,-3.4653,-13.9798,0.1578,1.4085,-0.3532,93,1.765,34,8.5994,1.7193,-10.7261,0.1897,0.0836,-0.5421,64
2.284,44,8.6392,-4.0352,-14.9377,-0.2093,1.6583,0.0026,93,1.816,35,8.9511,1.5146,-10.8152,-0.0284,-0.2636,-0.7854,64
2.335,45,8.2784,-3.6817,-14.4124,0.5238,1.26,-0.051,93,1.868,36,9.7408,1.048,-11.0073,0.0177,-0.5806,-1.1405,64
2.387,46,9.0889,-3.257,-15.7621,-0.2187,0.9838,0.0592,93,1.92,37,11.3505,0.3537,-11.0518,0.0244,-1.0806,-1.5038,64
2.439,47,9.0625,-3.5113,-14.0808,0.1394,0.5584,0.1093,93,1.972,38,10.5776,3.3246,-10.933,-0.1626,-1.3432,-1.7689,64
2.491,48,8.7874,-3.5176,-13.3149,0.2922,0.2391,0.0797,93,2.024,39,7.5189,2.3614,-9.7811,0.1506,-0.8719,-0.8974,64
2.543,49,8.5002,-3.6369,-11.9995,0.2048,0.0744,0.3355,93,2.075,40,7.6366,1.6589,-9.8236,0.5824,-0.094,0.0254,64
2.594,50,9.1034,-4.9086,-12.618,-0.0769,-0.3214,0.2727,93,2.127,41,8.4315,0.9377,-10.4502,0.2297,0.6163,0.6989,64
2.646,51,8.8999,-4.3118,-12.381,-0.0452,-0.4987,0.185,93,2.179,42,9.9104,0.7372,-11.3603,0.2154,1.1348,1.1904,64
2.698,52,8.803,-3.8286,-11.5999,-0.0491,-0.4866,0.1756,93,2.231,43,10.3978,0.919,-12.3025,0.1734,1.4133,1.5492,64
2.75,53,9.4777,-4.1123,-11.7063,-0.2307,-0.7619,0.2265,93,2.282,44,9.8393,3.16,-12.6772,-0.5219,1.0773,1.6466,64
2.802,54,9.1843,-3.9258,-12.0313,-0.3663,-1.0674,0.2582,93,2.334,45,9.2007,4.5379,-11.8649,-0.8214,0.6087,0.7551,64
2.853,55,9.7188,-3.5816,-12.2587,-0.5221,-1.4127,0.2831,93,2.386,46,7.7967,3.5011,-11.4178,0.0501,0.607,-0.1203,64
2.905,56,10.5051,-3.7428,-11.787,-0.7429,-1.7044,0.3815,93,2.438,47,1.7123,1.0917,-9.2573,-0.5661,1.128,-0.7468,64
2.957,57,12.8882,-3.7717,-11.256,-0.9143,-1.9174,0.7146,93,2.49,48,3.2958,0.4807,-9.8243,-0.7535,1.2063,-1.2105,64
3.009,58,14.6722,-5.6625,-13.4295,-1.3425,-2.0728,0.9828,93,2.541,49,4.9724,0.9286,-10.3332,-0.5534,0.9842,-1.412,64
3.061,59,11.5543,-8.3838,-13.9988,-0.8866,-1.6492,0.6245,93,2.593,50,8.7463,0.5078,-10.9847,-0.3389,0.4592,-1.0777,64
3.112,60,8.1597,-4.9678,-14.5997,-0.119,-0.5533,0.2416,93,2.645,51,10.1461,-2.0193,-7.865,0.4126,0.4698,-1.2069,64
3.164,61,1.7864,-5.4614,-15.5289,-0.0255,0.272,-0.4704,93,2.697,52,8.3083,-4.0312,-8.2152,0.9758,0.5152,-1.2923,64
3.216,62,0.7099,-4.468,-14.9362,0.658,0.713,-0.3272,93,2.749,53,6.7344,0.2307,-5.5634,0.719,0.9209,-0.2628,64
3.268,63,0.406,-1.5174,-15.7408,1.1274,0.747,-0.2412,93,2.8,54,1.2697,1.5307,-9.8537,-0.1523,1.0395,0.4885,64
3.32,64,1.1206,-0.8878,-14.7345,0.6765,0.8401,-0.5721,93,2.852,55,0.7389,6.4093,-15.1729,0.0452,0.3575,-0.3074,64
3.371,65,1.8528,-0.6615,-12.9884,0.76,0.9452,-0.624,93,2.904,56,5.6566,3.0035,-14.7603,-0.1732,-0.1694,-0.2828,64
3.423,66,4.3099,-2.2257,-13.2492,0.8451,1.3682,-1.038,93,2.956,57,7.33,3.178,-13.3657,0.2441,-0.3105,-0.5062,64
3.475,67,8.4113,-4.6568,-13.8723,0.8095,1.6769,-1.4001,93,3.007,58,5.3056,4.0135,-12.5636,0.3925,-0.3625,-0.4133,64
3.527,68,10.9768,-5.3643,-14.1292,0.6658,1.9022,-1.4038,93,3.059,59,4.3525,1.8727,-13.3506,0.9612,-0.0231,-0.2447,64
3.579,69,7.8218,-3.399,-12.4853,0.2018,1.8728,-0.9244,93,3.111,60,4.6652,6.2208,-11.5942,0.5153,-0.5404,-0.2484,64
3.63,70,6.9919,-2.0547,-11.0496,0.8238,1.6648,-0.9663,93,3.163,61,6.2042,4.4164,-12.1689,0.6308,-0.7824,-0.3725,64
3.682,71,6.2529,-3.3414,-11.9729,-0.0294,1.8609,-0.3937,93,3.215,62,9.6454,2.847,-12.611,0.9758,-1.2378,-0.9371,64
3.734,72,9.8294,-0.3364,-11.3177,-0.0242,0.8403,-0.6457,93,3.266,63,12.1569,6.8876,-11.7248,1.3868,-1.5702,-1.3551,64
3.786,73,7.5617,-5.4826,-16.265,-0.6287,0.1859,0.0659,93,3.318,64,8.5975,8.4442,-13.3336,0.8066,-1.6301,-0.8481,64
3.837,74,8.9552,-4.3627,-15.1219,-0.6349,0.2089,0.3382,93,3.37,65,7.4888,6.9325,-12.4146,0.0274,-1.0804,-0.0832,64
3.889,75,8.6926,-3.3819,-11.3234,-0.6883,0.065,0.4604,93,3.422,66,6.6562,5.3994,-11.1982,-0.4572,-0.2277,0.6196,64
3.941,76,9.1441,-3.1804,-11.3453,-0.6808,-0.2899,0.4172,93,3.474,67,6.9398,5.2059,-10.6524,-0.5076,0.5188,1.1326,64
3.993,77,8.9939,-3.5639,-10.6848,-0.7862,-0.3698,0.4893,93,3.525,68,8.1135,6.8538,-12.112,-1.0476,1.0636,1.5069,64
4.045,78,8.3139,-4.5668,-10.195,-0.9167,-0.79,0.4278,93,3.577,69,10.6263,8.964,-14.6767,-0.7157,1.4612,1.7802,64
4.096,79,9.4119,-4.1908,-10.598,-1.2686,-1.028,0.4475,93,3.629,70,8.5091,8.9082,-17.3058,-0.666,1.4123,1.2222,64
4.148,80,9.6847,-3.0167,-11.6108,-1.0699,-1.4237,0.474,93,3.681,71,10.0562,5.6171,-16.7182,-1.1632,0.364,0.2422,63
4.2,81,11.112,-2.9645,-10.8448,-1.1835,-1.7125,0.6246,93,3.733,72,10.3009,3.3261,-17.0952,-0.7173,0.3364,-0.2046,63
4.252,82,13.2843,-7.4007,-11.5954,-1.539,-1.9232,1.0367,93,3.784,73,9.8091,3.4349,-15.2338,-0.6042,0.258,-0.5035,63
4.304,83,11.3736,-6.7452,-11.7305,-0.9321,-1.9066,0.5727,93,3.836,74,9.1488,3.5793,-13.3445,-0.1952,0.2895,-0.6098,63
4.356,84,8.014,-5.3867,-10.7094,-0.421,-0.7132,-0.2097,93,3.888,75,8.6114,3.56,-11.9325,0.0633,0.1213,-0.6244,63
4.407,85,6.8872,-3.597,-10.5838,0.2233,0.1578,-0.7363,93,3.939,76,8.8933,2.678,-11.5348,0.3334,0.0176,-0.6668,63
4.459,86,7.394,-3.9443,-11.3755,0.8395,0.7935,-1.0139,93,3.991,77,8.9234,2.8974,-11.2128,0.3482,-0.3131,-0.898,63
4.511,87,8.892,-6.919,-14.9908,1.2893,1.2575,-1.2817,93,4.043,78,9.569,2.7777,-11.2929,0.4864,-0.5974,-1.0862,63
4.563,88,8.811,-6.2434,-16.3512,0.9492,1.5961,-1.1102,93,4.095,79,10.3758,2.04,-10.6969,0.6965,-1.0187,-1.3802,63
4.615,89,7.6269,-6.4597,-17.9713,0.5692,0.8195,-0.7707,93,4.147,80,12.6121,1.7637,-7.6443,1.1679,-1.3559,-1.6787,63
4.666,90,9.7981,-5.2884,-17.3225,0.6776,-0.0163,-0.5314,93,4.198,81,11.9006,6.5771,-9.7375,0.8052,-1.6564,-1.8909,63
4.718,91,9.3167,-4.9822,-15.3782,0.4451,-0.1562,0.0631,93,4.25,82,8.8392,5.0299,-8.2992,0.7924,-0.5498,-0.767,63
4.77,92,10.4461,-4.7343,-14.1191,0.3271,-0.0089,0.2532,93,4.302,83,8.7448,4.3744,-8.5009,0.9657,0.2837,0.1206,63
4.822,93,9.9505,-4.3672,-12.3972,0.1559,-0.1765,0.3114,93,4.354,84,9.4247,4.3584,-9.5543,0.0278,0.892,0.7684,63
4.874,94,9.8927,-4.3813,-11.4722,-0.1598,-0.435,0.3687,93,4.406,85,10.6915,6.3517,-13.234,-0.0404,1.336,1.2411,63
4.925,95,10.0957,-4.2081,-11.4883,-0.4289,-0.9084,0.5085,93,4.457,86,8.4755,9.9279,-17.64,-0.5971,1.0211,1.2944,63
4.977,96,10.7044,-3.7674,-10.7042,-0.6668,-1.3364,0.7239,93,4.509,87,11.1349,1.949,-17.8193,-1.112,0.0784,1.1756,63
5.029,97,13.0783,-2.7337,-9.5079,-0.9653,-1.6488,0.8875,93,4.561,88,13.244,6.7146,-11.5715,-0.3389,-0.6095,0.1866,63
5.081,98,14.8109,-5.2189,-11.7949,-1.3797,-1.8767,1.3255,93,4.613,89,13.0165,6.0152,-12.4426,-0.2142,-0.8792,-0.232,63
5.132,99,11.7095,-9.046,-12.2355,-0.9012,-1.2838,0.8779,93,4.665,90,14.6173,4.5142,-11.6459,-0.0129,-0.9499,-0.1489,63
5.184,100,8.8117,-6.4895,-12.8071,-0.1067,-0.2869,0.0155,93,4.716,91,15.2097,0.9623,-7.8677,0.608,-0.4601,-0.399,63
5.236,101,2.8005,-6.6046,-13.2325,-0.4787,-0.025,-0.4101,93,4.768,92,13.6204,1.3996,-6.0725,1.1184,-0.196,-0.7313,63
5.288,102,2.3032,-5.5574,-14.0426,0.3271,0.5819,-0.2251,93,4.82,93,10.4357,-0.5305,-5.2602,0.5083,0.5419,-0.0123,63
5.34,103,1.6168,-3.7011,-14.0762,0.9153,0.5932,-0.3107,93,4.872,94,7.4126,0.887,-8.0342,-0.2428,0.7993,0.2201,63
5.391,104,2.5948,-2.9631,-12.5246,1.1691,0.5228,-0.7252,93,4.923,95,9.5116,5.9395,-13.8449,0.4975,0.8275,-0.0273,63
5.443,105,2.9075,-2.016,-11.7615,0.6824,0.8686,-0.8871,93,4.975,96,11.5417,5.7142,-14.8287,0.5581,0.5807,-0.3197,63
5.495,106,3.8976,-2.944,-12.3309,0.6306,0.7089,-1.187,93,5.027,97,12.6031,3.1883,-14.5052,0.9166,0.6268,-0.2818,63
5.547,107,8.1104,-4.9553,-11.8337,1.1368,1.1534,-1.5363,93,5.079,98,10.4177,2.511,-12.9224,1.2181,0.0659,-0.5067,63
5.599,108,10.8493,-7.264,-13.0665,1.1962,1.5202,-1.4375,93,5.131,99,8.1183,4.8731,-12.2478,0.9925,-0.3835,-0.6839,63
5.651,109,8.7137,-3.8957,-11.0358,0.9079,1.7563,-0.7301,93,5.182,100,6.9976,5.3295,-12.0747,0.692,-0.6818,-0.7196,63
5.702,110,7.2256,-3.4808,-12.0097,1.3392,0.879,-0.8919,93,5.234,101,7.2163,4.5828,-12.7127,0.8692,-0.6003,-0.7876,63
5.754,111,6.7851,-0.3386,-11.2416,1.4523,1.1064,-0.6518,93,5.286,102,7.291,4.6931,-11.8233,0.9171,-0.834,-0.9255,63
5.806,112,4.4075,-4.1848,-12.6873,0.951,0.3574,-0.1483,93,5.338,103,7.8564,4.7822,-12.3279,1.3441,-0.9284,-1.1488,63
5.858,113,4.3313,-5.4774,-17.2646,1.3706,-0.4126,0.2196,93,5.39,104,8.3542,5.0588,-14.74,1.6556,-0.9222,-1.1942,63
5.91,114,1.4975,-1.789,-15.8253,0.3251,0.1104,0.8261,93,5.441,105,9.6822,1.592,-11.9349,1.883,-0.6749,-1.3923,63
5.961,115,1.3539,4.0462,-12.9497,-0.0354,-0.0996,1.2768,93,5.493,106,9.9581,1.8682,-10.9235,2.049,0.1924,-1.0081,63
6.013,116,2.9524,1.5021,-11.5773,-0.0285,-0.4468,1.2663,93,5.545,107,9.589,3.0285,-12.343,1.8127,0.7209,-1.2631,63
6.065,117,5.3591,0.8208,-11.5183,0.1874,-0.6666,1.0397,93,5.597,108,9.0082,1.2264,-14.4015,1.9976,1.2063,-1.5933,63
6.117,118,5.6981,-0.3814,-11.1786,0.2704,-0.7643,0.8902,93,5.649,109,8.6051,3.3733,-14.5252,2.1306,1.5013,-1.8343,63
6.168,119,6.6705,-0.7033,-11.7002,0.8729,-1.1821,0.4894,93,5.701,110,8.4627,0.5902,-14.2313,2.0391,1.4865,-2.0101,63
6.22,120,8.0124,-0.6191,-11.1925,1.3136,-1.5361,0.0117,93,5.752,111,7.7235,-0.3358,-13.8391,2.1629,1.4842,-2.1385,63
6.272,121,7.0693,-1.1462,-11.0056,1.6353,-1.7945,-0.1686,93,5.804,112,9.6896,-1.0502,-11.9391,2.2533,1.52,-1.8599,63
6.324,122,9.0646,-5.7575,-8.3102,1.87,-1.7854,-0.6578,93,5.856,113,10.821,-3.7081,-10.7831,2.2454,1.6951,-1.1361,63
6.376,123,10.7019,-3.8062,-9.9009,1.3568,-1.2065,-0.546,93,5.908,114,10.7496,-2.9689,-10.8222,1.3563,1.647,-0.5417,63
6.427,124,9.9102,-4.8901,-10.2494,1.6425,-0.9425,-0.4426,93,5.96,115,10.1817,-1.9809,-11.1118,1.2228,1.5312,-0.2469,63
6.479,125,9.6253,-5.9134,-10.3008,1.8753,-1.0408,-0.3285,93,6.011,116,9.7569,-1.2533,-10.9834,0.9014,1.5419,0.1048,63
6.531,126,9.207,-4.8029,-9.7726,2.0452,-1.2024,-0.2449,93,6.063,117,9.6388,-0.971,-10.6436,0.9627,1.3201,0.1892,63
6.583,127,10.0285,-3.4526,-9.5229,1.9405,-1.1487,-0.354,93,6.115,118,9.4447,-1.1477,-10.4668,1.3773,1.2382,0.1846,63
6.635,128,9.3523,-3.8901,-9.6708,1.2333,-0.7092,-0.1358,93,6.167,119,8.9958,0.1315,-10.2771,1.353,0.9767,0.1,63
6.686,129,9.3723,-2.5487,-9.0939,1.1694,-0.6687,-0.0953,93,6.219,120,9.1039,0.2397,-10.1276,1.2034,0.7441,0.0455,63
6.738,130,10.0032,-1.361,-7.8721,0.8735,-0.3898,-0.0919,93,6.27,121,8.8707,0.4257,-10.114,1.1183,0.6126,0.0189,63
6.79,131,9.386,-2.0867,-8.1859,0.7095,-0.1781,-0.0503,93,6.322,122,9.0704,0.6151,-10.3808,0.8451,0.4416,0.01,63
6.842,132,9.3676,-2.1031,-8.3603,0.4429,-0.0329,-0.0038,93,6.374,123,9.0119,0.5381,-10.3162,0.6194,0.3837,0.0606,63
6.894,133,9.0633,-2.5139,-8.211,0.352,0.0314,-0.0206,93,6.426,124,8.9136,0.3716,-9.8583,0.3883,0.2311,0.0519,63
6.945,134,8.9357,-2.7399,-8.2282,0.1949,0.1097,0.0068,93,6.478,125,9.0389,0.3625,-9.9761,0.2434,0.1001,0.0193,63
6.997,135,8.7448,-3.0502,-8.0003,0.164,0.0899,0.0133,93,6.529,126,9.011,0.3741,-10.0337,0.1528,0.0442,0.03,63
7.049,136,8.882,-3.0371,-7.98,0.1194,0.0395,0.0181,93,6.581,127,9.199,0.2692,-9.7167,0.0911,-0.0325,-0.0217,63
7.101,137,8.8121,-3.071,-7.9665,0.1142,-0.0042,0.0307,93,6.633,128,9.0547,0.4494,-9.8062,0.0518,-0.0788,-0.0357,63
7.153,138,8.8975,-3.2203,-7.7736,0.1662,-0.0418,0.0202,93,6.685,129,8.8907,0.4725,-9.9871,-0.0082,-0.1599,-0.0605,63
7.204,139,8.8861,-3.1029,-7.7422,0.0967,0.0245,0.0444,93,6.737,130,9.0596,0.6451,-10.3405,0.0093,-0.1553,-0.0826,63
7.256,140,8.7673,-3.2454,-7.7019,0.1199,-0.0116,0.0525,93,6.788,131,8.9929,0.6665,-10.44,-0.0156,-0.1393,-0.0764,63
7.308,141,8.868,-3.1152,-7.5949,0.0842,-0.0027,0.0408,93,6.84,132,9.079,0.689,-10.374,-0.0175,-0.1156,-0.1048,63
7.36,142,8.8324,-3.0695,-7.7324,-0.0583,0.1197,0.0312,93,6.892,133,9.0133,0.6888,-10.4046,-0.0514,-0.1124,-0.0749,63
7.412,143,9.0474,-3.3055,-7.7152,-0.1692,0.2293,0.01,93,6.944,134,9.0614,0.6084,-10.3745,-0.0618,-0.0973,-0.0468,63
7.463,144,9.0885,-3.3811,-7.9569,-0.2308,0.2796,0.0227,93,6.995,135,8.9993,0.6403,-10.4343,-0.0808,-0.0888,-0.0031,63
7.515,145,8.9869,-3.3883,-8.2888,-0.1843,0.2286,0.028,93,7.047,136,9.0525,0.6945,-10.6158,-0.1422,-0.0729,0.0687,63
