right_leg_timestamp,right_leg_index,right_leg_accel_x,right_leg_accel_y,right_leg_accel_z,right_leg_gyro_x,right_leg_gyro_y,right_leg_gyro_z,right_leg_battery_percentage,left_leg_timestamp,left_leg_index,left_leg_accel_x,left_leg_accel_y,left_leg_accel_z,left_leg_gyro_x,left_leg_gyro_y,left_leg_gyro_z,left_leg_battery_percentage
0.645,12,8.6038,-1.5395,-11.4005,-0.2132,-0.6063,-0.7558,93,0.151,2,8.6058,-0.5891,-14.0751,0.3863,-1.349,0.8273,63
0.697,13,9.9224,-1.5001,-11.4622,-0.4305,-0.8079,-1.2155,93,0.203,3,10.1045,-1.1027,-14.1654,0.6471,-1.6513,1.2074,63
0.748,14,9.3596,-2.0866,-12.3433,0.2963,-1.1789,-0.9645,93,0.255,4,12.492,-0.9256,-13.7813,0.7642,-1.8528,1.4048,63
0.8,15,7.6555,-3.0052,-10.6035,0.8928,-0.8759,-0.8953,93,0.306,5,10.6678,0.3004,-12.0741,-0.1162,-1.3084,1.5513,63
0.852,16,8.7424,-3.1651,-10.1627,1.2935,0.0391,-0.3677,93,0.358,6,8.8241,-0.1882,-12.9518,-0.7619,-0.27,1.3919,63
0.904,17,9.8402,-2.9703,-10.2735,1.1671,0.7069,0.2482,93,0.41,7,7.8916,-0.9596,-14.8166,-0.0266,0.4879,0.6392,63
0.956,18,10.6374,-2.5288,-10.6902,1.3662,1.1943,0.7221,93,0.462,8,9.4648,-1.2072,-17.882,-0.602,1.0411,-0.2049,63
1.008,19,10.3047,-1.9815,-10.579,1.6737,1.5415,0.8464,93,0.514,9,7.5186,-1.8805,-19.3052,-0.9067,1.4448,-0.3489,63
1.059,20,10.1883,-1.1457,-12.5631,1.6995,1.2141,0.5226,93,0.565,10,4.6097,-3.5522,-17.539,-0.5931,0.8243,-0.3295,63
1.111,21,9.3728,-0.8536,-15.3169,0.9432,0.3662,0.1699,93,0.617,11,3.6196,-3.7142,-14.9153,-0.4166,-0.0652,0.2439,63
1.163,22,7.8329,-0.8036,-16.6634,0.0913,-0.4061,-0.0896,93,0.669,12,-2.8309,-0.8292,-14.1949,-0.626,-0.388,0.7865,63
1.215,23,6.2251,-2.5183,-18.1768,0.4314,-0.7084,-0.7394,93,0.721,13,0.1988,-1.3609,-15.415,-0.5124,-0.4579,0.5404,63
1.267,24,5.4843,-1.612,-16.1239,0.1352,-1.1904,-1.0856,93,0.773,14,5.2624,-0.577,-14.0254,-0.5306,0.1127,0.1392,63
1.318,25,6.2798,-1.0438,-15.5951,0.0195,-1.5233,-0.4399,93,0.824,15,5.3121,0.5795,-12.4815,0.198,0.7158,-0.2066,63
1.37,26,7.0087,-1.3092,-16.0679,0.2901,-1.2569,0.1364,93,0.876,16,3.4579,0.803,-13.6761,-0.0207,-0.0144,0.1993,63
1.422,27,10.381,-3.9823,-15.1894,-0.0676,-0.239,0.1929,93,0.928,17,2.0149,0.9986,-11.9993,0.2578,-0.13,-0.0308,63
1.474,28,9.729,-5.757,-14.2975,-0.7241,0.5012,0.0486,93,0.98,18,-0.0958,-1.0052,-10.8976,-0.0746,0.411,-0.4263,63
1.526,29,9.2782,-7.4673,-14.9361,-1.2037,-0.3076,0.1394,93,1.031,19,5.0474,-1.8653,-5.3458,-0.5514,-0.3668,-0.4511,63
1.577,30,9.8067,-5.8505,-14.323,-1.4351,-0.8979,-0.5722,93,1.083,20,5.4561,-0.5442,-10.3165,-0.4004,-0.7626,-0.1827,63
1.629,31,10.4169,-4.443,-14.2815,-1.426,-1.3287,-1.0861,93,1.135,21,9.0781,-1.2416,-11.8453,-0.0865,0.1284,0.0565,63
1.681,32,9.6953,-3.5605,-15.8709,-0.6096,-1.3946,-1.4234,93,1.187,22,7.4278,-0.7957,-11.0328,0.6112,0.7683,-0.3243,63
1.733,33,6.738,0.3923,-18.7292,-0.686,-0.3395,-0.9006,93,1.239,23,7.1199,-0.5848,-11.2711,0.363,0.1237,-0.0692,63
1.785,34,7.7792,2.3442,-18.0437,-0.2946,0.2117,-0.209,93,1.29,24,5.7342,0.7044,-8.5794,0.7598,0.6098,-0.4702,63
1.836,35,5.1707,3.3577,-17.6664,-0.4757,-0.3385,-0.3219,93,1.342,25,4.5186,-0.0166,-9.0781,0.3295,1.13,-0.6675,63
1.888,36,1.7586,2.3689,-15.0149,-0.676,-0.6143,-0.8434,93,1.394,26,8.4151,5.1522,-14.6068,0.517,1.0642,-0.8821,63
1.94,37,1.6517,1.76,-12.1789,-0.3451,-1.1209,-0.9217,93,1.446,27,8.0721,3.7092,-15.5224,0.0526,0.1099,-0.4007,63
1.992,38,2.5018,1.5044,-10.7403,-0.3309,-1.3152,-0.8911,93,1.497,28,7.6128,2.0613,-17.2869,0.1074,0.1823,-0.3573,63
2.044,39,2.6815,0.9141,-15.3323,-0.6279,-0.6617,-0.5413,93,1.549,29,10.6734,-0.0608,-14.2328,0.3462,0.3186,-0.7686,63
2.095,40,2.7096,3.1872,-19.1951,-0.1268,-0.0772,-0.6054,93,1.601,30,9.1199,-0.5453,-13.5333,0.2324,0.0404,-0.3878,63
2.147,41,5.7911,3.4982,-21.3446,-0.4599,-0.6234,-0.8504,93,1.653,31,8.1728,-1.5215,-9.2745,0.2791,0.5899,-0.5449,63
2.199,42,4.2968,3.2118,-21.0213,0.1817,-0.3843,-0.4446,93,1.705,32,7.6982,-0.0685,-9.2842,0.5593,1.1155,-0.9304,63
2.251,43,2.0492,3.4151,-17.6895,-0.1582,-0.0041,-0.4073,93,1.756,33,5.8358,-0.7647,-11.5512,0.5685,1.4955,-1.0331,63
2.303,44,2.0104,1.4114,-15.4137,-0.1504,-0.1748,-0.4281,93,1.808,34,9.3765,0.1631,-5.8228,1.0896,0.5062,-1.1591,63
2.354,45,2.1528,1.1299,-13.6975,0.5668,0.2636,-0.9272,93,1.86,35,10.2518,-3.0998,-8.2067,0.5281,-0.2974,-0.702,63
2.406,46,2.3769,1.6756,-14.602,-0.2563,0.8704,-0.7388,93,1.912,36,10.1503,-2.171,-10.1297,0.103,-0.0295,-0.8282,63
2.458,47,7.0005,-1.0754,-18.6621,-0.565,0.8095,-0.3418,93,1.964,37,11.0133,-0.2582,-11.1825,0.4301,-0.1014,-0.4443,63
2.51,48,6.0809,2.1346,-21.6253,-0.6207,0.2173,-0.5386,93,2.015,38,10.0377,0.285,-10.4767,0.9886,0.6061,-0.6115,63
2.562,49,5.8818,2.0616,-22.0589,-1.1282,-0.5148,-0.3759,93,2.067,39,6.6563,0.7754,-11.0247,0.945,0.0639,-0.2776,63
2.613,50,4.431,0.727,-18.6983,-0.5921,-1.0491,-0.8855,93,2.119,40,6.2164,0.3541,-8.8644,0.2127,0.0856,-0.2035,63
2.665,51,3.1173,0.8335,-15.0558,0.214,-1.4391,-1.24,93,2.171,41,4.7001,-2.0513,-9.8107,-0.5218,0.5954,-0.0599,63
2.717,52,2.6671,1.0714,-12.4822,0.3328,-1.424,-1.2302,93,2.223,42,2.1082,-1.5066,-11.8799,-0.4729,0.5791,0.4034,63
2.769,53,1.4742,1.3575,-11.6471,0.0384,-1.1227,-0.9249,93,2.274,43,-3.934,4.1926,-15.9881,-0.5958,-0.2442,0.9748,63
2.821,54,1.5867,0.3373,-12.6772,0.293,-0.2199,-0.8736,93,2.326,44,-0.6978,2.3491,-17.4327,-0.4667,-0.6759,0.7599,63
2.872,55,6.4238,3.6793,-17.2573,0.8904,0.5178,-0.9848,93,2.378,45,2.5666,2.7935,-17.6241,-0.2128,0.1917,0.6067,63
2.924,56,5.8584,5.6947,-19.5573,0.8142,1.0563,-0.8126,93,2.429,46,6.9905,-0.0084,-14.2583,-0.1628,0.5384,0.0498,63
2.976,57,5.389,7.308,-22.1164,-0.0809,0.1132,-0.7112,93,2.481,47,7.2075,0.3061,-11.9982,-0.2928,0.0368,0.2513,63
3.028,58,3.6775,4.565,-20.5217,-0.7343,-0.561,-0.4283,93,2.533,48,5.7919,1.0761,-8.8212,0.1464,0.5953,-0.208,63
3.08,59,1.8367,2.8513,-17.0052,0.0354,-0.4891,-0.9386,93,2.585,49,5.3723,1.6411,-8.9435,0.4527,1.1194,-0.7801,63
3.131,60,1.1308,2.4791,-13.8181,0.436,-0.4337,-1.111,93,2.637,50,0.8918,0.4278,-13.9627,-0.3467,1.502,-0.2868,63
3.183,61,1.8136,2.2286,-12.9187,-0.2763,-0.5292,-0.5106,93,2.688,51,-4.8217,3.401,-18.1718,-0.481,0.4294,0.4562,63
3.235,62,6.5199,0.2494,-14.2288,-0.6276,-0.8953,0.3049,93,2.74,52,-1.4435,2.6334,-18.6399,-0.4717,-0.3518,0.3542,63
3.287,63,7.1667,2.7706,-18.3897,0.2185,-0.144,-0.188,93,2.792,53,3.0445,0.9636,-17.7167,-0.1539,0.3757,0.4666,63
3.339,64,5.4014,6.7911,-21.4265,0.3798,0.2486,0.431,93,2.844,54,7.2087,0.2544,-15.8437,-0.0912,0.9372,0.1016,63
3.39,65,4.0174,7.4189,-23.1673,-0.1041,-0.4853,0.8515,93,2.895,55,7.0171,0.5659,-13.0154,0.0641,0.7978,-0.012,63
3.442,66,1.9054,6.0325,-20.2117,-0.0681,-0.5029,0.6794,93,2.947,56,6.597,1.5234,-9.268,0.3544,1.0028,-0.4809,63
3.494,67,-2.8498,5.3069,-15.3038,0.0012,-0.5181,-0.1782,93,2.999,57,5.7317,1.5665,-10.8881,0.8099,1.4169,-1.0224,63
3.546,68,-1.5409,4.0016,-12.8706,-0.0287,-0.9775,-0.5901,93,3.051,58,2.0406,-0.6619,-14.3225,0.19,1.297,-0.79,63
3.598,69,0.4025,3.0311,-12.2154,-0.1809,-1.3567,-0.6423,93,3.103,59,-3.0311,-1.1839,-18.4344,0.1906,0.2798,-1.0045,63
3.649,70,3.098,1.0565,-12.9838,-0.4538,-1.6635,-0.1352,93,3.154,60,-0.1091,-0.6482,-18.5135,0.1991,0.2761,-0.81,63
3.701,71,1.7566,2.8758,-17.481,0.3453,-0.5358,0.1339,93,3.206,61,5.0377,0.4378,-16.4562,0.0154,0.8865,-0.3591,63
3.753,72,-1.1587,6.7437,-20.2166,0.9286,0.2873,0.7689,93,3.258,62,4.7421,3.0384,-12.6543,0.5632,0.6822,-0.2037,63
3.805,73,1.2584,7.3701,-22.7598,0.3207,-0.3043,0.1079,93,3.31,63,4.0617,2.6427,-11.647,-0.0718,0.1139,0.255,63
3.857,74,0.5406,5.6366,-23.8461,-0.4411,-0.107,0.5475,93,3.362,64,2.1351,1.6208,-10.0504,-0.3218,0.7503,0.1677,63
3.908,75,-0.1245,4.2343,-20.9222,-0.3746,-0.4131,-0.1282,93,3.413,65,0.3234,-0.9206,-11.9,-0.3596,1.2001,0.0667,63
3.96,76,0.5815,2.9062,-18.4224,-0.731,-0.9749,-0.3878,93,3.465,66,0.9167,4.6202,-16.6664,-0.1862,0.547,0.575,63
4.012,77,2.7139,1.198,-17.2212,-0.8459,-1.3849,-0.563,93,3.517,67,1.2356,3.9329,-18.2511,-0.4816,-0.2676,0.7347,63
4.064,78,3.5082,0.4869,-16.1532,-0.8331,-1.6842,-0.6973,93,3.569,68,6.0191,2.375,-17.1343,0.134,0.4897,1.086,63
4.116,79,2.4417,0.1422,-18.8239,0.0685,-0.654,-0.687,93,3.62,69,6.9515,1.6403,-13.9937,0.6632,1.038,0.575,63
4.168,80,0.1689,5.4557,-21.7434,0.7265,0.201,0.1764,93,3.672,70,6.0082,1.6433,-12.3788,0.2877,0.4047,0.652,63
4.219,81,-0.212,8.2018,-23.8742,-0.145,-0.3987,0.0725,93,3.724,71,4.5818,3.0937,-9.7918,0.4599,0.5494,0.0277,63
4.271,82,-0.4745,6.2036,-21.2818,-0.6518,-0.5633,-0.4006,93,3.776,72,3.19,1.1468,-9.4313,0.563,1.0859,-0.6512,63
4.323,83,0.0775,4.0513,-17.1807,-0.2899,-1.0484,-0.7126,93,3.828,73,1.709,-2.0603,-12.9316,-0.2662,1.4775,-0.4762,63
4.375,84,0.6479,3.2213,-15.5593,-0.0508,-0.762,-0.7818,93,3.879,74,1.7734,-4.2997,-13.1078,-0.4353,0.4116,-0.1816,63
4.426,85,0.3557,2.0327,-13.3741,-0.061,-0.5604,-0.389,93,3.931,75,4.7674,-3.1768,-14.6898,0.1298,0.9517,0.0061,63
4.478,86,-0.3035,2.0531,-12.6985,0.5184,0.096,-0.0205,93,3.983,76,8.5968,-5.8698,-12.6378,-0.5823,1.19,0.0568,63
4.53,87,-2.0806,4.8041,-17.2728,0.5066,0.7484,0.3623,93,4.035,77,6.6253,-1.4109,-12.8803,-0.2327,0.8654,0.1446,63
4.582,88,-2.5033,4.6419,-20.6113,-0.2109,1.1573,0.2962,93,4.087,78,6.241,1.9931,-12.1114,0.0178,0.3771,-0.1317,63
4.634,89,-1.454,4.4426,-21.7712,-0.2088,0.1712,0.5739,93,4.138,79,5.4552,-0.07,-11.1338,-0.6641,0.9602,-0.6312,63
4.685,90,-1.5125,3.1004,-18.3846,-0.4295,-0.0886,0.3174,93,4.19,80,0.1364,-2.4853,-14.4964,-0.4147,0.5217,-0.5106,63
4.737,91,-2.1264,1.9141,-14.8191,-0.2688,-0.1468,-0.4423,93,4.242,81,-5.3731,-0.8357,-18.5613,-0.8883,-0.2606,0.3077,63
4.789,92,-0.5656,1.2552,-13.1613,-0.798,-0.7806,0.3095,93,4.294,82,-2.3074,-0.7543,-18.9943,-0.6753,-0.7487,0.4104,63
4.841,93,2.3705,-0.0611,-15.1254,-1.2576,-1.2431,0.9036,93,4.345,83,1.587,-1.5364,-18.0426,-0.2569,0.1248,0.6135,63
4.893,94,0.6937,3.7896,-19.044,-0.2413,-0.2289,1.3264,93,4.397,84,6.2756,-0.1416,-14.3451,-0.2379,0.283,0.2396,63
4.944,95,4.3221,8.1177,-20.3592,0.4991,0.5113,1.2988,93,4.449,85,9.6975,-0.3469,-12.7418,0.431,-0.4602,0.0934,63
4.996,96,6.5942,9.8887,-21.3631,-0.058,0.2254,0.9669,93,4.501,86,5.4885,-0.7821,-9.6118,-0.0462,0.3491,-0.6032,63
5.048,97,4.4054,7.221,-20.4456,-0.3543,0.0634,0.6897,93,4.553,87,3.2744,-2.6307,-13.0156,-0.654,0.9397,-0.5986,63
5.1,98,2.6593,4.6096,-18.9858,0.2151,-0.2526,0.1506,93,4.605,88,-2.2169,3.3721,-17.4806,-0.0407,1.2716,-0.7349,63
5.151,99,1.8142,3.9372,-16.0751,0.6937,-0.5254,-0.2688,93,4.656,89,-1.733,2.8835,-17.2784,-0.4106,0.2613,-0.4268,63
5.203,100,2.2864,2.5627,-12.9749,0.5026,-1.0569,0.2366,93,4.708,90,0.2564,2.3307,-18.505,-0.3952,0.208,-0.5357,63
5.255,101,1.1154,3.3115,-14.8094,0.8663,-0.093,0.6313,93,4.76,91,5.3044,1.9095,-21.0679,0.3836,0.8368,-0.817,63
5.307,102,0.216,5.1061,-18.8134,0.3641,-0.4372,-0.1523,93,4.812,92,5.6007,0.5735,-17.2616,0.8206,0.5623,-0.7342,63
5.359,103,-2.3726,7.3477,-21.7358,-0.3944,0.1004,-0.355,93,4.863,93,6.0791,1.1128,-10.8251,0.6489,0.3991,-0.4776,63
5.41,104,-1.6123,6.0947,-21.7473,-0.9472,-0.5777,-0.9331,93,4.915,94,4.8052,3.3203,-10.5418,0.8393,0.9763,-0.3059,63
5.462,105,-1.2549,3.3309,-17.9054,-0.5857,-0.4269,-1.355,93,4.967,95,1.537,-0.5363,-13.968,0.4054,1.3975,-0.167,63
5.514,106,0.6238,2.9513,-15.7396,-1.0905,-0.9381,-1.2981,93,5.019,96,4.1124,-5.6882,-7.5867,0.5033,1.3037,0.2673,63
5.566,107,2.8912,-0.9278,-15.7826,-1.1621,-0.5507,-1.0319,93,5.071,97,3.6957,-5.3688,-13.5062,-0.2524,0.8858,-0.113,63
5.618,108,3.4981,-2.0173,-16.0281,-0.1785,-0.0164,-1.367,93,5.122,98,5.2089,-3.7444,-14.168,-0.1589,0.8104,0.3657,63
5.669,109,2.0246,1.3059,-19.7029,0.5463,0.6664,-1.207,93,5.174,99,8.919,-2.1223,-8.5093,0.3025,0.2206,0.2326,63
5.721,110,-2.0575,6.305,-22.3849,0.4953,0.9716,-0.87,93,5.226,100,8.8717,-1.0149,-6.454,-0.0194,-0.2532,0.7209,63
5.773,111,-2.363,5.5229,-23.8577,0.8014,0.7178,-0.5601,93,5.277,101,4.8559,-2.2682,-11.8049,-0.5086,0.1999,0.8724,63
5.825,112,-3.9582,7.3951,-20.2403,0.5247,1.0517,0.2393,93,5.329,102,3.496,-1.5389,-11.488,0.3035,0.8309,-0.0347,63
5.876,113,-2.3537,5.9602,-17.9156,-0.0669,0.0968,0.0324,93,5.381,103,-0.1097,-0.0384,-15.6481,-0.4556,1.2914,-0.2317,63
5.928,114,-1.2467,3.6529,-16.2701,-0.0872,-0.6028,-0.3314,93,5.433,104,-0.2665,-3.9579,-8.8129,0.1639,0.2757,0.1733,63
5.98,115,0.7568,0.2,-15.8006,-0.2942,-1.1133,-0.6649,93,5.485,105,2.0412,-2.8144,-11.5549,0.0944,-0.4656,0.0705,63
6.032,116,2.1197,-2.1267,-17.5024,0.3919,-0.818,-1.1439,93,5.536,106,4.1974,-2.0533,-13.143,0.065,0.2777,0.2513,63
6.084,117,1.221,3.4853,-20.7789,0.9625,0.0814,-1.0828,93,5.588,107,8.1808,-1.2986,-11.3752,-0.3213,0.6973,0.0828,63
6.136,118,-0.1908,7.8956,-23.1702,0.0273,0.7377,-0.1126,93,5.64,108,6.0374,1.4462,-9.8879,-0.2693,0.158,0.3064,63
6.187,119,-1.0557,7.4004,-24.4302,-0.6553,0.4796,0.379,93,5.692,109,5.4294,4.8564,-6.3368,-0.7358,0.4196,0.1377,63
6.239,120,-2.0297,3.2521,-21.6183,-1.1535,0.4912,-0.3968,93,5.744,110,4.3561,3.715,-8.892,-0.0023,0.9912,-0.2874,63
6.291,121,-0.9113,2.2398,-18.7214,-0.8743,-0.1797,-0.2859,93,5.795,111,1.1177,2.6294,-13.6369,-0.6787,0.8663,-0.0598,63
6.343,122,0.566,2.0703,-17.4028,-0.952,-0.626,-0.3979,93,5.847,112,-1.3361,6.1365,-15.121,-0.8085,-0.0345,-0.1979,63
6.395,123,0.5812,1.0732,-15.9956,-0.4665,-0.7611,-0.9585,93,5.899,113,0.8177,4.5148,-16.6144,-0.6433,-0.1287,-0.2562,63
6.446,124,-0.8962,-1.4674,-19.5152,-0.1492,-0.001,-1.3185,93,5.951,114,5.7141,3.4646,-16.2736,-0.5827,0.591,0.0189,63
6.498,125,-1.3346,2.832,-22.2479,0.5677,0.6776,-0.346,93,6.003,115,4.7579,1.7232,-12.7154,0.0203,0.9686,-0.3215,63
6.55,126,-2.5722,5.0149,-24.2424,-0.0526,0.4279,0.4252,93,6.054,116,3.799,0.9315,-11.2354,-0.6622,0.6053,0.3164,63
6.602,127,-2.9175,6.3333,-23.3395,-0.0914,0.5159,0.8523,93,6.106,117,3.6257,0.3264,-11.6514,0.1914,0.9369,0.2573,63
6.654,128,-2.5563,5.5781,-19.3684,-0.4281,-0.2969,0.0078,93,6.158,118,-1.147,1.1123,-12.7118,-0.4641,1.3688,0.2837,63
6.706,129,-0.0335,4.1905,-16.352,-0.7686,-0.8901,-0.6683,93,6.21,119,-2.4828,-4.485,-16.8199,-0.2022,0.3514,0.5765,63
6.757,130,2.3403,2.8553,-14.2624,-1.2362,-1.323,-0.626,93,6.262,120,-0.0346,-3.6665,-18.0692,0.0004,-0.0375,0.7044,63
6.809,131,3.0979,0.1074,-13.2503,-1.493,-0.5569,-0.6784,93,6.313,121,5.092,-3.6657,-18.3504,-0.2849,0.6576,0.8555,63
6.861,132,1.793,0.5345,-17.6756,-0.6879,0.2719,-0.7387,93,6.365,122,3.8306,-0.6443,-15.5464,0.1796,0.7479,0.6947,63
6.913,133,-0.3223,4.3698,-20.9053,0.1308,0.8768,0.1386,93,6.417,123,5.1183,-1.0912,-13.0939,-0.546,0.1416,0.9225,63
6.964,134,-0.9414,3.6701,-23.2625,0.7719,0.1933,-0.1427,93,6.469,124,3.6992,-0.4561,-10.5045,0.111,0.7865,0.328,63
7.016,135,-0.3575,2.3254,-23.2048,-0.1119,-0.5323,0.0176,93,6.521,125,0.3605,-1.2183,-14.9272,-0.5961,1.218,0.395,63
7.068,136,-1.2011,0.7426,-20.3838,0.4809,-1.0619,-0.1554,93,6.572,126,-5.1677,-5.5115,-18.8757,-0.2732,0.3859,0.9624,63
7.12,137,-0.1552,1.3753,-17.7627,0.8194,-1.4484,0.4737,93,6.624,127,-0.9475,-4.6461,-18.1991,-0.2791,-0.3526,0.5026,63
7.172,138,2.9966,0.2321,-14.9218,0.5643,-1.7305,0.825,93,6.676,128,1.4883,-4.0717,-17.3975,-0.2679,0.2376,0.2503,63
7.223,139,-0.7319,0.6705,-16.1977,1.0457,-0.5847,0.7675,93,6.728,129,4.7176,-3.2239,-16.1381,0.0564,0.5633,-0.2354,63
7.275,140,-0.6902,3.8142,-19.8267,0.088,0.2517,0.6835,93,6.78,130,5.642,-1.6647,-14.9923,0.1372,0.8778,-0.3409,63
7.327,141,4.762,6.4567,-17.3339,-0.5332,0.862,1.1766,93,6.831,131,6.2883,-1.3207,-13.6241,0.1037,0.8152,-0.3776,63
7.379,142,5.6696,2.5197,-17.0021,0.1199,1.3075,1.5365,93,6.883,132,7.0892,-0.8875,-12.8283,-0.0417,0.488,-0.3253,63
7.431,143,7.6402,1.8762,-17.6079,0.7641,1.6326,1.7758,93,6.935,133,7.7642,-0.1223,-12.8647,-0.1778,0.1165,-0.1692,63
7.482,144,6.9227,2.2274,-18.1245,1.2342,1.7288,1.8877,93,6.987,134,8.1333,-0.2352,-13.0715,-0.1695,0.1907,-0.121,63
7.534,145,10.3182,-2.5047,-21.233,0.5334,0.853,0.8323,93,7.039,135,8.1245,0.0792,-12.6777,-0.1051,0.346,-0.1641,63
7.586,146,6.9774,-0.3761,-23.5016,0.4951,0.0369,0.2819,93,7.09,136,8.1496,0.2976,-12.2331,-0.1497,0.3181,-0.1094,63
