right_leg_timestamp,right_leg_index,right_leg_accel_x,right_leg_accel_y,right_leg_accel_z,right_leg_gyro_x,right_leg_gyro_y,right_leg_gyro_z,right_leg_battery_percentage,left_leg_timestamp,left_leg_index,left_leg_accel_x,left_leg_accel_y,left_leg_accel_z,left_leg_gyro_x,left_leg_gyro_y,left_leg_gyro_z,left_leg_battery_percentage
0.002,0,9.755,0.0953,-10.9124,0.0268,-0.7046,0.073,90,0.345,6,8.6298,1.3849,-11.6126,0.0009,-0.3366,0.0985,63
0.053,1,9.5845,-0.2412,-10.9531,-0.2341,-0.6651,0.105,90,0.397,7,8.4553,1.2795,-11.289,0.1361,-0.4586,0.1025,63
0.105,2,9.8588,-0.2275,-11.81,0.1339,-0.4979,0.1727,90,0.449,8,8.4539,1.4254,-11.5337,0.2207,-0.6921,0.1407,63
0.157,3,9.8846,-0.2159,-11.7682,0.0894,-0.5835,0.2552,90,0.501,9,8.5716,1.6425,-12.1936,0.4012,-1.0601,0.2536,63
0.208,4,9.7055,0.0867,-11.5721,-0.0738,-0.8241,0.2581,90,0.552,10,11.3733,2.2557,-12.1091,0.4601,-1.4405,0.4103,63
0.26,5,8.0464,0.9006,-14.1355,0.4811,-0.9919,0.1993,90,0.604,11,13.418,1.7343,-14.9847,-0.009,-1.7181,0.5617,63
0.312,6,10.3196,0.1882,-13.6852,0.5909,-1.1642,0.2817,90,0.656,12,13.0278,1.0976,-16.3261,0.1442,-1.9208,0.5912,63
0.364,7,7.225,-0.9295,-14.648,0.681,-1.3782,0.2952,90,0.708,13,7.7213,1.5768,-16.287,0.5008,-1.7529,0.5968,63
0.416,8,8.6272,-1.05,-15.5425,0.5226,-0.994,0.4983,90,0.76,14,2.3299,0.1177,-15.3499,0.0101,-1.6508,0.5607,63
0.467,9,10.3995,-1.3777,-16.1966,0.0572,-0.5181,0.38,90,0.811,15,-0.5393,-0.924,-14.1024,0.1637,-1.49,0.6487,63
0.519,10,12.8558,-1.6877,-11.7618,-0.4649,-0.2984,0.073,90,0.863,16,-0.6327,-0.7889,-13.5655,-0.1284,-1.3856,0.8566,63
0.571,11,14.4851,-1.4934,-10.0724,-0.5305,-0.8663,0.215,90,0.915,17,3.5036,0.073,-13.6438,-0.2956,-1.4606,0.8594,63
0.623,12,10.5008,-0.0077,-4.7672,-0.2282,-0.1232,0.3561,90,0.967,18,7.6743,1.951,-17.6435,-0.0862,-1.7328,0.6623,63
0.675,13,9.5024,0.7839,-6.0357,-0.5216,0.5884,0.3002,90,1.019,19,9.1312,1.2973,-20.7352,-0.3935,-1.1888,0.5556,63
0.726,14,5.3747,1.4773,-12.41,0.0482,1.1078,0.0158,90,1.07,20,6.0062,0.6085,-23.1146,-0.5256,-0.2803,0.4698,63
0.778,15,9.1884,6.4301,-8.4398,0.458,0.1377,-0.2255,90,1.122,21,-1.089,0.0056,-22.57,0.2879,0.4331,0.2757,63
0.83,16,10.0372,4.2897,-11.8596,0.5044,-0.4121,0.1181,90,1.174,22,-6.2674,0.0411,-19.871,0.2004,-0.059,0.4497,63
0.882,17,12.3205,2.5676,-13.3332,0.1394,-0.3732,-0.0674,90,1.226,23,-7.2641,-0.0126,-17.5607,-0.27,-0.6468,0.5095,63
0.934,18,14.2578,1.5403,-8.525,-0.5052,-0.37,-0.1151,90,1.277,24,-5.4034,0.0694,-16.4414,-0.448,-0.8524,0.3851,63
0.985,19,14.1141,2.3342,-4.4368,-0.4912,-0.9434,0.029,90,1.329,25,0.8101,-0.2209,-17.4476,0.292,-0.96,0.1925,63
1.037,20,11.8216,2.8335,-0.6541,-0.662,-0.0573,0.4335,90,1.381,26,5.7085,1.5702,-20.3379,0.1628,-1.2948,0.2001,63
1.089,21,11.8428,3.2122,-4.2907,-0.3742,0.6365,0.7026,90,1.433,27,5.4992,0.5212,-21.8499,-0.2009,-0.5281,0.3034,63
1.141,22,7.1293,5.1609,-11.1364,0.077,1.1429,0.293,90,1.485,28,2.8499,0.1499,-23.9282,-0.6772,0.2995,0.2978,63
1.193,23,10.4691,9.1185,-5.5438,-0.2464,0.1607,0.7281,90,1.536,29,-3.3926,-0.3991,-25.1383,0.0673,0.9036,0.2587,63
1.244,24,12.9065,10.1508,-7.9136,0.3508,-0.5561,0.9154,90,1.588,30,-7.9487,0.0217,-23.2342,0.4294,0.778,0.5265,63
1.296,25,13.8993,5.6572,-10.5953,-0.1115,-0.7622,0.4044,90,1.64,31,-8.704,0.8747,-20.8998,0.0085,0.0796,0.7214,63
1.348,26,15.41,4.1431,-7.1911,-0.3372,-0.6627,-0.0661,90,1.692,32,-6.7775,0.7332,-18.552,-0.4291,-0.474,0.6187,63
1.4,27,11.811,2.8311,-5.1979,0.0372,-1.0109,-0.0473,90,1.743,33,-7.2414,-1.296,-18.8713,0.0995,-0.3171,-0.198,63
1.452,28,9.9569,3.0381,-1.2096,0.5948,-0.1511,0.1079,90,1.795,34,-0.1678,-1.6581,-19.242,0.1433,-0.812,-0.4058,63
1.503,29,10.1451,2.6141,-3.5554,-0.1478,0.5681,0.338,90,1.847,35,4.3946,-0.6866,-21.5356,-0.3871,-0.3257,0.0337,63
1.555,30,6.517,7.2598,-9.8822,-0.7831,1.093,0.3963,90,1.899,36,3.238,-0.7924,-23.6988,-0.9575,0.4473,0.3529,63
1.607,31,2.8326,0.0615,-15.2174,0.105,0.7967,0.3463,90,1.951,37,-0.9782,-1.1796,-25.2776,-0.0592,0.9088,0.2702,63
1.659,32,5.3229,1.3722,-19.1112,0.363,-0.0657,0.2453,90,2.002,38,-6.1866,0.0297,-22.658,0.5592,0.6029,0.3651,63
1.711,33,7.6635,0.5366,-19.0433,-0.0959,-0.4505,0.2949,90,2.054,39,-9.0148,1.0072,-19.4704,0.3768,-0.2158,0.6456,63
1.762,34,10.8589,0.3596,-14.6963,-0.5324,-0.4518,0.0825,90,2.106,40,-8.5771,1.1758,-17.001,-0.3785,-0.8243,0.69,63
1.814,35,13.1911,-4.9746,-13.2753,-0.9866,-0.8739,0.1523,90,2.158,41,-2.35,-0.5801,-17.4768,-0.6509,-1.2684,0.1254,63
1.866,36,11.2355,-4.557,-7.1048,-0.3914,-0.6634,0.3772,90,2.21,42,3.4021,2.3087,-18.7665,-0.4167,-1.5458,-0.5619,63
1.918,37,10.3573,-2.8833,-3.8147,-0.5925,0.1942,0.7772,90,2.261,43,5.8522,3.7692,-20.7571,-0.3061,-1.1402,-0.4216,63
1.97,38,9.9669,1.4716,-6.4779,-0.7949,0.8201,0.991,90,2.313,44,3.9749,2.8359,-23.1307,-0.4646,-0.1472,0.0367,63
2.021,39,3.9732,1.5415,-12.7328,-0.017,1.2769,0.188,90,2.365,45,2.416,1.8845,-24.863,-0.7817,0.5776,0.2935,63
2.073,40,-2.4244,5.2676,-17.2978,0.307,1.2724,0.477,90,2.417,46,-3.7093,2.2605,-25.139,-0.1489,0.7477,0.1183,63
2.125,41,1.9323,3.2788,-17.6974,0.1426,0.3803,0.5627,90,2.468,47,-8.0709,1.7646,-21.5744,0.3446,0.0093,0.1332,63
2.177,42,6.676,1.1737,-16.4902,-0.1059,-0.0095,0.0388,90,2.52,48,-7.9533,1.7016,-18.1298,0.2019,-0.66,0.1717,63
2.228,43,10.1382,-1.9259,-11.68,-0.4431,-0.4303,-0.2537,90,2.572,49,-5.4208,1.3507,-16.3007,0.3026,-1.1485,-0.0577,63
2.28,44,12.665,-5.8826,-8.524,-0.9442,-0.9875,0.327,90,2.624,50,-0.079,0.5893,-16.3021,0.8746,-1.2439,-0.6189,63
2.332,45,11.334,-4.3239,-3.6371,-0.0126,-0.183,0.7895,90,2.676,51,4.2265,1.6644,-18.2274,0.3581,-0.9818,-0.6871,63
2.384,46,11.107,-1.8702,-4.7751,-0.2849,0.5448,1.0749,90,2.727,52,3.3667,0.9154,-21.2843,-0.1214,-0.0316,-0.0901,63
2.436,47,8.4393,3.9869,-11.4899,0.167,1.076,0.6873,90,2.779,53,3.4144,0.4455,-23.5154,-0.7636,0.6619,0.3701,63
2.487,48,11.4251,8.2617,-5.8018,0.4653,0.2397,0.1655,90,2.831,54,-0.4687,1.3675,-25.1438,-0.1761,1.1681,0.5699,63
2.539,49,13.6043,5.4274,-5.7151,0.6819,-0.4985,0.6234,90,2.882,55,-5.8147,2.0709,-22.5522,0.2194,0.4705,0.6771,63
2.591,50,14.2594,2.0237,-8.8055,0.1526,-0.542,0.3233,90,2.934,56,-7.1124,2.5156,-19.4842,0.1497,-0.3234,0.5693,63
2.643,51,15.6729,1.0956,-6.1617,-0.459,-0.6205,-0.0174,90,2.986,57,-6.0013,2.2072,-17.2559,-0.1783,-0.9028,0.2007,63
2.695,52,15.4477,0.5752,-3.8607,-0.427,-1.1003,0.0753,90,3.038,58,-1.7955,1.2574,-16.7339,-0.0756,-1.3257,-0.4623,63
2.746,53,13.029,1.5322,-0.2337,-0.0323,-0.4302,0.4764,90,3.09,59,3.8069,1.4367,-17.655,0.3635,-1.6175,-0.8495,63
2.798,54,11.5623,2.2163,0.1275,-0.6955,0.3643,0.8706,90,3.141,60,5.512,0.5427,-20.8666,-0.0426,-0.8055,-0.6198,63
2.85,55,10.2712,5.3543,-6.6891,-0.4211,0.9443,0.8208,90,3.193,61,4.2016,-0.385,-23.2105,-0.135,0.0971,-0.1599,63
2.902,56,7.4185,-1.3292,-12.8869,0.3692,1.2501,-0.0361,90,3.245,62,2.8652,-1.9104,-24.9212,-0.0699,0.7558,0.2189,63
2.954,57,0.0902,-6.2072,-11.6919,-0.4032,1.2501,-0.3625,90,3.297,63,-1.6936,-0.4632,-25.1674,0.212,1.1745,0.5048,63
3.006,58,5.1855,-5.491,-13.2919,-0.5903,0.5067,-0.1348,90,3.349,64,-5.527,0.1516,-21.1914,0.4904,0.6665,0.8326,63
3.057,59,9.0503,-3.9049,-12.3904,-0.4837,0.2408,-0.4234,90,3.4,65,-6.4556,1.1045,-18.5324,0.0764,-0.077,0.9582,63
3.109,60,10.5595,-4.3192,-9.4832,-1.0184,-0.1753,-0.3847,90,3.453,66,-4.5486,0.4959,-16.7961,-0.4393,-0.664,0.809,63
3.161,61,12.9195,-7.0164,-4.5817,-1.1552,-0.4662,0.1568,90,3.504,67,1.0802,-1.0715,-16.4621,0.0387,-0.9559,0.438,63
3.213,62,10.4902,-4.593,-1.4466,-0.8062,0.3381,0.3914,90,3.556,68,3.0594,1.5343,-19.9959,-0.1565,-1.1102,0.1136,63
3.265,63,9.8656,-1.699,-4.1035,-1.2636,0.9251,0.7955,90,3.608,69,3.196,1.9087,-22.5751,-0.4918,-0.1976,0.0013,63
3.316,64,7.0401,-0.1358,-10.9998,-0.8649,1.3535,0.576,90,3.659,70,4.1492,1.9258,-24.4575,-0.6186,0.5408,-0.0318,63
3.368,65,10.4039,5.1387,-5.4441,-0.9686,0.3145,0.9085,90,3.711,71,1.068,0.6063,-25.8314,-0.543,0.9414,0.1787,63
3.42,66,12.0821,9.0909,-11.9782,-0.2618,-0.4439,1.0738,90,3.763,72,-4.6931,-0.4432,-22.7615,-0.3226,0.549,0.6291,63
3.472,67,12.1618,3.8705,-13.0173,-0.6083,-0.5364,0.5901,90,3.815,73,-5.6345,-0.1511,-19.3139,-0.5019,-0.237,1.0956,63
3.524,68,14.142,2.1583,-10.4991,-0.7237,-0.4631,0.1036,90,3.867,74,-2.4529,-0.7265,-17.5646,-0.596,-0.7567,1.1433,63
3.575,69,14.9561,-0.0565,-6.9352,-0.7025,-1.007,0.2949,90,3.918,75,0.9544,-1.4521,-16.654,-0.1887,-0.9195,1.0291,63
3.627,70,12.1607,-0.6007,-2.4776,-0.3806,-0.2282,0.8701,90,3.97,76,3.168,-0.7961,-16.968,-0.0454,-0.9834,0.9265,63
3.679,71,11.7729,2.2245,-4.3533,-0.953,0.5118,1.3127,90,4.022,77,1.9524,1.0558,-19.785,-0.5996,-0.2966,1.1037,63
3.731,72,8.933,5.8222,-9.6066,-1.3708,1.0519,1.4711,90,4.074,78,1.6689,2.3494,-22.4212,-0.3524,0.4591,1.441,63
3.783,73,7.7306,9.6012,-15.0162,-0.3349,0.2724,0.9806,90,4.126,79,0.8473,3.3904,-24.3451,-0.7298,0.6759,1.6082,63
3.834,74,0.3217,2.7691,-11.7343,0.0895,-0.3199,0.4053,90,4.177,80,-1.1212,2.9316,-23.097,-0.7887,0.4157,1.7035,63
3.886,75,3.5724,0.632,-13.0601,-0.0637,-0.4781,0.3677,90,4.229,81,-3.4413,1.8393,-20.5556,-0.5541,-0.0015,1.7467,63
3.938,76,6.367,-0.7481,-13.4289,-0.2964,-0.2114,0.0649,90,4.281,82,-3.1398,0.815,-18.0065,-0.4845,-0.4593,1.808,63
3.99,77,9.3417,-2.164,-11.9704,-0.7429,0.0112,-0.0579,90,4.333,83,-0.6046,-0.0687,-16.6338,-0.2452,-0.7481,1.8246,63
4.042,78,9.2307,-3.4165,-10.4597,-1.2174,-0.2113,0.5873,90,4.384,84,2.8915,-1.6428,-16.4951,-0.1543,-1.002,1.8306,63
4.093,79,7.2104,-3.7346,-5.5879,-1.5637,0.1886,1.1063,90,4.436,85,2.8975,0.1074,-18.9697,-0.5061,-0.8666,1.9886,63
4.145,80,6.4959,1.4408,-6.1228,-1.8165,0.816,1.4852,90,4.488,86,2.359,1.44,-21.4498,-0.5752,-0.4272,2.1317,63
4.197,81,3.3586,5.966,-12.4736,-1.6701,0.3083,1.4112,90,4.54,87,2.4056,3.9536,-23.6362,-0.0733,0.0787,2.2362,63
4.249,82,7.717,8.3826,-15.7578,-0.918,-0.3873,1.1351,90,4.592,88,-0.2847,3.9632,-23.4271,0.0371,0.0593,2.3124,63
4.301,83,8.0244,5.9075,-17.3357,-0.6344,-0.5096,0.9678,90,4.643,89,-2.8587,3.2718,-20.6252,0.2857,-0.3117,2.3091,63
4.352,84,8.9711,2.7302,-17.2266,-0.7342,-0.0873,0.6107,90,4.695,90,-3.4913,2.4188,-17.858,0.1491,-0.7739,2.2833,63
4.404,85,11.8133,0.7055,-15.3552,-0.8564,0.397,0.2095,90,4.747,91,-2.64,1.5366,-15.8892,0.1684,-1.007,2.002,63
4.456,86,10.1761,-2.0024,-14.1618,-1.3003,0.3524,0.5503,90,4.799,92,-0.3652,0.5752,-14.6856,0.4041,-1.0029,1.5367,63
4.508,87,10.0389,-1.4441,-9.3352,-1.6242,0.2068,1.0671,90,4.851,93,2.5068,-0.1989,-15.6807,0.3914,-1.0202,1.1442,63
4.56,88,7.8867,0.8122,-7.0292,-1.8606,0.8293,1.2762,90,4.902,94,3.599,0.8946,-19.4256,0.0707,-0.3964,1.3801,63
4.611,89,7.1745,3.6889,-9.4965,-2.0332,1.2836,1.3476,90,4.954,95,3.9151,1.8866,-22.1589,0.0729,0.3957,1.6876,63
4.663,90,10.502,8.0442,-4.3469,-0.8074,0.2634,1.3904,90,5.006,96,1.9149,2.6763,-24.1537,-0.2109,0.9388,1.9121,63
4.715,91,11.3455,6.4173,-8.5426,-0.6071,-0.4664,1.3594,90,5.058,97,-4.0751,2.4012,-22.3948,-0.4329,0.5883,2.0633,63
4.767,92,11.6226,3.2763,-11.2379,-0.5649,-0.4103,0.9851,90,5.109,98,-7.035,1.4761,-19.3103,-0.0414,0.0258,2.0054,63
4.819,93,13.7484,0.8555,-10.9498,-0.5971,-0.268,0.5708,90,5.161,99,-6.2467,1.1804,-17.9084,0.0852,-0.5061,1.709,63
4.87,94,13.4382,-0.7661,-10.9779,-1.111,-0.4122,0.5943,90,5.213,100,-2.9274,0.4227,-17.2785,0.4412,-0.9788,1.0132,63
4.922,95,12.5238,0.9788,-5.4281,-1.0473,0.2263,0.9179,90,5.265,101,1.1497,0.6816,-17.7696,0.8079,-1.1053,0.4472,63
4.974,96,12.5529,2.6694,-4.0167,-1.1937,0.8435,0.794,90,5.317,102,-3.3472,0.1653,-19.9411,0.3621,-0.2878,0.2407,63
5.026,97,11.3198,-3.2888,-10.9365,-0.9878,1.294,0.4992,90,5.368,103,-6.1793,-1.913,-20.0299,-0.0391,0.2525,0.1181,63
5.078,98,11.567,-7.6373,-15.9868,-0.2236,0.271,0.8532,90,5.42,104,-6.5934,-3.3058,-21.4001,0.1705,0.5107,0.1523,63
5.129,99,9.6577,-8.2829,-16.0469,-0.3558,-0.017,0.7563,90,5.472,105,-5.4782,-2.1893,-21.4247,0.3768,0.3115,0.128,63
5.181,100,10.7647,-7.1006,-14.9653,-0.6874,0.1541,0.4708,90,5.524,106,-4.1284,-1.9253,-20.3357,0.6151,0.0276,0.1446,63
5.233,101,10.17,-5.2463,-13.9396,-0.7274,0.2936,0.1583,90,5.575,107,-3.3638,-1.3362,-19.205,0.7793,-0.1636,0.0945,63
5.285,102,8.6343,-4.1953,-13.7389,-0.6081,0.3066,0.0085,90,5.627,108,-2.9003,-1.1962,-18.323,0.5397,-0.2235,0.0882,63
5.337,103,8.151,-3.0822,-13.5128,-0.4132,0.2586,-0.0545,90,5.679,109,-3.3205,-1.9842,-18.013,0.2847,-0.088,-0.0048,63
5.388,104,8.7318,-3.3023,-12.7224,-0.2316,0.1682,-0.0658,90,5.731,110,-2.8059,-1.9178,-17.9469,0.3565,0.1452,-0.2326,63
5.44,105,9.0129,-2.6298,-12.4126,-0.2768,0.0898,-0.0643,90,5.783,111,-1.1985,-1.2973,-17.4637,0.2732,0.4911,-0.264,63
5.492,106,8.6779,-2.3989,-12.0485,-0.2603,0.0457,-0.0702,90,5.834,112,-0.3306,-0.8178,-17.4548,0.395,0.9969,-0.3569,63
5.544,107,7.9018,-2.9087,-12.5185,-0.1712,-0.0176,-0.0659,90,5.886,113,-0.8897,-1.1656,-15.5912,0.2196,1.279,-0.4094,63
5.595,108,9.8636,-1.7098,-11.8512,-0.0034,0.0449,-0.0676,90,5.938,114,-1.1835,-1.2188,-15.8642,-0.1634,1.5587,-0.4312,63
5.647,109,12.1896,-0.6903,-9.2803,-0.1974,-0.4001,0.1592,90,5.99,115,1.8117,-0.9833,-15.4318,0.1133,1.6049,-0.4611,63
5.699,110,14.1622,-1.6305,-8.8709,-0.2587,-0.9654,0.3146,90,6.041,116,4.2428,0.9225,-15.9913,-0.5944,1.4211,0.0253,63
5.751,111,5.012,1.9093,-3.8903,-0.6144,-0.0262,-0.2722,90,6.093,117,7.2473,2.1634,-15.1405,-1.1109,1.7222,0.333,63
5.803,112,5.4917,-3.8436,-10.8442,0.1583,0.4677,-0.1624,90,6.145,118,10.2554,2.6387,-17.9655,-1.4878,1.9419,0.3023,63
5.855,113,7.8361,-4.195,-13.4263,-0.0257,0.1045,-0.2411,90,6.197,119,9.1418,1.7028,-21.0932,-0.4112,2.1022,-0.0822,63
5.906,114,10.172,-3.3461,-13.4139,-0.1078,0.2751,-0.0466,90,6.248,120,7.9681,0.7674,-21.9717,0.1885,1.7675,-0.3358,63
