right_leg_timestamp,right_leg_index,right_leg_accel_x,right_leg_accel_y,right_leg_accel_z,right_leg_gyro_x,right_leg_gyro_y,right_leg_gyro_z,right_leg_battery_percentage,left_leg_timestamp,left_leg_index,left_leg_accel_x,left_leg_accel_y,left_leg_accel_z,left_leg_gyro_x,left_leg_gyro_y,left_leg_gyro_z,left_leg_battery_percentage
0.239,4,-0.7168,-1.9772,-1.9431,0.0748,0.0965,-0.1788,96,0.327,6,-0.2312,1.9283,0.3303,0.1011,0.1437,0.3794,64
0.291,5,-0.7186,-1.9983,-1.9589,0.0585,0.1245,-0.1575,96,0.379,7,-0.2007,1.8647,0.3056,0.1002,0.0736,0.3527,64
0.343,6,-0.7787,-1.906,-2.0782,0.0479,0.123,-0.1407,96,0.431,8,-0.1764,1.9522,0.2281,0.111,0.0333,0.3353,64
0.395,7,-0.7845,-1.933,-2.0834,0.0362,0.1408,-0.1209,96,0.483,9,-0.1112,1.9585,0.2994,0.1265,0.0122,0.3283,64
0.447,8,-0.8245,-1.859,-2.203,-0.0076,0.1411,-0.0807,96,0.535,10,-0.1686,2.0572,0.261,0.1341,-0.0177,0.3268,64
0.499,9,-0.899,-1.8176,-2.2341,-0.0493,0.1226,-0.0765,96,0.586,11,-0.1418,2.0144,0.0295,0.1525,-0.0374,0.3266,64
0.551,10,-1.1659,-2.4923,-2.3267,-0.0675,-0.022,-0.1399,96,0.638,12,-0.0949,2.0752,0.0248,0.1761,-0.0143,0.3398,64
0.602,11,-1.0842,-2.4893,-2.5248,-0.1341,-0.061,-0.5494,96,0.69,13,-0.2108,2.0747,-0.0236,0.1929,-0.0271,0.3504,64
0.654,12,-1.0967,-2.0319,-2.7027,-0.1655,-0.0957,-0.7236,96,0.742,14,-0.1114,2.0281,-0.1086,0.2,-0.0283,0.3546,64
0.706,13,-1.0578,-1.3389,-2.9159,-0.0661,-0.0873,-0.7015,96,0.793,15,-0.1265,2.0597,-0.1224,0.1982,-0.0425,0.3626,64
0.758,14,-0.8663,-0.923,-3.2435,-0.127,-0.1721,-0.6991,96,0.845,16,-0.1675,2.0833,-0.054,0.2334,-0.0856,0.3401,64
0.81,15,-0.6732,-0.3573,-3.4465,-0.077,-0.3039,-0.6848,96,0.897,17,-0.1083,2.08,-0.17,0.2463,-0.3831,0.2581,64
0.861,16,-0.7451,-0.2771,-3.4422,-0.0725,-0.4539,-0.7071,96,0.949,18,0.1705,2.4213,-0.3063,0.5265,-0.5568,0.1784,64
0.913,17,-0.7095,-0.0239,-3.3593,-0.3973,-0.937,-1.1707,96,1.001,19,-0.0115,2.8593,-0.272,0.602,-0.5469,0.1386,64
0.965,18,0.8592,1.5328,-5.6527,-0.8102,-1.2896,-1.5317,96,1.052,20,0.0621,2.7025,-0.0871,0.4235,-0.523,0.1484,64
1.017,19,3.1364,1.9297,-6.8813,-1.039,-1.1671,-1.1487,96,1.104,21,0.2995,2.6601,0.4339,0.4442,-0.4198,0.2232,64
1.069,20,3.6191,3.0886,-7.6724,-1.4116,-1.114,-0.8144,96,1.156,22,0.2778,2.3078,0.7057,0.5801,-0.0677,0.255,64
1.12,21,1.1059,2.9263,-7.476,-0.6,-1.0122,-1.2805,96,1.208,23,-0.0397,2.3909,0.338,0.5244,0.4237,0.2372,64
1.172,22,-3.8988,3.4949,-5.4195,0.2605,-0.4485,-1.6304,96,1.26,24,-3.5428,3.5115,-2.1511,-0.2346,0.8632,0.3779,64
1.224,23,-5.8806,3.4045,-6.1288,0.3015,-0.1701,-0.9673,96,1.311,25,0.1622,-2.4349,1.0514,-0.8091,-0.0109,0.2556,64
1.276,24,-6.6427,3.0118,-5.3775,-0.1308,-0.6896,-0.7828,96,1.363,26,1.7324,-2.4063,-1.3815,-0.5554,-0.6488,0.0364,64
1.327,25,-3.4328,2.4544,-5.3071,0.0161,-0.8357,-1.0862,96,1.415,27,2.107,-0.5332,-2.6204,-0.2453,-0.5839,-0.0796,64
1.379,26,-0.677,3.5779,-7.5934,0.1872,0.1361,-0.597,96,1.467,28,4.2856,1.971,-0.0646,-0.0563,-1.0372,0.1885,64
1.431,27,-0.7122,6.0433,-10.9325,0.8314,0.8453,0.1434,96,1.518,29,2.8882,4.4895,1.1976,-0.0126,-1.2706,0.3129,64
1.483,28,-2.8104,6.7541,-11.9696,1.0818,1.2945,0.4486,96,1.57,30,-1.7801,3.9669,4.6026,0.5376,-0.234,0.8493,64
1.535,29,-9.9461,9.6664,-11.8782,0.3337,1.6908,0.1992,96,1.622,31,-1.3017,4.4697,0.4171,0.2333,0.5401,0.9501,64
1.587,30,-11.2598,7.1939,-9.448,-0.2734,0.6282,0.2445,96,1.674,32,-4.6976,8.5484,-5.3829,0.6623,1.0185,0.9172,64
1.638,31,-10.6453,6.2247,-8.9627,-0.8528,-0.1472,0.692,96,1.726,33,-11.2706,11.5252,-9.6159,0.9021,0.4404,0.8533,64
1.69,32,-5.0745,-0.271,-11.5249,-1.2758,-0.163,1.161,96,1.777,34,-9.1936,10.4742,-8.6382,0.5063,0.6497,1.1069,64
1.742,33,-3.0536,-0.7415,-9.2045,-0.3533,0.1852,1.4097,96,1.829,35,-3.9621,6.8368,-2.0957,0.5431,0.1938,1.1502,64
1.794,34,0.4663,5.2337,-11.1311,0.4405,0.8812,0.4488,96,1.881,36,-0.1438,5.9502,2.4482,0.1611,-0.497,0.6329,64
1.846,35,-2.4021,8.8278,-11.923,0.2229,0.6894,0.1654,96,1.933,37,-1.0842,3.8162,6.6726,-0.2881,0.1583,0.5114,64
1.897,36,-7.4691,7.8645,-8.7782,-0.4768,1.2215,-0.5391,96,1.985,38,-4.9331,4.1014,0.8372,-0.7694,0.8264,1.006,64
1.949,37,-8.8975,4.4154,-6.4121,-0.739,0.2857,-1.0893,96,2.036,39,-5.6551,8.2796,1.2642,-0.6152,1.0741,0.7416,64
2.001,38,-3.7988,1.4973,-10.0703,-1.1927,-0.3604,-0.1391,96,2.088,40,-11.9694,11.329,-4.7647,-0.4059,0.481,0.7859,64
2.053,39,-4.6564,0.0415,-9.972,-1.055,0.0025,0.5544,96,2.14,41,-10.1838,11.1155,-5.1725,0.0274,1.0619,1.0876,64
2.105,40,-0.7035,0.814,-11.5446,-0.0716,0.3493,1.0605,96,2.191,42,-4.6847,5.8114,-1.1211,0.3464,0.823,0.9898,64
2.156,41,2.1815,5.8967,-11.3274,0.5946,1.001,1.4088,96,2.243,43,-0.8707,8.2446,1.6496,0.9667,-0.029,0.3846,64
2.208,42,-0.1386,8.3046,-12.2443,1.0842,1.4765,0.6883,96,2.295,44,-3.6112,5.9639,3.3699,0.7361,0.2031,-0.2934,64
2.26,43,-4.5441,9.8084,-11.0612,0.7914,0.9155,1.1583,96,2.347,45,-4.6007,3.8121,-3.0434,-0.1006,0.8591,-0.2854,64
2.312,44,-6.496,8.3622,-8.7726,0.0998,0.3115,0.1497,96,2.399,46,-3.9457,8.0685,-7.9085,0.2669,0.6119,-0.604,64
2.364,45,-6.0733,6.1517,-7.2388,-0.5805,-0.3784,-0.5632,96,2.451,47,-10.7218,11.175,-11.4593,0.9087,0.9761,-0.0003,64
2.415,46,-5.7489,1.8102,-6.3184,-0.9343,0.2881,-0.8634,96,2.503,48,-9.2311,9.6573,-9.3672,0.6268,1.0931,0.1922,64
2.467,47,-1.5008,-1.4571,-5.1281,-0.4048,0.0147,0.0258,96,2.554,49,-3.9894,7.1897,-3.3204,0.8397,0.5425,0.3755,64
2.519,48,1.5996,0.5642,-7.5974,0.189,-0.3388,0.6748,96,2.606,50,-0.8283,6.8463,-0.2964,0.5166,-0.2449,0.3493,64
2.571,49,1.394,3.1262,-7.5889,0.6509,-0.2503,0.8898,96,2.658,51,-3.5154,3.7137,2.0913,1.0909,0.4153,0.4927,64
2.623,50,-3.7933,8.0565,-4.397,1.1735,-0.1342,1.154,96,2.71,52,-5.6484,1.7582,-2.8942,1.2804,1.014,0.5652,64
2.675,51,-4.2375,8.2032,-2.193,0.5978,-0.1929,0.45,96,2.762,53,-9.4072,6.5694,-7.7996,1.3105,0.911,0.0351,64
2.726,52,-3.4954,5.8917,-1.0055,-0.1867,-0.1446,-0.3674,96,2.813,54,-9.9181,8.7339,-10.5215,1.576,0.3567,-0.0966,64
2.778,53,-4.5523,2.9056,-1.7619,-0.4185,0.5837,-0.964,96,2.865,55,-6.5937,8.8549,-8.7758,0.6318,0.2294,0.2519,64
2.83,54,-0.6275,3.6427,-6.5802,-0.3527,0.5878,-0.9065,96,2.917,56,-2.0645,6.3179,-2.2644,0.2838,-0.1354,0.5402,64
2.882,55,1.5739,6.0192,-7.8506,-0.1804,0.3018,-1.1743,96,2.969,57,0.1965,4.2563,0.9419,-0.4307,-0.6314,0.6196,64
2.934,56,-1.8985,6.1347,-6.5002,-0.0249,0.7589,-1.522,96,3.02,58,-1.0465,0.8724,4.3841,0.3983,0.1624,0.5823,64
2.985,57,-9.2806,3.2323,-10.1346,0.6066,1.2999,-1.8067,96,3.072,59,-6.8017,-1.3797,-0.828,0.0738,0.8294,0.6289,64
3.037,58,-8.5257,4.9822,-9.047,1.1412,0.343,-2.0144,96,3.124,60,-2.2163,4.2792,4.2973,0.7678,-0.0355,-0.1153,64
3.089,59,-6.0791,4.0337,-6.9678,0.2577,-0.2929,-1.412,96,3.176,61,1.1303,7.8926,3.9346,1.0964,-0.6668,-0.4335,64
3.141,60,-7.2212,3.714,-4.5857,0.168,0.4669,-1.6913,96,3.227,62,3.5728,5.9489,3.2725,0.1771,-1.1272,0.1052,64
3.192,61,-6.8664,8.4855,-8.7056,0.821,0.8828,-0.6452,96,3.279,63,4.3198,3.8841,4.6702,0.4144,-1.4046,-0.0196,64
3.244,62,-7.3097,11.968,-11.3756,0.4902,0.6088,-0.7166,96,3.331,64,2.2952,2.291,5.8815,0.1918,-1.142,-0.3494,64
3.296,63,-9.6831,10.8155,-9.5794,-0.0879,0.0283,-1.1568,96,3.383,65,-6.1555,0.7583,8.1721,0.8539,-0.1226,-0.0545,64
3.348,64,-11.9924,7.6248,-6.3331,-0.3091,-0.4077,-1.5401,96,3.435,66,-6.8693,1.9366,0.277,0.0136,0.6214,0.0206,64
3.4,65,-13.2689,5.3635,-4.9539,-0.2047,-0.9033,-1.8199,96,3.486,67,-2.2657,-3.8893,5.0958,-0.29,0.0822,0.4574,64
3.452,66,-11.1633,6.9068,-7.8278,-0.0591,-1.265,-1.4492,96,3.538,68,1.0943,1.8038,2.9502,0.0356,-0.5809,0.398,64
3.504,67,-9.0874,8.2386,-8.8654,0.6539,-0.1773,-0.557,96,3.59,69,3.5465,-0.8562,6.4375,0.0291,-1.0632,0.5385,64
3.555,68,-3.9375,11.7877,-9.6369,1.1757,0.5283,0.2494,96,3.642,70,5.3362,1.4351,8.3644,-0.1355,-1.4168,0.3818,64
3.607,69,-5.8516,14.3781,-10.8191,0.8128,1.1315,0.8379,96,3.694,71,2.8521,-0.6005,10.3689,0.45,-1.2574,0.3557,64
3.659,70,-10.6438,14.6556,-7.341,0.8405,1.5719,0.0548,96,3.745,72,-3.3212,-2.1109,11.1926,0.7059,-0.2068,0.4714,64
3.711,71,-12.8062,11.7939,-6.6705,-0.0399,1.2751,-0.6538,96,3.797,73,-3.4403,3.7456,2.4816,-0.1227,0.56,1.0111,64
3.763,72,-10.1661,9.3339,-4.5166,-0.6824,0.3249,-1.173,96,3.849,74,-1.6037,8.0199,6.7128,0.5136,-0.2262,1.1685,64
3.814,73,-7.5296,5.8429,-2.9294,-0.6082,0.6452,-0.2002,96,3.901,75,1.5774,7.1864,3.5789,-0.0557,-0.806,1.2269,64
3.866,74,-5.4437,10.0393,-4.5211,0.2546,1.2169,0.5098,96,3.953,76,1.9108,1.3123,6.0677,0.1722,0.0088,1.069,64
3.918,75,-4.6493,13.102,-8.6901,0.8842,1.6341,0.9729,96,4.004,77,2.6107,1.3182,6.9206,-0.5121,-0.382,0.5301,64
3.97,76,-9.628,12.9438,-7.9011,0.7983,1.7208,1.366,96,4.056,78,-1.3213,-0.8822,9.3989,-0.2048,0.4321,0.8215,64
4.022,77,-12.4409,9.2195,-8.7809,0.4658,0.8584,0.3011,96,4.108,79,-2.6022,2.7271,1.1724,-0.7873,1.0263,0.9049,64
4.073,78,-11.2979,8.5473,-8.4758,0.8959,0.0207,-0.4761,96,4.16,80,0.8486,-1.4469,5.7573,-0.1986,0.1082,0.2051,64
4.125,79,-5.5507,9.5353,-0.9875,0.1952,-0.5906,-0.5003,96,4.212,81,3.3672,1.2687,4.9508,0.1736,-0.5517,0.1374,64
4.177,80,-5.9915,8.5861,-3.6271,0.8047,0.3149,0.1388,96,4.263,82,5.2054,0.9494,6.2842,-0.3336,-1.0435,0.4474,64
4.229,81,-12.2678,12.0414,-8.0377,1.2857,0.3841,0.7573,96,4.315,83,4.427,0.323,8.0348,0.4704,-1.3232,-0.1262,64
4.281,82,-11.2929,13.7936,-11.2567,0.285,-0.3158,0.337,96,4.367,84,2.3663,-1.9418,10.7658,1.0572,-0.6699,-0.3713,64
4.332,83,-12.0389,11.6616,-11.2133,-0.4453,-0.8362,-0.4491,96,4.419,85,-2.4068,-0.6682,8.724,1.2408,0.222,-0.3271,64
4.384,84,-10.8631,9.5497,-10.2784,-0.9783,-1.2161,-1.0236,96,4.47,86,-4.5333,2.4552,0.6798,0.2677,0.8729,-0.0031,64
4.436,85,-8.5343,9.3939,-12.8921,-1.3673,-1.4933,-1.4325,96,4.522,87,-11.1507,7.0124,-5.1911,0.7768,0.3341,0.4368,64
4.488,86,-8.4872,7.4303,-9.4713,-0.3606,-0.3439,-1.4783,96,4.574,88,-7.9766,9.1535,-4.3473,0.6674,0.5836,0.699,64
4.54,87,-8.4588,11.1979,-9.1367,0.4353,0.495,-0.423,96,4.626,89,-5.587,2.854,1.7288,1.0635,1.1312,0.1,64
4.591,88,-8.1872,11.3043,-10.9412,0.9668,1.1073,0.3472,96,4.678,90,-4.5109,0.5464,5.9077,0.483,0.3816,-0.1927,64
4.643,89,-13.8703,14.0252,-13.1959,0.9574,1.5542,0.9093,96,4.729,91,-5.7109,-2.6017,9.2134,1.0664,0.9894,-0.2757,64
4.695,90,-15.3946,13.5364,-11.5767,0.932,0.9267,0.8903,96,4.781,92,-9.042,-0.3396,1.037,0.2086,1.433,0.1089,64
4.747,91,-14.6285,11.7327,-11.5732,0.9896,0.0706,0.2168,96,4.833,93,-14.4413,5.0384,-4.9304,0.8662,0.7429,0.5209,64
4.799,92,-7.9815,11.139,-13.0273,1.2866,-0.0449,0.4588,96,4.885,94,-10.117,4.4429,-3.681,0.287,0.8278,0.5743,64
4.851,93,-4.6094,9.9849,-10.0751,0.8655,0.7132,0.9689,96,4.937,95,-7.4998,-0.0128,2.2151,0.5783,0.4271,0.3397,64
4.902,94,-0.6692,7.652,-8.9763,0.8256,1.2666,1.363,96,4.988,96,-4.6199,-0.6552,6.5183,1.0293,-0.1695,-0.3037,64
4.954,95,-3.416,3.1709,-5.8609,1.301,1.6704,1.6507,96,5.04,97,-0.624,-0.6682,9.1504,0.6282,0.3753,-0.6674,64
5.006,96,-3.7665,5.7447,-9.668,1.648,1.9651,1.8607,96,5.092,98,-8.2975,-5.7904,8.0873,-0.0777,0.9848,0.2884,64
5.058,97,-0.054,9.9676,-12.4466,0.5494,0.8412,0.9877,96,5.144,99,-13.8979,-9.5288,0.2152,0.4069,1.3205,-0.0307,64
5.11,98,-2.9638,8.9283,-14.4745,0.9008,0.3691,0.651,96,5.196,100,-16.629,-5.6472,-4.2117,0.7519,1.3929,-0.4432,64
5.161,99,-3.0179,7.7333,-12.9684,0.0319,-0.1655,0.9933,96,5.248,101,-12.7487,-2.6231,-5.3417,1.0827,0.3892,-0.3366,64
5.213,100,-0.7937,5.9107,-10.7062,-0.63,-0.4312,1.3809,96,5.299,102,-7.7984,-0.9553,-5.9364,1.5041,-0.1479,-0.1804,64
5.265,101,-0.9463,4.0466,-8.3549,-0.7537,-0.4859,0.4684,96,5.351,103,-2.9437,1.1268,-6.0056,1.8117,-0.2571,-0.0819,64
5.317,102,-0.1446,0.1892,-7.5307,-1.2034,-0.9525,-0.1296,96,5.403,104,-0.3934,3.8223,-4.0434,1.2596,-0.794,-0.3349,64
5.369,103,1.8284,-3.2288,-4.8322,-1.5316,-1.2302,-0.7904,96,5.455,105,2.4607,3.5263,-0.3242,1.4111,-1.2204,-0.5593,64
5.42,104,2.8458,-4.0202,-6.4582,-0.4194,-0.5047,-1.2727,96,5.507,106,2.8387,2.791,-0.3453,0.9161,-0.5139,-0.4362,64
5.472,105,0.0319,-1.8656,-6.1918,0.0926,0.3777,-0.4782,96,5.558,107,1.3864,1.4478,-1.5655,0.0307,0.3358,0.2587,64
5.524,106,-0.2849,-1.0391,-4.053,0.2949,1.0216,0.3069,96,5.61,108,1.4482,0.2368,-3.3404,-0.1116,0.956,0.9658,64
5.576,107,-0.1946,3.4177,-8.3485,0.9137,1.4916,0.6958,96,5.662,109,3.8048,3.1677,-8.1253,0.1093,1.4086,0.6284,64
5.628,108,-1.8983,7.0373,-11.4836,1.3653,1.5517,0.1731,96,5.714,110,-2.275,7.4799,-11.6175,0.6221,1.739,0.6513,64
5.679,109,0.484,5.2293,-12.1693,0.8351,0.5267,-0.224,96,5.766,111,1.0875,2.1389,-13.5925,-0.1838,1.6421,-0.016,64
5.731,110,1.8176,5.1546,-9.5824,1.295,-0.057,-0.8249,96,5.817,112,3.5415,5.7157,-9.3135,0.2769,0.5576,-0.1585,64
5.783,111,2.2504,5.0142,-7.3435,1.6436,0.2058,-1.2942,96,5.869,113,2.1307,3.9443,-7.4638,0.3237,0.3591,0.1905,64
5.835,112,1.1397,4.3633,-6.4689,1.898,0.2433,-1.5654,96,5.921,114,0.0558,2.9416,-5.0419,0.9017,0.3185,0.2542,64
5.887,113,-0.2509,1.8622,-5.8571,2.0769,0.2897,-1.573,96,5.973,115,-0.7437,2.1241,-3.0973,1.372,-0.0291,0.0376,64
5.938,114,-0.6646,1.8817,-5.7384,2.1144,0.2177,-1.3137,96,6.025,116,-0.0489,3.5742,-1.8045,1.7153,0.1446,-0.0027,64
5.99,115,-0.5029,1.9719,-5.4862,1.7763,0.1734,-1.0322,96,6.076,117,1.7881,2.8588,-2.96,1.9658,0.7819,0.1422,64
6.042,116,-0.4807,1.2099,-4.9798,1.3465,0.1151,-0.9956,96,6.128,118,1.4229,2.8034,-2.5425,2.1486,1.2816,0.1311,64
6.094,117,-0.2117,1.9323,-4.2646,1.079,0.0581,-1.1614,96,6.18,119,0.947,1.3197,-2.8823,2.2821,1.6462,0.3095,64
6.146,118,0.5619,2.0967,-4.0584,0.7797,-0.2194,-1.3454,96,6.232,120,0.1603,0.8924,-2.2535,2.3794,1.6807,0.4118,64
6.197,119,0.2968,2.4,-4.2725,0.6756,-0.3525,-1.4956,96,6.283,121,-0.3586,0.5634,-2.0524,2.4505,1.446,0.5668,64
6.249,120,-0.5682,1.9526,-3.7975,0.6511,-0.1605,-1.3394,96,6.335,122,-0.6575,0.5253,-2.0976,2.5024,1.1636,0.8131,64
6.301,121,-1.797,1.7584,-3.0469,0.9341,0.2103,-1.0774,96,6.387,123,-0.6578,3.4723,-1.9423,2.201,0.8049,0.7087,64
6.353,122,-1.8235,2.2004,-2.6924,1.1666,0.7874,-0.5642,96,6.439,124,-0.3926,1.7847,-3.098,1.6655,0.3368,0.6081,64
6.405,123,-1.3117,2.3765,-2.676,1.2676,1.3207,0.0868,96,6.491,125,0.624,0.5669,-2.6364,1.3576,0.3714,0.5716,64
6.456,124,-0.3617,2.0902,-2.8415,1.5145,1.7099,0.6474,96,6.542,126,0.3542,1.0054,-1.8667,1.0931,0.382,0.4918,64
6.508,125,0.6995,2.0392,-3.0278,1.8026,1.994,1.0669,96,6.594,127,0.2733,1.0618,-1.0167,0.9249,0.2774,0.4726,64
6.56,126,1.5496,1.6169,-3.5491,1.9563,2.1447,1.2651,96,6.646,128,0.0928,1.6066,-0.7434,0.7909,0.0146,0.44,64
6.612,127,0.937,2.0756,-4.3407,1.851,1.9557,1.1066,96,6.698,129,0.1366,1.9077,-0.9079,0.7068,-0.0425,0.4687,64
6.664,128,0.1329,2.5684,-4.7762,1.5748,1.2785,0.612,96,6.75,130,0.1795,1.9502,-0.8061,0.6666,-0.0291,0.4963,64
6.716,129,-0.1582,1.8819,-3.8015,1.4179,0.572,0.2243,96,6.801,131,-0.026,2.1388,-0.7735,0.6068,-0.043,0.5397,64
6.768,130,-0.0009,1.6669,-3.4311,1.1015,0.1572,0.1228,96,6.853,132,-0.0439,2.0663,-0.7327,0.4973,-0.1032,0.5771,64
6.819,131,-0.1416,0.7378,-3.1457,0.6491,-0.0621,0.2179,96,6.905,133,-0.0761,1.9864,-0.9457,0.4071,-0.1642,0.6139,64
6.871,132,-0.0197,0.85,-2.58,0.5695,-0.1917,0.1416,96,6.957,134,0.0356,1.9041,-0.9563,0.3277,-0.2006,0.6709,64
6.923,133,0.0048,0.5345,-2.3217,0.4919,-0.1919,0.1305,96,7.009,135,0.0533,1.826,-1.2159,0.3248,-0.2385,0.72,64
6.974,134,-0.0987,0.3272,-2.2551,0.4506,-0.1735,0.0981,96,7.06,136,0.1375,1.6814,-1.4853,0.3332,-0.2117,0.8129,64
7.026,135,-0.0976,0.2773,-2.1393,0.381,-0.1314,0.0868,96,7.112,137,0.3245,1.5497,-1.6908,0.3324,-0.144,0.9736,64
7.078,136,-0.1301,0.1291,-2.1619,0.3262,-0.1026,0.0796,96,7.164,138,0.2871,1.2329,-1.7469,0.4621,0.0082,1.1016,64
7.13,137,-0.1252,0.0475,-2.2034,0.2721,-0.0468,0.0945,96,7.216,139,0.6126,1.1246,-1.5138,1.0039,0.2272,1.1634,64
7.182,138,-0.1625,-0.0669,-2.2864,0.2488,0.0248,0.1148,96,7.267,140,0.4256,0.7783,-1.3645,1.4466,0.4036,1.1333,64
