right_leg_timestamp,right_leg_index,right_leg_accel_x,right_leg_accel_y,right_leg_accel_z,right_leg_gyro_x,right_leg_gyro_y,right_leg_gyro_z,right_leg_battery_percentage,left_leg_timestamp,left_leg_index,left_leg_accel_x,left_leg_accel_y,left_leg_accel_z,left_leg_gyro_x,left_leg_gyro_y,left_leg_gyro_z,left_leg_battery_percentage
0.18,3,9.0467,1.3108,-11.4929,0.4069,-1.5678,-0.2501,86,0.072,1,7.2633,2.7234,-16.4231,0.1392,-0.2549,-0.3849,51
0.232,4,8.8382,1.6556,-12.2219,0.2394,-1.4678,-0.4924,86,0.124,2,10.4184,3.5546,-17.3228,0.4081,-0.4504,0.2499,51
0.284,5,8.7152,2.1098,-12.9197,0.2008,-1.2968,-0.3322,86,0.176,3,12.7211,2.7017,-13.8958,0.7094,0.1126,0.5365,51
0.335,6,9.6022,2.1558,-14.2122,0.4086,-0.8985,0.2207,86,0.228,4,14.4017,7.2639,-10.5607,0.748,-0.5846,-0.2799,51
0.387,7,12.2738,2.2889,-13.183,0.1107,0.0032,0.1799,86,0.279,5,13.1874,1.937,-9.9236,1.0045,-1.0934,-0.8757,51
0.439,8,10.3875,2.2267,-12.808,-0.4298,0.4081,0.2609,86,0.331,6,7.0809,1.274,-8.2223,0.0788,-1.2071,-0.9527,51
0.491,9,9.788,-1.549,-6.7638,-0.9889,0.301,0.8622,86,0.383,7,9.5223,-2.9634,-7.6302,-0.6196,-1.5478,-0.3492,51
0.543,10,5.7514,-1.0884,-6.5519,-1.397,0.898,1.1495,86,0.435,8,8.4894,-1.7254,-8.4068,0.1153,-1.7316,-0.1458,51
0.594,11,4.7406,-1.645,-9.4718,-0.4116,1.1817,0.9071,86,0.487,9,5.792,0.5861,-10.0692,-0.0616,-1.2085,0.4934,51
0.646,12,2.7187,-0.9746,-10.853,0.3761,1.2475,0.7191,86,0.538,10,5.0564,2.2051,-15.3301,0.1935,-1.4709,1.0404,51
0.698,13,6.4589,-0.4493,-12.6957,0.2734,1.0698,0.5313,86,0.59,11,3.3612,6.1235,-19.1698,0.6152,-0.3885,1.3989,51
0.75,14,7.8113,1.1523,-14.3805,0.4349,0.1085,0.5035,86,0.642,12,-0.0802,9.7613,-20.2656,0.7943,0.4014,1.3184,51
0.802,15,10.1424,0.6489,-15.1944,0.1741,0.594,0.3896,86,0.694,13,-5.5311,5.2175,-17.8176,0.2171,-0.085,0.2908,51
0.854,16,11.8559,1.3908,-9.9154,0.0765,-0.1309,0.7592,86,0.746,14,-4.8,2.9273,-14.4616,0.1517,-0.7288,0.0082,51
0.905,17,13.9187,-0.4288,-8.3295,-0.5114,-0.7689,0.9929,86,0.798,15,1.1643,2.3431,-14.0374,0.1801,-1.1987,-0.2081,51
0.957,18,11.5097,0.8938,-6.1839,-0.8709,-0.0362,1.1621,86,0.85,16,5.4205,2.1424,-15.3564,0.2967,-0.3087,-0.4808,51
1.009,19,7.5532,4.9405,-11.6393,0.0374,0.6519,1.4686,86,0.901,17,1.6079,3.7889,-19.1159,-0.0003,0.4596,0.3295,51
1.061,20,4.0327,5.0432,-16.4998,0.7038,0.8077,0.5795,86,0.953,18,0.7867,4.9641,-21.9328,0.2415,0.9257,0.9204,51
1.113,21,2.0088,-1.5563,-17.5996,0.261,-0.0839,0.9877,86,1.005,19,-0.539,8.9151,-22.8833,0.5716,0.1686,1.129,51
1.164,22,4.3777,0.2238,-17.6715,0.3358,-0.6918,0.9501,86,1.057,20,-1.9155,9.1542,-21.1953,0.4238,-0.1947,0.5684,51
1.216,23,8.4608,0.9467,-16.8603,0.176,0.1335,0.8239,86,1.109,21,-4.4652,7.3906,-17.0384,-0.2727,-0.5976,-0.023,51
1.268,24,10.8034,1.0419,-12.6256,-0.0876,-0.3297,1.0509,86,1.16,22,-3.5184,3.1803,-13.8625,-0.3261,-1.0908,-0.0982,51
1.32,25,11.4097,-0.4925,-11.4292,-0.6625,-0.9141,0.8869,86,1.212,23,0.2034,1.7564,-13.1358,-0.1481,-1.0231,0.0632,51
1.372,26,7.1407,-2.9934,-5.787,-1.1588,0.0112,0.9862,86,1.264,24,4.64,2.0862,-14.8072,0.1084,-0.347,-0.0339,51
1.423,27,4.1199,-0.0849,-7.4169,-0.2499,0.6866,1.3975,86,1.316,25,8.4747,5.7528,-18.1024,-0.0431,-0.3616,0.6099,51
1.475,28,2.495,1.2447,-13.4181,0.4941,1.0795,0.7549,86,1.368,26,8.7033,7.4073,-21.1931,0.0831,0.2317,0.5181,51
1.527,29,2.8732,-2.1457,-14.2195,0.0162,0.1145,0.2618,86,1.419,27,6.6296,7.1759,-21.5238,0.2863,0.1237,0.2018,51
1.579,30,5.812,0.2531,-14.7071,0.0613,-0.0929,0.2967,86,1.471,28,3.1554,5.2671,-16.0385,0.3081,0.4667,-0.0428,51
1.63,31,9.5076,-0.9998,-13.1421,-0.3099,-0.0678,0.4112,86,1.523,29,-1.8807,1.9704,-12.6415,0.3069,0.9444,0.1441,51
1.682,32,11.825,-2.1756,-8.0569,-0.9014,-0.7229,0.1345,86,1.574,30,-3.5864,2.6829,-14.3916,0.296,0.3275,0.4411,51
1.734,33,13.8962,-5.8861,-8.6374,-1.3138,-0.9551,0.3179,86,1.626,31,2.4998,2.3962,-14.9427,0.4485,-0.3172,0.4085,51
1.786,34,11.1015,-9.0291,-4.9132,-1.2308,-0.0187,0.9098,86,1.678,32,3.6036,3.0688,-16.0178,0.5,0.1793,-0.0619,51
1.838,35,8.9051,-1.245,-11.5725,-0.2217,0.6647,1.3417,86,1.73,33,-1.3257,4.0744,-19.6717,-0.0086,0.6982,0.4705,51
1.89,36,11.7651,4.4432,-5.8621,-0.4992,0.8256,0.4538,86,1.782,34,4.1497,4.2434,-15.5053,0.5852,-0.1572,-0.3109,51
1.941,37,13.8524,7.5157,-10.3228,0.31,-0.0358,0.4203,86,1.833,35,4.6161,4.98,-17.5267,0.4929,-0.6634,-0.4578,51
1.993,38,12.9668,7.0395,-12.3391,0.1818,-0.273,0.6759,86,1.885,36,1.5827,4.9533,-15.7776,0.5246,-0.9577,-0.8713,51
2.045,39,14.7295,5.6653,-11.7335,-0.3854,0.1252,0.5934,86,1.937,37,-0.9011,2.7503,-13.4492,-0.006,-1.162,-1.0607,51
2.097,40,16.016,3.9147,-7.8035,-0.9443,-0.582,0.3481,86,1.989,38,-1.4614,0.8637,-11.8716,-0.2743,-1.5149,-0.9422,51
2.149,41,14.1912,1.1529,-11.969,-1.3644,-1.0982,-0.2172,86,2.041,39,2.2556,0.0401,-11.1583,-0.2914,-1.2307,-0.6689,51
2.2,42,11.4208,-2.162,-8.7933,-1.5361,-0.1231,0.4142,86,2.092,40,5.944,0.5633,-11.6331,-0.2041,-0.4725,-0.8208,51
2.252,43,6.4514,-0.8949,-7.3658,-0.6709,0.5885,0.98,86,2.144,41,9.4555,3.209,-14.5987,-0.2978,0.3401,-0.0658,51
2.304,44,5.7241,-0.0349,-13.3808,0.1869,1.0891,0.6685,86,2.196,42,9.5064,5.5679,-18.6359,-0.3696,0.9332,0.073,51
2.356,45,-1.1465,-5.0394,-17.7708,-0.1997,1.1353,-0.1861,86,2.248,43,9.1149,6.6883,-21.5825,0.2026,0.679,-0.1442,51
2.408,46,1.8434,-1.0149,-15.8152,-0.0196,0.3928,-0.3331,86,2.3,44,5.4911,6.4199,-17.9185,0.5672,0.2945,-0.463,51
2.459,47,6.6112,0.4753,-13.4331,-0.2713,0.565,-0.0894,86,2.351,45,0.7195,3.8795,-13.6104,0.2587,0.5663,-0.4975,51
2.511,48,9.1109,-2.2826,-8.8999,-0.1762,-0.2611,0.0498,86,2.403,46,-1.6559,1.0849,-14.8835,0.2075,0.5958,-0.0685,51
2.563,49,11.3265,-3.8497,-7.7555,-0.7519,-0.8639,-0.1726,86,2.455,47,0.6499,1.4044,-14.2789,0.3075,0.2556,0.4777,51
2.615,50,10.3086,-3.5391,-6.364,-0.8763,0.0473,0.4573,86,2.507,48,4.8754,2.4405,-12.5508,0.3344,0.139,0.1397,51
2.667,51,5.9551,-3.4052,-5.2732,-0.6758,0.7129,1.0115,86,2.559,49,3.7093,7.0733,-17.1413,-0.2279,0.6161,0.531,51
2.718,52,9.612,-7.6292,-10.3374,0.1833,1.1986,1.416,86,2.61,50,3.0181,-0.1344,-20.4917,-0.7977,0.2174,0.2076,51
2.77,53,1.6911,-10.8052,-15.5496,0.341,1.218,0.38,86,2.662,51,6.481,2.0407,-21.0183,-1.1453,-0.2076,0.5852,51
2.822,54,4.9072,-4.2841,-14.7653,0.4974,0.2156,0.3182,86,2.714,52,6.1705,2.9041,-20.4303,-1.2405,-0.6633,0.2511,51
2.874,55,7.7982,-2.2726,-14.804,0.4381,0.5091,0.2792,86,2.766,53,2.2331,4.4525,-17.595,-0.7802,-1.0137,-0.2131,51
2.926,56,10.9572,-2.9878,-10.9983,0.3803,0.2052,0.6492,86,2.818,54,0.5709,3.2339,-14.6093,-1.2465,-1.041,-0.4681,51
2.977,57,13.2628,-2.5773,-5.5178,-0.1479,-0.5236,0.2428,86,2.869,55,1.7187,1.7742,-13.4376,-1.1797,-0.7702,-0.7956,51
3.029,58,11.4276,0.656,-11.957,-0.7832,-0.9073,-0.1048,86,2.921,56,4.578,0.6765,-13.4048,-0.9148,-0.3803,-1.1356,51
3.081,59,7.8026,-4.7583,-10.9225,-0.9462,-0.2311,0.6013,86,2.973,57,2.3437,1.5491,-13.9302,-0.5693,0.2644,-1.47,51
3.133,60,4.0641,1.8791,-9.9159,-0.0337,0.5097,1.1166,86,3.025,58,5.5875,2.1481,-16.3272,-0.6731,0.7469,-0.5753,51
3.185,61,8.2319,6.7233,-15.242,-0.3619,0.022,1.4927,86,3.076,59,6.6251,3.3814,-16.8662,-1.1683,0.7555,0.2605,51
3.236,62,8.421,4.9025,-9.1651,0.0274,-0.6573,1.3857,86,3.128,60,7.7925,4.7446,-17.5491,-0.7007,0.1828,0.4884,51
3.288,63,10.2904,5.2896,-11.4966,-0.0745,-1.0748,1.013,86,3.18,61,4.8742,5.0742,-15.0698,-0.5496,-0.0053,0.6987,51
3.34,64,12.7761,3.5406,-11.4809,-0.4109,-0.4426,0.9625,86,3.232,62,0.3197,4.5789,-12.3402,-0.4744,0.1929,0.7364,51
3.392,65,13.6546,0.7918,-8.4857,-0.3664,-0.9964,0.4426,86,3.284,63,-1.6925,4.1709,-11.6159,-0.4714,0.0958,0.5057,51
3.444,66,14.4086,-2.9306,-7.1151,-0.9426,-1.4006,-0.1796,86,3.335,64,1.4603,3.1482,-12.112,-0.2364,-0.0486,0.2055,51
3.495,67,15.2187,-7.3759,-4.2626,-1.3632,-0.8619,0.2308,86,3.387,65,5.818,1.7687,-12.7901,-0.1737,-0.2012,-0.3268,51
3.547,68,6.9737,-8.7166,-2.7667,-0.6473,0.0152,0.8462,86,3.439,66,8.2304,2.6815,-14.1555,-0.1755,0.1484,0.1287,51
3.599,69,7.782,-6.6708,-10.0242,0.2041,0.0225,1.2953,86,3.491,67,11.1242,5.371,-14.7665,0.4015,0.2455,-0.3125,51
3.651,70,0.5198,-10.1057,-15.321,0.7384,-0.3769,0.2731,86,3.542,68,12.3674,7.1017,-17.2973,0.5966,0.2379,-0.2608,51
3.703,71,1.8308,-4.7406,-15.4803,0.6645,-0.8451,-0.0963,86,3.594,69,9.223,6.2904,-16.5873,0.6934,0.1077,-0.3674,51
3.754,72,6.602,-1.6395,-15.321,0.3137,-0.5627,-0.1276,86,3.646,70,2.2315,5.0575,-14.5251,0.6052,0.1743,-0.2111,51
3.806,73,10.0842,-3.8277,-12.5408,0.276,-0.9933,0.0596,86,3.698,71,-0.86,3.9483,-12.9028,1.1157,-0.0307,0.0712,51
3.858,74,11.6847,-5.4525,-11.0546,-0.4738,-1.3983,-0.549,86,3.75,72,1.8237,3.8357,-12.5456,1.2674,0.1502,-0.1446,51
3.91,75,9.702,-6.9351,-5.4841,-1.0209,-0.6165,-0.3379,86,3.802,73,5.3075,2.0145,-11.8243,0.9436,0.1684,-0.7097,51
3.962,76,1.7757,-9.9206,-4.4043,-1.1696,0.0887,0.4311,86,3.853,74,8.991,2.1468,-11.8305,0.6467,0.6552,-0.2325,51
4.013,77,6.5617,-1.8886,-11.0311,-0.1771,0.6495,0.9924,86,3.905,75,11.0833,4.5913,-14.9293,0.6922,1.1608,-0.091,51
4.065,78,-0.5351,3.9735,-5.4669,0.1873,1.1197,0.0503,86,3.957,76,11.6163,4.6387,-16.8941,-0.0027,1.0196,0.055,51
4.117,79,4.8752,6.8479,-8.2111,-0.0531,0.1438,0.1303,86,4.009,77,8.68,4.1143,-17.0862,-0.3367,0.4284,0.0552,51
4.169,80,8.725,5.1817,-9.1907,-0.0695,-0.1985,0.1769,86,4.061,78,4.6446,2.8413,-16.3606,-0.7529,-0.0501,0.2911,51
4.221,81,11.6336,1.6569,-7.9597,-0.1081,-0.8182,-0.1327,86,4.112,79,2.1657,2.2477,-15.1393,-0.5932,-0.1994,0.4871,51
4.272,82,11.9953,-3.5294,-7.0502,-0.7541,-1.2436,-0.7709,86,4.164,80,5.1439,1.8794,-14.3757,-0.7214,-0.475,0.6633,51
4.324,83,11.9279,-7.8129,-2.5615,-1.2238,-1.1824,-0.4071,86,4.216,81,8.2031,1.3763,-13.6296,-0.3518,-0.8377,-0.0589,51
4.376,84,7.2076,-7.3281,-1.9082,-0.3889,-0.1999,0.3806,86,4.268,82,11.1043,0.7675,-13.3532,-0.552,-0.5125,0.0837,51
4.428,85,5.1625,0.0035,-9.3507,0.3927,0.3486,0.9555,86,4.319,83,13.2217,2.4117,-15.6967,-0.1569,0.0827,-0.0204,51
4.48,86,-0.2368,-5.2345,-13.9896,0.3692,-0.1021,0.6786,86,4.371,84,13.5285,3.1237,-17.3443,-0.1301,-0.0018,-0.1627,51
4.531,87,2.5752,-5.7564,-11.6861,0.0847,-0.0518,-0.152,86,4.423,85,9.2421,3.8778,-16.4223,-0.2968,-0.2948,-0.1911,51
4.583,88,7.1157,-4.7948,-11.9992,-0.001,-0.1709,-0.3316,86,4.475,86,2.6956,2.8758,-15.418,-0.7249,-0.3696,-0.1198,51
4.635,89,10.4591,-5.9518,-9.4543,-0.2212,-0.7981,-0.6394,86,4.527,87,-0.1221,2.2207,-14.2998,-0.3795,-0.9366,0.0544,51
4.687,90,11.5606,-8.7115,-8.0887,-0.802,-1.2409,-1.123,86,4.578,88,2.4726,2.3103,-13.176,-0.1583,-1.0557,-0.036,51
4.738,91,11.1564,-11.595,-5.7114,-1.2605,-0.3604,-0.3728,86,4.63,89,5.7181,2.8972,-12.0073,-0.1844,-0.8546,-0.6977,51
4.79,92,6.4761,-9.6912,-4.3422,-0.2435,0.4153,0.4056,86,4.682,90,9.2906,2.809,-14.5459,-0.1771,-0.0393,-0.4754,51
4.842,93,5.9141,-1.7212,-11.174,0.4988,-0.0453,0.9738,86,4.734,91,11.3584,4.9279,-18.5975,-0.1913,0.5441,0.1728,51
4.894,94,8.3373,-2.2363,-8.6848,0.7027,-0.7065,1.2351,86,4.785,92,10.8119,5.7689,-20.4203,-0.162,0.4402,0.2754,51
4.946,95,6.2457,-1.9094,-10.2919,0.5992,-0.1387,0.3671,86,4.837,93,5.7986,5.9675,-18.2261,-0.213,0.342,0.2096,51
4.997,96,9.5415,-2.8014,-10.2861,0.6007,-0.2776,0.0162,86,4.889,94,1.1983,4.9175,-15.3134,-0.3331,-0.2682,0.1597,51
5.049,97,12.2296,-4.0605,-8.1741,0.2193,-0.876,-0.273,86,4.941,95,-0.3007,3.8693,-13.3261,0.0237,-0.8614,-0.0507,51
5.101,98,11.126,-4.5899,-10.3274,-0.5152,-1.0146,-0.8732,86,4.993,96,4.2633,2.6468,-12.6952,0.0019,-0.7526,-0.5001,51
5.153,99,8.4335,-8.5869,-8.0651,-0.8818,-0.0956,-0.0159,86,5.044,97,6.9972,2.1539,-11.5152,0.2148,-0.306,-1.0354,51
5.205,100,4.0093,-6.2073,-7.5187,0.0329,0.6086,0.6661,86,5.096,98,7.2137,3.3881,-12.185,-0.5203,-0.3366,-0.2657,51
5.257,101,8.0743,0.2778,-13.4924,0.6132,0.053,0.9809,86,5.148,99,5.5098,1.9194,-16.8743,0.2949,0.1014,0.3118,51
5.308,102,3.0332,-3.6183,-14.0155,0.1102,-0.4568,0.6837,86,5.2,100,5.4248,3.4786,-16.7931,0.587,0.5969,0.8844,51
