right_leg_timestamp,right_leg_index,right_leg_accel_x,right_leg_accel_y,right_leg_accel_z,right_leg_gyro_x,right_leg_gyro_y,right_leg_gyro_z,right_leg_battery_percentage,left_leg_timestamp,left_leg_index,left_leg_accel_x,left_leg_accel_y,left_leg_accel_z,left_leg_gyro_x,left_leg_gyro_y,left_leg_gyro_z,left_leg_battery_percentage
0.802,15,9.2008,-5.1771,-5.7096,0.4579,-0.2078,-0.394,81,0.022,0,3.2813,0.9771,-14.7364,1.1158,-2.253,0.0374,50
0.854,16,5.2358,-4.7954,-3.9624,0.0883,0.5267,0.3334,81,0.074,1,3.6421,0.5307,-12.9124,0.8809,-2.3111,0.0437,50
0.905,17,2.9214,-2.3945,-10.8969,0.741,1.0627,0.2214,81,0.125,2,4.9037,0.562,-10.9716,0.7589,-1.7528,-0.0354,50
0.957,18,2.804,-6.9846,-13.1619,0.4491,0.1022,0.51,81,0.177,3,6.302,1.0467,-11.2668,0.3648,-0.5943,-0.3053,50
1.009,19,4.3328,-5.6712,-15.0094,0.0253,-0.0644,0.5247,81,0.229,4,8.1674,1.6118,-16.1338,0.0144,0.2512,-0.8878,50
1.061,20,8.428,-4.5883,-15.4706,0.2053,0.6314,0.6911,81,0.281,5,10.2033,0.1134,-19.7563,-0.6572,0.8683,-1.0384,50
1.113,21,11.4169,-4.4399,-12.8987,0.6378,0.5191,0.2294,81,0.333,6,8.7991,-1.2491,-21.8811,-0.5052,0.6233,-0.7314,50
1.164,22,12.0194,-4.0398,-10.7886,0.2247,-0.2945,-0.2497,81,0.384,7,5.9998,-1.1283,-20.7135,-0.23,-0.0084,-0.4824,50
1.216,23,8.8589,-5.3938,-5.3035,-0.5113,0.2008,0.4433,81,0.436,8,3.6002,-0.9442,-19.7771,0.5068,0.1599,-0.2663,50
1.268,24,6.477,-2.3793,-6.7003,-0.2638,0.8249,1.0013,81,0.488,9,3.4774,-2.1815,-17.0973,0.4597,0.0004,-0.1073,50
1.32,25,5.2463,-4.1128,-12.895,0.4761,0.9036,0.2806,81,0.54,10,4.4923,-1.3739,-14.7601,0.8134,-0.3924,-0.1971,50
1.372,26,2.7275,-8.2387,-11.8165,0.3018,-0.0139,-0.1483,81,0.591,11,4.5893,-1.6904,-13.6896,0.4896,-0.1719,-0.2542,50
1.423,27,4.106,-6.206,-14.3803,0.0253,-0.5378,-0.1346,81,0.643,12,6.3164,-2.6904,-17.9725,0.2311,0.5595,-0.5027,50
1.475,28,6.223,-4.6954,-14.9541,-0.2074,0.2358,0.0779,81,0.695,13,9.3198,-3.8879,-21.0983,-0.3039,1.0368,0.1626,50
1.527,29,9.8076,-4.4718,-13.4447,-0.1781,0.6217,-0.0641,81,0.747,14,8.872,-1.0591,-20.087,0.4286,0.4896,0.511,50
1.579,30,11.1625,-3.1281,-12.0604,-0.2531,-0.1624,-0.4933,81,0.799,15,5.6676,1.0436,-18.34,0.66,0.1439,1.0533,50
1.631,31,9.9156,-4.9265,-6.6999,-0.8599,-0.2049,-0.217,81,0.851,16,2.364,1.5228,-16.31,0.4127,-0.3502,0.997,50
1.682,32,6.6399,-6.5425,-3.9648,-0.1469,0.5288,0.5194,81,0.902,17,2.2502,1.5829,-14.1982,0.101,-0.7088,0.4551,50
1.734,33,7.2913,-1.0563,-10.8985,0.5693,1.0643,1.0417,81,0.954,18,4.4879,0.4766,-11.9317,-0.112,-0.8878,0.0171,50
1.786,34,-0.0027,4.581,-15.9591,0.0777,1.1172,0.2212,81,1.006,19,3.1482,-0.9183,-12.5544,-0.2196,-0.1068,-0.1621,50
1.838,35,4.1135,3.2628,-16.4417,-0.2575,0.1596,0.2643,81,1.058,20,4.9702,-1.0183,-17.1439,-0.2043,0.607,-0.1052,50
1.89,36,7.0733,0.972,-20.0048,-0.0607,0.4034,0.1291,81,1.11,21,8.6473,-1.8545,-20.4936,-0.7772,1.128,-0.2074,50
1.941,37,10.4282,3.5604,-17.8185,0.6322,0.418,-0.1587,81,1.161,22,8.0184,-3.0073,-22.214,-0.7751,1.1906,-0.2209,50
1.993,38,9.5044,0.1491,-18.1406,0.0991,-0.3683,-0.6366,81,1.213,23,5.7441,-2.939,-22.078,-0.2634,0.7313,-0.0738,50
2.045,39,7.9478,-4.103,-10.6557,-0.6029,0.0862,0.0497,81,1.265,24,3.2575,-2.3871,-20.3415,-0.3121,0.182,0.2497,50
2.097,40,11.0664,-4.1988,-10.7242,-0.018,0.7413,0.714,81,1.317,25,2.465,-1.7546,-18.3199,-0.1267,-0.327,0.5033,50
2.149,41,6.6175,2.1742,-15.8319,0.6634,1.2194,0.9055,81,1.368,26,3.33,-0.7811,-15.786,0.1642,-0.9055,0.4004,50
2.201,42,3.1341,-3.6502,-16.9237,-0.0335,0.2166,1.1588,81,1.42,27,2.5683,0.1859,-14.8658,0.3135,-1.0879,0.0861,50
2.252,43,4.8805,-2.4344,-17.9751,-0.3053,-0.3429,0.9337,81,1.472,28,3.4504,-0.6144,-18.1572,-0.2099,-0.1091,-0.4757,50
2.304,44,8.5562,-3.124,-17.3613,-0.7495,0.4281,0.1154,81,1.524,29,7.1414,-1.86,-20.4913,-0.4502,0.6054,-0.9259,50
2.356,45,9.4949,-4.1285,-11.273,-0.601,0.2774,-0.4151,81,1.576,30,8.6454,-2.7737,-21.1386,0.0591,0.5275,-0.9706,50
2.408,46,9.4172,-7.056,-5.6435,-0.141,-0.347,-0.9076,81,1.627,31,4.858,-0.6455,-21.1018,0.6906,0.273,-0.3289,50
2.46,47,6.5174,-10.0139,-1.6221,-0.2915,0.4251,-0.2116,81,1.679,32,1.5232,-0.4837,-20.8375,0.8115,-0.3328,0.2916,50
2.512,48,10.0224,-5.2567,-9.1888,0.4638,0.9886,0.5233,81,1.731,33,1.5476,0.2936,-17.2219,0.5843,-0.9097,0.7564,50
2.563,49,6.8756,-1.9525,-14.7112,0.058,1.1151,0.0906,81,1.783,34,2.7515,0.7243,-13.6585,0.1325,-1.0953,0.7494,50
2.615,50,10.2839,3.9269,-14.4419,0.5119,0.1404,0.035,81,1.834,35,2.8159,-0.4582,-11.1671,0.0688,-0.571,0.1281,50
2.667,51,12.7714,2.2268,-12.3648,-0.034,-0.4089,-0.0101,81,1.886,36,5.6601,-2.187,-16.1314,-0.3165,0.2682,-0.2554,50
2.719,52,14.5868,-2.0,-9.3491,-0.2452,-0.4566,-0.136,81,1.938,37,8.6899,-3.8736,-19.7546,-0.4575,0.6181,0.3024,50
2.771,53,14.13,-2.7353,-11.904,-0.1562,-1.0066,-0.693,81,1.99,38,7.0853,-3.8866,-21.2228,0.2752,-0.2051,0.4134,50
2.822,54,11.7635,-5.9485,-6.104,-0.7892,-0.1827,-0.3344,81,2.042,39,1.9237,-2.0044,-18.8895,0.7721,-0.8165,0.6629,50
2.874,55,9.4658,-6.0525,-5.9226,0.0899,0.545,0.4337,81,2.093,40,2.4216,0.4512,-13.906,0.7419,-1.2162,0.7304,50
2.926,56,8.3691,0.9345,-12.3275,-0.6096,1.0762,0.2311,81,2.145,41,3.6889,1.7971,-11.844,0.4269,-0.78,0.0779,50
2.978,57,3.4623,0.1593,-13.1113,-0.538,0.112,-0.3472,81,2.197,42,5.3351,-0.1893,-12.0844,0.1516,-0.7368,-0.418,50
3.03,58,7.6962,-5.1208,-13.9889,-0.3909,0.2661,-0.0679,81,2.249,43,5.4364,-0.3591,-16.8009,-0.0623,0.1472,-0.2142,50
3.081,59,10.7897,-8.9744,-11.4506,0.2352,0.1457,-0.4534,81,2.301,44,4.694,-1.4537,-20.2432,-0.5218,0.4744,0.1359,50
3.133,60,12.4406,-8.8749,-12.5143,-0.3858,-0.5671,-0.7941,81,2.353,45,5.2563,-2.5661,-22.7556,-0.2667,0.0531,0.1525,50
3.185,61,8.2563,-10.0186,-6.5494,-0.1492,0.2614,-0.2788,81,2.404,46,3.0209,-1.9119,-21.0013,0.0208,-0.628,0.2754,50
3.237,62,11.2916,-6.6325,-8.5673,0.5676,0.8691,0.4743,81,2.456,47,0.6991,-1.4271,-17.7095,-0.0156,-1.1018,0.6131,50
3.289,63,9.2877,-7.0773,-14.2577,0.2337,1.0585,0.3989,81,2.508,48,1.4413,-0.48,-14.9174,-0.0291,-1.4234,0.5556,50
3.34,64,6.1804,-10.4024,-14.2409,0.3616,0.4121,-0.3215,81,2.56,49,3.5294,0.0743,-12.6384,-0.2034,-1.3615,0.556,50
3.392,65,8.8874,-8.0724,-14.5817,-0.0819,0.6852,-0.38,81,2.611,50,5.3112,1.5756,-13.8036,-0.75,-0.3087,0.5585,50
3.444,66,11.7522,-8.3497,-11.7392,-0.1123,0.7962,-0.6181,81,2.663,51,3.5133,0.9708,-18.0556,-0.9289,0.4597,0.922,50
3.496,67,11.484,-7.7687,-8.7179,-0.4873,-0.0923,-1.0142,81,2.715,52,3.9966,-3.8542,-21.159,-0.6376,0.3987,0.4973,50
3.547,68,7.9569,-6.3656,-3.7786,-0.1285,0.5121,-0.5203,81,2.767,53,2.387,-0.5431,-20.431,0.0566,-0.3475,0.2213,50
3.599,69,8.8236,-4.9495,-6.4875,0.5404,1.0521,0.298,81,2.819,54,-0.2616,-0.7691,-18.1397,-0.003,-0.9204,0.4417,50
3.651,70,5.6924,-1.1093,-12.7397,1.0709,1.4462,0.4891,81,2.87,55,1.5247,-0.5417,-15.6886,0.3926,-1.3386,0.543,50
3.703,71,7.6371,2.1983,-14.882,0.6434,0.3821,-0.0006,81,2.922,56,3.6471,-0.0321,-13.3128,0.0943,-1.6437,0.5321,50
3.755,72,8.847,1.3755,-16.7338,0.2,0.2699,0.0355,81,2.974,57,2.2391,0.019,-13.327,-0.3689,-0.5334,0.5559,50
3.807,73,11.7227,-4.2332,-12.0233,0.0195,0.2438,-0.4009,81,3.026,58,1.7904,-1.1863,-17.7079,-0.7031,0.2957,0.4522,50
3.858,74,13.8215,-4.9056,-8.4924,-0.6456,-0.4955,-0.6476,81,3.077,59,1.4688,-2.157,-20.9052,-1.0287,0.9008,0.458,50
3.91,75,10.2506,-6.8039,-3.614,-0.5176,0.1888,-0.3384,81,3.129,60,-1.4897,-1.9801,-23.0417,-0.0761,0.6313,0.0603,50
3.962,76,10.6871,-7.3168,-5.5466,0.2988,0.8162,0.4307,81,3.181,61,-1.9324,-1.3924,-20.6541,-0.2121,-0.206,0.0401,50
4.014,77,7.5301,-3.8702,-12.053,-0.0105,1.274,0.6408,81,3.233,62,0.8192,-0.6331,-17.8051,-0.1518,-0.8171,0.064,50
4.066,78,10.7615,2.5272,-15.1761,0.3615,0.2565,0.7295,81,3.285,63,2.2839,-0.2553,-14.8812,0.019,-1.2611,0.2188,50
4.117,79,10.8406,1.9473,-15.893,-0.0471,-0.1318,0.2634,81,3.336,64,0.82,-1.6116,-14.0962,-0.3267,-0.3789,0.1028,50
4.169,80,13.1777,-3.8158,-11.9458,-0.3671,0.4546,0.5766,81,3.388,65,2.31,-2.9215,-18.2692,-0.7181,0.4084,-0.2004,50
4.221,81,11.7875,-4.2802,-8.1829,-0.2775,0.1086,-0.0019,81,3.44,66,4.1988,-3.4363,-21.3149,-0.7632,0.9831,-0.07,50
4.273,82,9.3754,-5.3334,-3.3882,-0.8126,-0.0832,0.0329,81,3.492,67,-2.4082,-3.3487,-22.9617,0.1176,0.8183,-0.1894,50
4.325,83,6.4346,-6.9905,-2.6562,-1.2683,0.6176,0.7018,81,3.544,68,-3.8484,-3.3263,-22.4282,0.2241,-0.0696,-0.2962,50
4.376,84,5.8804,-1.6325,-9.9435,-0.4185,1.1291,1.1899,81,3.595,69,1.6023,-1.4313,-20.4569,0.8382,-0.7176,-0.1984,50
4.428,85,9.5575,4.1604,-4.6731,0.0332,0.1507,0.4434,81,3.647,70,4.4758,1.297,-17.1483,0.4448,-1.1905,0.094,50
4.48,86,4.3988,6.8324,-11.4156,-0.0388,0.0355,0.4772,81,3.699,71,0.4072,3.4843,-14.7648,-0.2602,-0.2894,-0.4367,50
4.531,87,7.6581,4.8958,-12.6602,0.0221,0.0107,0.4918,81,3.751,72,2.7866,0.8671,-17.1573,-0.212,0.4738,-0.9762,50
4.583,88,10.3753,0.9109,-10.8288,0.0705,0.3035,0.0664,81,3.803,73,3.3953,-4.1087,-20.5033,-0.8229,1.0307,-0.5458,50
4.635,89,9.7659,-0.8328,-10.2516,-0.3414,-0.409,-0.3847,81,3.854,74,-0.4754,2.057,-22.1615,0.0741,1.2268,0.2698,50
4.687,90,6.6716,-1.9599,-4.898,0.069,0.2517,0.2228,81,3.906,75,-2.2258,2.1393,-20.9942,-0.1274,0.3244,0.8772,50
4.739,91,7.5788,-0.8458,-7.1193,-0.2684,0.8621,0.8404,81,3.958,76,-0.9264,2.4572,-19.3352,0.068,-0.43,0.8647,50
4.79,92,4.8408,-5.0211,-13.2008,0.4806,1.2868,0.708,81,4.01,77,1.6353,2.1731,-17.0837,0.0142,-0.9806,0.7221,50
4.842,93,-0.9572,0.0722,-17.6394,-0.2398,0.6667,0.1806,81,4.062,78,4.7844,1.0763,-15.4876,0.341,-1.2977,0.4327,50
4.894,94,4.5671,-0.739,-15.8201,-0.5898,0.1449,0.3488,81,4.113,79,8.6092,-0.7421,-16.054,-0.4148,-0.2973,0.0172,50
4.946,95,8.599,0.3605,-14.0607,0.058,0.199,0.3584,81,4.165,80,8.5205,-1.5668,-19.6981,-0.6363,0.468,-0.3338,50
4.998,96,8.9673,-1.0738,-12.5498,0.4266,0.4657,0.2908,81,4.217,81,6.4996,-2.684,-22.3577,-0.6568,1.0265,-0.5842,50
5.05,97,8.0141,-1.693,-12.3134,0.4078,0.2117,0.1884,81,4.269,82,2.5831,-3.4658,-23.7835,-0.0947,0.6154,-0.42,50
5.102,98,9.5627,-1.1824,-11.7825,0.4807,-0.1282,0.0446,81,4.321,83,0.4281,-2.911,-21.7669,0.0706,-0.2177,0.0412,50
5.153,99,9.6234,-1.1223,-12.2818,0.372,-0.1482,-0.0295,81,4.372,84,0.884,-2.2148,-19.0756,0.2674,-0.8256,0.3867,50
5.205,100,9.5038,-1.3,-12.0044,0.1645,0.0122,0.0191,81,4.424,85,2.5479,-1.8756,-16.7221,0.3096,-1.2694,0.5386,50
5.257,101,9.2737,-1.4203,-11.7092,0.1313,-0.0265,-0.0114,81,4.476,86,5.0004,-0.9198,-16.8071,0.1959,-1.2048,0.003,50
5.309,102,9.3294,-1.404,-11.6713,0.1228,-0.1244,-0.0398,81,4.527,87,6.6951,-2.8306,-18.041,0.4229,-0.2293,-0.2765,50
5.361,103,9.4619,-1.3915,-11.7728,0.0849,-0.2074,-0.0754,81,4.579,88,7.0172,-4.3209,-18.1309,-0.3582,0.5176,-0.6567,50
5.412,104,9.3271,-1.4081,-12.0198,0.0771,-0.1794,-0.0962,81,4.631,89,7.263,-6.2273,-19.8814,-0.9038,1.0627,-0.4846,50
5.464,105,9.3,-1.3205,-11.9455,0.0879,-0.0644,-0.0813,81,4.683,90,6.0982,-3.2083,-19.9064,-0.3232,1.1635,-0.0682,50
5.516,106,9.3292,-1.23,-11.7292,0.1044,-0.0578,-0.0716,81,4.735,91,6.0315,-2.1484,-20.5215,-0.4691,0.6604,0.5356,50
5.568,107,9.4831,-1.2651,-11.8559,0.0844,-0.0704,-0.0856,81,4.786,92,6.1122,-1.5115,-20.2193,-0.5713,0.284,0.8484,50
5.62,108,9.4531,-1.2898,-11.8699,0.0446,-0.0411,-0.0685,81,4.838,93,5.9606,-1.7401,-19.5294,-0.6204,-0.0769,0.6911,50
5.671,109,9.4043,-1.3781,-11.8792,0.0233,-0.0806,-0.0823,81,4.89,94,5.9066,-1.9908,-18.6005,-0.2765,-0.3644,0.3574,50
5.723,110,9.4425,-1.313,-11.8793,0.0032,-0.1144,-0.1022,81,4.942,95,5.5946,-2.0415,-17.4852,-0.147,-0.4851,0.1642,50
5.775,111,9.4655,-1.2593,-11.922,-0.0605,-0.1625,-0.1283,81,4.993,96,5.3466,-2.0366,-16.7034,0.0036,-0.3306,0.0217,50
5.826,112,9.4441,-1.1736,-12.0697,-0.1209,-0.1836,-0.1577,81,5.045,97,5.3398,-2.1295,-16.7723,-0.0238,-0.0317,-0.0679,50
5.878,113,9.3757,-1.0892,-12.1658,-0.1287,-0.1709,-0.1918,81,5.097,98,5.1018,-2.2202,-16.8231,-0.0613,0.1583,-0.1271,50
5.93,114,9.1464,-1.098,-12.2895,-0.1799,-0.1698,-0.2171,81,5.149,99,5.2824,-2.3463,-16.7541,0.0054,0.3034,-0.1844,50
5.982,115,9.5878,-1.0467,-12.3749,-0.1999,-0.1189,-0.2994,81,5.201,100,5.5958,-2.3326,-16.75,-0.0436,0.4406,-0.1952,50
6.034,116,9.67,-0.755,-12.2687,-0.2615,-0.0793,-0.353,81,5.252,101,5.9847,-2.3208,-16.3793,-0.1251,0.5122,-0.2416,50
6.086,117,9.4283,-0.6505,-12.2749,-0.2916,-0.142,-0.4032,81,5.304,102,6.3842,-2.2391,-15.9348,-0.0305,0.6374,-0.3062,50
6.138,118,9.3105,-0.4012,-12.5076,-0.3036,-0.2062,-0.4291,81,5.356,103,6.4195,-2.0278,-15.0647,-0.106,0.7948,-0.3497,50
6.189,119,9.2769,-0.0909,-12.6451,-0.3702,-0.2328,-0.4241,81,5.408,104,6.6508,-1.7797,-14.0843,-0.3341,1.0543,-0.4341,50
6.241,120,9.1404,0.0779,-12.8074,-0.6611,-0.2402,-0.3692,81,5.46,105,7.5057,-1.5973,-13.3504,-0.5301,1.4544,-0.5229,50
6.293,121,9.2027,-0.1226,-13.0245,-1.1151,-0.388,-0.2446,81,5.511,106,8.646,-1.0325,-13.3812,-0.4883,1.7465,-0.5593,50
6.344,122,9.6275,-0.3092,-12.6979,-1.4891,-0.5194,-0.1548,81,5.563,107,9.1019,0.2375,-14.155,-0.6013,1.9305,-0.6509,50
