right_leg_timestamp,right_leg_index,right_leg_accel_x,right_leg_accel_y,right_leg_accel_z,right_leg_gyro_x,right_leg_gyro_y,right_leg_gyro_z,right_leg_battery_percentage,left_leg_timestamp,left_leg_index,left_leg_accel_x,left_leg_accel_y,left_leg_accel_z,left_leg_gyro_x,left_leg_gyro_y,left_leg_gyro_z,left_leg_battery_percentage
0.249,4,6.8607,0.676,-13.1349,0.4065,0.1124,-0.3151,80,0.05,0,7.7274,-0.6166,-10.7705,0.442,0.0168,1.5773,52
0.301,5,10.273,-3.5989,-14.0256,-0.1738,-0.5411,0.3985,80,0.102,1,8.8202,-0.6766,-10.348,0.6447,-0.1712,0.5324,52
0.353,6,12.6173,-2.8512,-12.3706,-0.0176,-0.8766,0.2669,80,0.154,2,11.5547,-4.1223,-15.5336,1.0136,-0.7917,1.0643,52
0.405,7,14.101,-1.995,-14.4104,0.1258,-0.8953,-0.1273,80,0.206,3,13.5504,-0.268,-17.6453,1.4144,-0.6719,1.4571,52
0.457,8,15.5573,1.7366,-10.1974,-0.0545,-0.6791,0.1939,80,0.258,4,11.987,1.4175,-14.1214,1.5859,-1.0763,1.7438,52
0.508,9,12.2287,0.9173,-9.1337,0.2326,-0.8499,-0.1493,80,0.31,5,8.0622,1.6388,-11.6759,0.8599,-0.1005,1.9531,52
0.56,10,10.5895,1.8535,-6.7658,-0.4023,0.0581,0.4439,80,0.361,6,0.4115,6.4787,-8.3166,1.1071,0.3878,2.1058,52
0.612,11,7.4952,0.6768,-9.9219,-0.0479,0.7208,0.7248,80,0.413,7,0.4865,5.7489,-10.1238,1.4827,-0.1429,2.2172,52
0.664,12,5.3425,-4.3489,-15.2463,0.542,0.6852,0.0799,80,0.465,8,0.3258,3.7227,-9.1375,1.4407,0.1901,0.9468,52
0.716,13,7.4718,-1.6957,-15.0299,1.0649,-0.1733,0.1673,80,0.517,9,0.1572,-0.2349,-10.6806,0.7473,0.4747,0.0196,52
0.767,14,9.5388,-2.2339,-15.1908,0.4239,-0.205,-0.1305,80,0.568,10,0.0757,-1.1912,-8.7491,0.0853,0.0057,-0.6571,52
0.819,15,11.2299,-2.1507,-10.1787,0.1398,-0.6199,-0.3635,80,0.62,11,4.6284,-4.8683,-14.3667,-0.4358,-0.6627,-1.151,52
0.871,16,10.1031,0.7483,-10.2214,0.6184,-1.1227,-0.732,80,0.672,12,2.9841,-5.3716,-11.5155,-0.5516,0.2013,-1.5114,52
0.922,17,5.5211,0.6091,-7.603,-0.0662,-0.1411,-0.5226,80,0.724,13,7.2953,-3.9076,-12.7938,-0.8161,-0.5199,-0.8078,52
0.974,18,4.0923,-0.218,-10.8897,0.6282,0.5754,0.2941,80,0.776,14,8.5421,-1.8455,-12.9261,-0.689,-0.396,0.0821,52
1.026,19,8.2311,-1.9786,-5.3637,0.1013,-0.2423,-0.084,80,0.828,15,5.6965,-2.4244,-12.5817,-1.1533,0.3959,-0.5192,52
1.078,20,10.4561,0.7579,-11.2594,0.7505,-0.8502,0.4611,80,0.879,16,5.2348,-7.0662,-16.1915,-1.5188,0.8411,-1.0182,52
1.13,21,12.0258,-0.019,-10.7637,0.2928,-0.0189,0.2409,80,0.931,17,5.3124,-8.1952,-14.1853,-0.8983,0.1047,-0.4618,52
1.181,22,13.3014,1.9714,-14.5025,-0.377,-0.559,0.1348,80,0.983,18,5.3463,-7.0209,-11.567,-0.5162,-0.1448,-0.0827,52
1.233,23,11.8922,0.1617,-12.2133,-0.1734,-0.8697,-0.4183,80,1.035,19,4.4821,-6.4044,-11.285,-0.0573,0.1503,0.5454,52
1.285,24,6.9359,-1.3421,-9.2208,-0.0719,0.0436,0.1704,80,1.086,20,5.4566,-5.4797,-12.5631,-0.3998,0.2091,1.0784,52
1.337,25,4.8722,-0.2045,-13.5584,0.5836,0.7102,0.6303,80,1.138,21,8.4123,-4.272,-12.6607,0.3502,-0.1931,1.4674,52
1.389,26,8.8217,5.2026,-7.3115,0.0886,0.114,0.7402,80,1.19,22,8.2716,-4.0627,-11.2644,0.2007,-0.2907,1.6515,52
1.44,27,8.0418,3.9085,-12.2338,0.7412,-0.5902,0.9961,80,1.242,23,9.2191,-6.7123,-11.0741,-0.385,-0.3348,1.4554,52
1.492,28,9.9094,1.916,-13.4474,0.1965,-1.1041,1.0476,80,1.294,24,6.1405,-9.6627,-13.5593,-0.0452,-0.8016,0.8498,52
1.544,29,12.4981,-0.2235,-10.2826,-0.5318,-1.4693,1.442,80,1.345,25,3.3329,-8.4228,-13.9839,0.6417,-0.4809,0.255,52
1.596,30,13.2597,-2.8278,-4.9407,-0.6046,-0.7335,0.9529,80,1.397,26,0.732,-5.0216,-12.364,0.9805,0.334,0.8665,52
1.648,31,6.2781,-6.245,-5.2298,-1.1165,-0.2331,0.7543,80,1.449,27,1.2294,-2.8098,-11.286,0.4244,-0.4231,0.038,52
1.699,32,3.7312,-2.1424,-11.7561,-0.1383,0.5082,1.2282,80,1.501,28,6.0146,0.0506,-16.2182,0.4039,-0.9756,-0.6436,52
1.751,33,-2.601,-1.393,-5.996,-0.3213,0.3084,0.5627,80,1.553,29,3.2733,-3.9515,-19.2508,-0.3823,-0.027,-1.1412,52
1.803,34,-3.5596,-1.3108,-9.5751,-0.4922,0.5655,0.3823,80,1.605,30,7.5063,-7.5489,-21.7462,-0.9548,0.3282,-1.5043,52
1.855,35,1.1718,-0.9445,-11.4779,-0.4787,-0.2514,0.3183,80,1.656,31,9.1787,-7.8783,-18.7869,-1.0219,0.7967,-1.7693,52
1.907,36,6.121,-5.629,-10.9913,-1.0246,-0.6954,-0.144,80,1.708,32,8.3915,-8.2437,-18.4434,-1.0058,1.1749,-1.7561,52
1.958,37,9.4947,-6.133,-8.1167,-0.3341,-0.7435,-0.0014,80,1.76,33,7.9955,-6.9907,-17.6734,-1.4112,1.1696,-1.0558,52
2.01,38,4.5791,-7.296,-8.2911,-0.9191,0.1357,0.2076,80,1.812,34,8.2237,-5.635,-16.9594,-1.432,0.5838,-0.0902,52
2.062,39,6.2189,-2.8127,-7.3338,-0.2274,-0.087,0.8292,80,1.863,35,9.9434,-2.2859,-13.5167,-0.4362,-0.1873,0.6145,52
2.114,40,-0.7854,3.0014,-2.7685,-0.5033,0.5059,0.3888,80,1.915,36,11.6631,-0.1714,-10.8685,-0.7038,-0.2513,0.4613,52
2.166,41,-5.8736,7.3834,-8.3424,0.3013,0.8017,0.377,80,1.967,37,13.1747,-4.9891,-12.4095,-1.1621,-0.1655,0.1946,52
2.217,42,-0.5593,6.0472,-7.6987,-0.2103,0.0911,0.1918,80,2.019,38,10.6032,-5.7494,-13.2142,-0.2425,-0.2058,0.7682,52
2.269,43,4.8576,1.4592,-13.333,-0.8287,-0.5542,0.8177,80,2.071,39,5.9963,-4.8486,-12.8517,0.3104,-0.3078,1.241,52
2.321,44,3.9894,4.9576,-12.8741,-1.2598,-0.6917,-0.0772,80,2.122,40,4.014,-3.7962,-11.8417,-0.1439,-0.5982,1.499,52
2.373,45,0.1378,-0.2493,-10.8485,-1.5947,0.1735,0.1563,80,2.174,41,5.786,-2.6211,-11.4164,0.0959,-0.4575,1.5181,52
2.425,46,1.3051,0.3498,-11.1765,-0.4874,0.4723,0.7918,80,2.226,42,7.0812,-0.462,-10.0197,-0.0109,-0.5114,1.3883,52
2.476,47,6.2183,5.6072,-16.162,-0.693,-0.2739,0.991,80,2.277,43,3.0501,-4.3356,-8.5646,-0.5542,0.2037,0.4356,52
2.528,48,-0.7858,8.9501,-19.0852,0.1265,0.3929,0.1434,80,2.329,44,7.3434,-8.4611,-11.5178,-0.0649,0.6034,-0.2922,52
2.58,49,3.5224,9.0449,-16.1098,0.0641,0.0477,-0.2366,80,2.381,45,10.4172,-10.1693,-13.5166,0.0126,0.4013,0.3512,52
2.632,50,7.8365,3.941,-9.6397,-0.5101,-0.6386,0.5051,80,2.433,46,6.666,-8.3362,-15.7514,0.6387,0.3253,0.9366,52
2.684,51,10.9852,1.4515,-7.542,-0.9716,-0.2041,0.5884,80,2.485,47,3.3885,-5.0772,-14.453,-0.2109,-0.204,1.3639,52
2.735,52,7.3577,-4.1777,-7.7088,-1.3843,0.5294,1.1072,80,2.536,48,4.6177,-2.7366,-12.0813,-0.2156,-0.8121,0.759,52
2.787,53,3.3028,-6.4509,-7.3896,-1.028,-0.1044,1.4858,80,2.588,49,7.6829,-0.4435,-9.6507,0.0544,-1.0653,-0.1175,52
2.839,54,7.6763,0.6438,-13.3981,-0.0738,-0.7496,0.5961,80,2.64,50,7.1614,-1.8812,-10.9177,-0.1135,-0.1359,-0.7571,52
2.891,55,2.5654,2.7179,-11.4532,0.4839,0.0974,0.7435,80,2.692,51,10.344,-6.6697,-15.9494,-0.746,0.5516,-1.1176,52
2.942,56,7.1381,1.1666,-14.8004,0.4384,0.1015,0.2301,80,2.744,52,10.5808,-9.6016,-16.5776,-0.5868,0.0814,-0.1406,52
2.994,57,9.18,-3.189,-17.1465,-0.3553,0.1205,-0.4289,80,2.795,53,7.0063,-7.7209,-14.703,0.0171,-0.5792,0.5777,52
3.046,58,6.2385,0.8533,-16.5859,0.1163,0.7663,-0.987,80,2.847,54,4.1323,-5.1996,-12.8573,0.2837,-1.0295,1.092,52
3.098,59,-0.7711,-4.6142,-17.4092,-0.5903,-0.0777,-0.8323,80,2.899,55,3.05,-3.3785,-11.3168,0.38,-1.0492,1.1249,52
3.15,60,3.0669,-2.9991,-12.7101,0.2127,-0.7301,0.0703,80,2.951,56,6.3203,-1.8412,-10.6789,0.585,-0.7109,0.9863,52
3.202,61,7.5041,3.163,-17.2813,0.7446,-1.0382,0.6203,80,3.003,57,3.5704,-5.089,-10.2851,0.392,0.0935,0.1698,52
3.253,62,1.0118,-2.3767,-20.5779,0.2102,-0.0794,-0.2213,80,3.054,58,7.173,-9.011,-14.77,-0.391,0.7532,-0.5475,52
3.305,63,5.9874,-1.3331,-17.093,-0.2105,0.5225,-0.1416,80,3.106,59,8.0171,-11.2761,-16.2503,0.3893,0.9587,-0.7816,52
3.357,64,9.6356,-3.2406,-16.9827,-0.3178,0.0514,0.4876,80,3.158,60,3.821,-10.2424,-14.4682,0.3187,1.042,-0.3219,52
3.409,65,6.7733,-3.7728,-15.6187,-0.0699,0.6391,-0.2542,80,3.21,61,1.0445,-9.1264,-13.3912,-0.4444,0.7642,0.3458,52
3.461,66,3.6817,-6.1303,-16.9483,-0.7262,0.2512,0.2078,80,3.261,62,2.5275,-6.7781,-12.6418,-0.6201,0.6589,0.7153,52
3.512,67,0.7142,-6.3444,-14.9946,-0.356,-0.49,0.8294,80,3.313,63,6.3967,-3.658,-11.7625,-0.2625,0.3862,0.8371,52
3.564,68,5.787,0.7215,-13.0077,0.4167,-0.3863,0.7718,80,3.365,64,6.6754,-4.4176,-11.4719,-0.4433,0.4791,0.0637,52
3.616,69,-1.1006,-4.2329,-14.2137,-0.1797,-0.6174,-0.1107,80,3.417,65,8.6232,-8.521,-14.6641,-0.9105,0.9122,-0.6249,52
3.668,70,1.9837,-2.1525,-12.6257,-0.4883,-0.4118,-0.1179,80,3.469,66,9.1897,-11.5158,-14.3888,-0.7224,1.0721,0.1131,52
3.72,71,6.1702,-2.0979,-14.2983,-0.9602,-0.5032,-0.1531,80,3.52,67,7.2305,-9.5441,-14.1499,-0.4242,0.8235,0.7629,52
3.771,72,5.9333,-1.7278,-10.3702,-0.993,0.3105,0.4869,80,3.572,68,4.7552,-8.092,-13.9314,-0.2627,0.3468,1.1647,52
3.823,73,3.5717,-3.5576,-15.1531,-1.3999,0.6613,0.0032,80,3.624,69,3.5775,-6.3384,-12.1348,-0.2914,-0.1043,1.4224,52
3.875,74,3.0654,-7.7866,-13.5032,-0.4551,-0.1907,0.5587,80,3.676,70,4.7802,-4.7785,-11.3331,-0.16,-0.3699,1.3818,52
3.927,75,7.1478,-2.5145,-10.3067,0.3444,-0.6548,0.8072,80,3.727,71,3.2402,-4.5024,-11.4824,-0.2524,-0.3911,1.3358,52
3.979,76,4.5163,-3.3424,-12.2651,-0.4239,0.0396,0.0142,80,3.779,72,5.4619,-5.5446,-13.168,-0.7151,0.3995,0.3035,52
4.03,77,8.5619,1.8639,-13.1422,-0.1866,0.0945,-0.5844,80,3.831,73,8.5357,-5.2546,-13.3177,0.0276,0.9598,-0.4499,52
4.082,78,11.5146,-0.608,-16.1502,-0.6989,-0.5471,-0.4725,80,3.883,74,10.7972,-5.0262,-14.2585,-0.5131,0.9456,-0.9998,52
4.134,79,11.2801,-1.1428,-16.9758,-1.1853,0.0949,-0.958,80,3.935,75,9.2908,-4.8543,-13.8805,-0.0658,1.2197,-1.4011,52
4.186,80,2.9085,-5.5459,-20.3946,-1.5403,0.7476,-1.1545,80,3.986,76,6.6668,-2.8349,-11.8149,-0.3139,1.1362,-1.694,52
4.238,81,3.4722,-5.7228,-20.0739,-1.7994,-0.1278,-0.1648,80,4.038,77,5.7579,-1.0657,-10.3396,-0.9046,0.3562,-1.9077,52
4.289,82,-0.8587,-7.6075,-22.6557,-1.1598,-0.1214,-0.3955,80,4.09,78,6.7249,4.1766,-15.5275,-1.3373,-0.4069,-1.9823,52
4.341,83,1.2205,-5.7846,-22.7768,-1.2305,0.4169,-0.7615,80,4.142,79,4.4977,-1.5072,-19.0438,-1.2944,0.388,-0.7664,52
4.393,84,6.1565,-6.0456,-21.5831,-1.3806,0.9827,-1.2298,80,4.193,80,5.3079,3.7273,-13.5885,-0.3073,-0.3505,0.078,52
4.445,85,4.6344,-3.0769,-19.4892,-1.5792,1.1131,-1.5328,80,4.245,81,5.1677,2.2735,-14.6419,-0.2064,-0.1083,0.7275,52
4.496,86,2.8078,-3.2594,-16.8104,-1.8278,0.5376,-0.4411,80,4.297,82,6.5949,2.6867,-13.2514,-0.0625,-0.1451,0.9612,52
4.548,87,4.3446,-2.1994,-15.3776,-1.5747,-0.281,0.3558,80,4.349,83,7.4426,1.6959,-13.0717,0.1248,-0.3439,0.814,52
4.601,88,6.7957,0.074,-13.3,-0.859,-0.8785,0.896,80,4.401,84,7.0466,1.9535,-13.2755,0.1454,-0.706,0.7125,52
4.652,89,7.4319,2.3452,-12.1116,-0.8693,-1.2023,1.3276,80,4.453,85,7.3028,1.4918,-12.705,0.011,-0.6805,1.0427,52
4.704,90,7.4181,3.7184,-11.9055,-0.997,-1.2994,1.1935,80,4.504,86,9.1304,2.0538,-12.3466,0.1659,-0.9605,1.439,52
4.756,91,5.6021,0.702,-10.9359,-1.1389,-1.0067,1.5488,80,4.556,87,9.3114,2.7145,-12.2217,-0.4866,-0.6308,1.7306,52
4.808,92,6.6153,1.7371,-15.1677,-0.1547,-1.4081,1.757,80,4.608,88,7.6736,2.5238,-11.3235,-1.0322,0.2225,1.7453,52
4.86,93,6.9834,0.0595,-13.6037,-0.6395,-0.3553,1.1552,80,4.66,89,8.369,3.5261,-11.9092,-1.4305,0.8473,1.0793,52
4.911,94,7.0376,0.8074,-13.3778,-0.5161,-0.1968,1.1999,80,4.712,90,11.2254,-2.7233,-12.7296,-1.7211,0.1785,0.4796,52
4.963,95,8.5394,-0.0227,-12.9079,-0.347,-0.2298,1.4355,80,4.763,91,9.1129,-3.3298,-16.0025,-1.9332,0.3625,0.983,52
5.015,96,8.5417,-1.3682,-13.319,-0.402,0.4664,1.1661,80,4.815,92,10.3982,0.3272,-12.338,-1.23,0.9149,0.2923,52
5.067,97,11.4998,4.3533,-16.6582,-0.9686,0.9977,1.5105,80,4.867,93,9.4018,0.0595,-11.5206,-1.1873,0.5903,0.0735,52
5.118,98,8.8127,1.5991,-19.0946,-1.3822,1.4065,0.9194,80,4.919,94,9.0784,0.2779,-11.3784,-1.0188,0.3744,-0.1093,52
5.17,99,7.9916,1.1133,-18.0025,-1.684,1.3049,0.1087,80,4.97,95,9.0682,0.6821,-11.22,-0.9144,0.3282,-0.2008,52
5.222,100,7.5231,0.3808,-18.1102,-1.9043,1.259,-0.3199,80,5.022,96,8.9773,0.9661,-11.1489,-0.8104,0.2226,-0.1342,52
5.274,101,7.1579,-3.5866,-21.2225,-2.0309,1.3705,-0.006,80,5.074,97,8.9837,1.1674,-10.9413,-0.8032,0.0578,-0.1889,52
5.325,102,8.9919,-7.8547,-17.2308,-2.1574,1.3429,0.4794,80,5.126,98,8.9077,1.8006,-11.4047,-0.8656,-0.245,0.0293,52
5.377,103,8.8825,-5.2373,-15.9852,-1.8029,1.0309,0.1637,80,5.178,99,9.9772,2.941,-10.6085,-1.3071,-0.1956,0.5425,52
5.429,104,8.9083,-3.8566,-14.7509,-1.1665,0.6406,0.0505,80,5.229,100,8.8778,2.7985,-10.7276,-1.631,-0.8095,1.0763,52
5.481,105,9.0136,-2.9278,-13.7922,-0.8534,0.4179,0.0219,80,5.281,101,8.9885,2.5525,-11.2387,-1.8675,-0.0276,0.5727,52
5.533,106,9.1611,-1.9963,-13.2651,-0.6556,0.3339,0.0685,80,5.333,102,6.4401,3.3215,-13.6321,-1.6155,0.2499,-0.0508,52
5.584,107,9.1782,-1.4616,-12.7812,-0.446,0.2422,0.2249,80,5.384,103,6.8611,-2.8726,-15.532,-1.8537,0.2025,0.5115,52
