right_leg_timestamp,right_leg_index,right_leg_accel_x,right_leg_accel_y,right_leg_accel_z,right_leg_gyro_x,right_leg_gyro_y,right_leg_gyro_z,right_leg_battery_percentage,left_leg_timestamp,left_leg_index,left_leg_accel_x,left_leg_accel_y,left_leg_accel_z,left_leg_gyro_x,left_leg_gyro_y,left_leg_gyro_z,left_leg_battery_percentage
0.141,2,10.3923,-0.0996,-14.2329,-0.2242,-0.1816,-0.5139,86,0.087,1,7.8513,-3.5808,-19.1745,-1.407,-2.086,-0.64,51
0.193,3,4.3022,-1.6145,-10.667,-0.8388,0.5458,0.3027,86,0.138,2,7.8361,-4.316,-16.3508,-0.444,-2.1731,-0.8456,51
0.245,4,6.6941,1.7491,-10.2545,0.0179,-0.275,0.8986,86,0.19,3,1.8022,-0.7428,-14.904,-0.0674,-1.1548,0.0632,51
0.297,5,3.1524,0.5276,-11.8501,0.6896,-0.2018,0.6705,86,0.242,4,2.4966,1.9928,-18.8588,0.6255,-1.2497,0.7265,51
0.349,6,-3.0234,-4.852,-16.6536,0.166,0.2343,-0.1847,86,0.293,5,2.3452,6.7466,-21.7452,1.086,-0.9552,0.8625,51
0.401,7,0.4918,-1.0016,-16.1677,-0.0728,0.4269,-0.5316,86,0.345,6,-3.761,9.9003,-19.4143,1.0229,-0.3722,0.5302,51
0.452,8,4.7926,-0.1404,-16.3892,-0.2358,0.4404,-0.4113,86,0.397,7,-4.7522,6.3772,-15.7181,0.3765,-0.9385,-0.2845,51
0.504,9,8.7232,-1.8158,-13.2181,-0.8018,-0.352,-0.7059,86,0.449,8,1.649,-0.1709,-11.0192,-0.2976,-1.3517,-0.2635,51
0.556,10,9.4364,-5.1528,-15.1623,-1.2604,-0.1736,-0.8869,86,0.501,9,6.3208,-0.7856,-11.9615,0.3701,-0.3016,0.0839,51
0.608,11,4.4903,-4.7343,-11.7236,-1.0094,0.5155,0.0293,86,0.553,10,4.4171,3.4051,-15.8569,0.5804,0.4649,0.7415,51
0.66,12,3.4998,1.8966,-11.7229,-0.2507,-0.1993,0.6991,86,0.604,11,3.2937,7.7773,-19.5543,0.0354,0.8378,1.2216,51
0.712,13,7.82,-0.364,-5.9718,-0.5203,0.195,1.0405,86,0.656,12,5.6157,10.922,-21.5907,0.0867,0.3678,0.9582,51
0.763,14,0.9652,5.0862,-12.3634,-0.1256,-0.4661,1.4371,86,0.708,13,4.9956,10.0266,-20.5034,-0.0604,-0.0894,0.0685,51
0.815,15,3.4363,5.2232,-12.8059,-0.1505,-0.4985,0.9737,86,0.76,14,1.9499,7.0798,-17.0889,-0.5217,-0.5442,-0.4169,51
0.867,16,7.7737,0.9694,-12.6033,-0.3584,-1.0373,0.7635,86,0.811,15,0.6219,1.9687,-14.2667,-0.5502,-0.5864,-0.4167,51
0.919,17,9.6437,-2.1752,-13.16,-0.842,-0.6255,-0.1167,86,0.863,16,3.364,0.8603,-14.066,-0.0906,-0.3202,-0.1066,51
0.971,18,9.6963,-1.983,-10.394,-1.2771,-0.7985,-0.1785,86,0.915,17,7.1707,1.3665,-13.603,0.0653,-0.074,0.051,51
1.022,19,1.7526,-6.6843,-7.3745,-1.6073,0.0956,0.1809,86,0.967,18,9.7147,3.8127,-15.5506,-0.2916,0.631,0.7125,51
1.074,20,6.5302,0.4734,-13.3871,-0.4965,-0.5501,0.8098,86,1.019,19,9.5094,7.43,-19.3307,-0.2516,1.1455,0.8845,51
1.126,21,-0.5582,-4.8915,-17.293,-0.0238,-0.016,-0.083,86,1.07,20,11.7408,7.3589,-21.229,0.2162,0.9128,0.6055,51
1.178,22,4.1562,-4.1004,-13.8668,-0.3137,0.0388,-0.664,86,1.122,21,11.9931,5.6929,-19.1868,0.8325,0.7978,0.1295,51
1.229,23,6.3338,-0.9326,-14.0339,-0.3565,0.1692,-0.4991,86,1.174,22,7.5122,6.1743,-15.9892,0.9177,1.2569,0.1815,51
1.281,24,8.9272,-1.6512,-12.8791,-0.0605,-0.4563,-0.5406,86,1.226,23,1.3839,2.2474,-17.1416,0.2144,1.6023,0.3239,51
1.333,25,10.6334,-2.5803,-11.9539,-0.7194,0.1506,-0.7424,86,1.277,24,-0.802,2.775,-17.1056,0.3192,0.5251,0.633,51
1.385,26,12.4638,-2.5926,-14.0366,-1.2002,-0.2975,-1.0613,86,1.329,25,0.9798,2.5553,-15.2534,0.6372,0.0534,0.7369,51
1.437,27,8.9449,-7.1293,-13.7509,-0.7149,0.4005,-0.1249,86,1.381,26,3.0577,2.721,-11.474,0.7196,-0.1434,-0.1042,51
1.488,28,5.0402,-4.3895,-11.289,-0.7864,0.9706,0.5866,86,1.433,27,7.349,2.4686,-14.0992,0.182,0.4275,0.0935,51
1.54,29,3.2453,2.1483,-16.2441,0.1026,0.0971,1.1058,86,1.485,28,8.8381,5.8165,-18.2714,-0.5442,0.3629,0.2708,51
1.592,30,-2.9556,-3.6691,-9.2716,-0.2776,-0.2647,0.1331,86,1.536,29,9.3877,5.5379,-20.4225,-0.8182,-0.4019,0.0077,51
1.644,31,3.1086,-3.7441,-8.4816,-0.2527,0.1135,-0.4022,86,1.588,30,7.0268,5.0567,-18.5192,-1.1612,-0.9601,-0.2349,51
1.696,32,7.5346,-1.0664,-8.9693,-0.3169,-0.5486,-0.2751,86,1.64,31,4.0132,4.3833,-16.9367,-1.3458,-1.3675,-0.4815,51
1.747,33,10.7648,-2.9509,-11.1064,-0.5342,-1.0738,-0.2812,86,1.692,32,2.2718,3.1975,-15.0859,-1.5376,-1.6649,-0.8877,51
1.799,34,9.3963,-5.1731,-12.7283,-1.0651,-0.7069,-0.7749,86,1.744,33,4.4668,1.2689,-14.4485,-1.36,-1.6751,-1.2197,51
1.851,35,8.6897,-9.0126,-11.6108,-1.3274,-0.5915,-0.0299,86,1.795,34,8.3774,-0.2985,-14.7609,-1.0717,-1.1777,-1.2603,51
1.903,36,4.314,-7.8865,-8.1651,-0.738,0.2106,0.6559,86,1.847,35,7.0387,0.8314,-13.356,-0.9934,-0.1811,-0.3537,51
1.955,37,4.6278,-0.404,-8.3846,0.1379,-0.4213,1.1564,86,1.899,36,6.4217,5.899,-17.729,-0.8029,0.5528,0.4222,51
2.006,38,-1.0015,0.0375,-14.1244,-0.4195,0.3709,0.4512,86,1.951,37,7.8997,9.5975,-20.7189,-0.2181,0.4952,0.8133,51
2.058,39,4.5348,5.3793,-16.7554,0.0091,-0.4027,0.1298,86,2.003,38,7.0568,9.0958,-20.3224,0.3713,0.4184,0.1991,51
2.11,40,3.9211,6.5611,-15.7122,-0.0301,-0.0442,-0.0346,86,2.054,39,1.5092,6.1767,-16.6178,0.1877,0.9904,-0.2559,51
2.161,41,8.0128,3.7682,-15.3219,-0.0818,-0.6193,-0.3314,86,2.106,40,-1.6249,2.0375,-13.8661,0.1921,0.4918,0.1672,51
2.213,42,11.1138,1.1685,-12.8755,-0.5542,-0.9488,-0.5642,86,2.158,41,-1.3524,1.7855,-14.0832,0.4779,0.0966,0.5157,51
2.265,43,9.6419,1.3286,-15.3998,-1.0015,-0.255,-0.947,86,2.21,42,1.3292,2.4041,-14.3617,0.5217,0.206,0.2022,51
2.317,44,7.265,-3.2106,-13.2254,-1.4061,0.4661,-0.0253,86,2.261,43,2.3568,3.4059,-14.3061,0.6433,0.4017,-0.4973,51
2.369,45,0.4714,-4.6878,-12.3624,-0.3497,1.0185,0.6592,86,2.313,44,6.7969,3.0767,-16.1001,-0.0463,0.9319,-0.2864,51
2.42,46,2.0668,1.9286,-17.0275,0.4213,0.07,1.1589,86,2.365,45,8.6682,4.5539,-19.7318,-0.2338,1.1738,-0.0948,51
2.472,47,-3.8157,-0.7563,-11.5042,-0.0298,-0.2816,0.9166,86,2.417,46,9.5886,4.1649,-20.3211,0.0725,0.7835,0.009,51
2.524,48,2.4809,-0.4125,-9.8764,-0.1,0.1304,0.2208,86,2.469,47,7.27,3.3032,-17.8683,0.5814,0.9748,0.0075,51
2.576,49,7.0764,1.2757,-10.1012,-0.0576,-0.3709,0.2284,86,2.52,48,0.5531,3.3573,-16.473,0.4126,1.3964,0.1254,51
2.628,50,10.4304,-1.4274,-10.5629,0.046,-0.9441,0.2106,86,2.572,49,-1.7543,3.645,-16.3661,0.486,0.5468,0.3285,51
2.679,51,11.4906,-3.9573,-12.1221,-0.6416,-1.0155,-0.4654,86,2.624,50,3.8369,2.3244,-13.0231,0.1691,-0.2677,0.1992,51
2.731,52,11.3291,-8.0532,-11.073,-0.7814,-0.53,0.0061,86,2.676,51,7.3973,1.1528,-11.8129,0.276,-0.5576,-0.5189,51
2.783,53,4.6273,-7.1755,-9.1742,-1.1821,0.2916,0.3126,86,2.727,52,-0.0738,5.8393,-16.6028,-0.1378,0.278,0.1628,51
2.835,54,4.2653,-2.0327,-8.8792,-0.1862,-0.4377,0.9059,86,2.779,53,1.764,3.2418,-20.0986,-0.6798,-0.4639,0.6297,51
2.887,55,-0.1804,-6.4575,-14.4853,-0.8111,0.3589,-0.0129,86,2.831,54,4.7352,4.0659,-21.3861,-0.3687,-0.3338,0.5523,51
2.939,56,5.1341,0.6389,-17.1484,-0.2386,-0.4115,-0.1957,86,2.883,55,4.8506,2.1838,-19.2975,-0.0227,-0.7044,0.4569,51
2.99,57,4.7961,2.1578,-16.3444,0.0452,-0.3603,0.0064,86,2.935,56,2.789,2.4854,-18.2454,0.6518,-0.5633,0.7015,51
3.042,58,7.9835,-0.6073,-15.6057,0.0829,-0.9207,-0.0785,86,2.986,57,1.1587,3.5851,-17.5367,0.1288,-1.0779,1.0486,51
3.094,59,10.584,-1.8266,-13.3559,-0.4461,-0.3487,-0.5437,86,3.038,58,3.9817,3.5041,-15.0942,-0.1798,-1.4535,0.9952,51
3.146,60,9.5916,0.6171,-15.3902,-0.9313,-0.3814,-1.021,86,3.09,59,6.5155,3.1178,-13.8686,-0.461,-1.6803,0.3763,51
3.197,61,8.1186,-4.7867,-14.6034,-1.3549,0.0492,-0.1053,86,3.142,60,7.7085,2.365,-14.4794,-0.6875,-1.1015,0.0534,51
3.249,62,0.6315,-5.4872,-15.1465,-0.3123,0.1369,0.6009,86,3.194,61,7.4708,2.8671,-18.5489,-1.1789,-0.3255,0.4327,51
3.301,63,5.7267,1.3471,-8.4705,0.3416,0.4404,0.7784,86,3.246,62,6.2481,0.786,-21.3257,-1.3313,-0.1372,0.2948,51
3.353,64,8.3488,6.3351,-13.9616,0.8449,-0.352,1.0868,86,3.297,63,7.519,1.6626,-18.7114,-0.9845,-0.3714,0.1807,51
3.405,65,8.4396,8.0314,-14.8406,0.3462,0.2781,0.3778,86,3.349,64,4.2192,2.4159,-14.3256,-0.82,-0.1138,0.2926,51
3.457,66,11.4253,6.4716,-11.5412,0.8568,-0.1348,0.3544,86,3.401,65,0.1341,2.8587,-13.4576,-0.6702,0.2776,0.6543,51
3.509,67,13.6045,3.3731,-9.483,0.413,-0.7718,-0.021,86,3.453,66,0.1832,4.3757,-13.756,-0.7352,0.1357,0.3448,51
3.56,68,14.6204,-1.6099,-11.4954,-0.3738,-0.9382,-0.6792,86,3.505,67,2.9211,3.307,-13.1067,-0.1678,-0.0694,-0.1722,51
3.612,69,13.0311,-6.412,-12.3997,-0.948,-0.723,0.1205,86,3.556,68,6.18,1.4429,-12.2624,0.392,-0.0584,-0.7971,51
3.664,70,4.5094,-9.4738,-7.1877,-0.9064,0.1291,0.7596,86,3.608,69,8.7896,2.4042,-13.1384,0.6927,0.4547,-0.3956,51
3.716,71,7.1223,-1.5625,-13.2111,0.015,-0.5792,1.2321,86,3.66,70,10.2555,6.9436,-16.0173,-0.0012,0.6048,0.3916,51
3.768,72,-0.126,-6.3774,-17.6469,0.3496,0.0527,0.5953,86,3.712,71,10.8093,8.765,-17.7801,-0.1149,0.3133,0.617,51
3.819,73,5.1738,-1.4514,-14.2983,0.4965,-0.635,-0.1043,86,3.764,72,8.7873,8.161,-17.2881,-0.0459,-0.0403,0.1086,51
3.871,74,7.2896,0.6207,-13.2748,0.342,-1.0713,-0.0352,86,3.815,73,4.7489,7.5693,-15.4249,-0.0816,0.1142,-0.4201,51
3.923,75,9.458,0.9258,-13.0407,0.3848,-0.8752,-0.0312,86,3.867,74,1.9956,6.7269,-13.5166,-0.2616,-0.1717,-0.664,51
3.975,76,12.1686,-0.8675,-12.418,0.2386,-1.3121,-0.4825,86,3.919,75,1.9386,5.6213,-12.5415,0.2399,-0.5196,-1.102,51
4.027,77,10.7195,-0.8525,-14.6329,-0.4501,-0.6526,-1.0262,86,3.971,76,5.3248,3.9439,-12.5497,0.6021,-0.4688,-1.4757,51
4.078,78,8.2656,-5.1619,-14.0736,-0.774,0.1873,-0.4393,86,4.023,77,6.1917,4.4571,-11.2541,0.7574,-0.3002,-1.7484,51
4.13,79,0.7085,-4.7418,-16.8433,-0.1458,0.447,0.3571,86,4.074,78,8.2054,3.9396,-12.1345,0.5739,0.2916,-0.716,51
4.182,80,5.7828,1.8911,-20.2979,0.5701,-0.3471,0.7384,86,4.126,79,3.815,5.4935,-15.6581,-0.2582,0.241,0.1578,51
4.234,81,-1.1036,-0.8898,-13.9735,0.0788,0.2918,0.3657,86,4.178,80,2.8861,6.7895,-16.8762,0.4021,-0.2031,0.5971,51
4.286,82,4.4603,-1.0815,-12.6613,0.1105,-0.3106,-0.077,86,4.23,81,0.9722,7.1267,-13.982,-0.1532,-0.3777,0.7508,51
4.337,83,7.3109,0.347,-12.4911,0.1824,-0.8156,-0.1681,86,4.282,82,-2.8786,4.0091,-12.1089,0.132,0.3183,0.7317,51
4.389,84,10.6016,-1.6068,-12.7108,-0.5421,-1.2686,-0.6283,86,4.333,83,-2.0896,4.6091,-12.5913,0.4821,-0.4345,1.0339,51
4.441,85,8.8368,-1.6551,-15.8411,-1.0709,-0.2476,-0.8347,86,4.385,84,2.4069,4.2031,-12.9141,0.2477,-0.4051,0.1269,51
4.493,86,8.9234,-6.445,-16.2434,-0.2077,0.3079,0.0155,86,4.437,85,6.874,2.8709,-13.2164,0.0487,0.2427,0.1607,51
4.545,87,1.1886,-6.8645,-17.9907,0.0189,0.1021,0.6891,86,4.489,86,9.6318,3.9594,-15.574,-0.0223,0.7635,0.1635,51
4.596,88,-4.4567,0.3419,-10.5463,-0.3235,0.7529,0.1069,86,4.54,87,10.7959,5.1016,-17.4458,0.0592,0.8455,0.1335,51
4.648,89,2.0131,1.6495,-10.6838,0.4404,-0.1239,-0.0898,86,4.592,88,9.5526,4.2164,-17.8653,0.1874,0.6625,-0.1665,51
4.7,90,2.1912,0.7354,-10.6033,0.0061,0.4328,-0.4254,86,4.644,89,6.0468,2.7702,-15.2895,0.0213,0.7016,-0.1289,51
4.752,91,5.2012,2.3798,-9.981,0.0667,0.4482,-0.3943,86,4.696,90,3.6829,3.5737,-14.8333,0.0786,0.1215,0.2771,51
4.804,92,8.0133,0.3912,-10.8324,0.4994,-0.3463,-0.7952,86,4.748,91,1.6382,3.451,-14.309,-0.0627,-0.0781,0.2579,51
4.856,93,10.4833,-1.0952,-11.7648,-0.307,0.3092,-1.2544,86,4.799,92,2.604,2.225,-12.4524,0.2865,-0.2405,-0.0421,51
4.907,94,8.1496,-4.5454,-13.6245,0.4137,0.4831,-1.2415,86,4.851,93,4.6643,1.7056,-10.3642,0.6414,-0.0955,-0.3254,51
4.959,95,3.2118,-5.8486,-12.9048,-0.3733,1.031,-1.0157,86,4.903,94,8.5215,4.0936,-12.227,0.7282,0.6109,0.4428,51
5.011,96,2.5712,-4.9117,-12.1553,0.4041,0.079,-0.0636,86,4.955,95,11.3367,3.0359,-12.7797,0.517,1.1308,1.0036,51
5.063,97,-2.699,-8.7729,-16.8763,0.6293,0.736,-0.7204,86,5.007,96,12.6812,4.8776,-14.1103,0.4187,1.2722,1.2458,51
5.115,98,3.2959,-5.1089,-13.6207,0.7083,-0.1362,-0.697,86,5.058,97,9.5044,4.9624,-11.5551,0.3151,1.222,1.3607,51
5.166,99,6.8785,-3.7967,-13.9569,0.6609,0.0121,-0.5975,86,5.11,98,3.8251,3.9837,-11.8332,0.1358,1.5769,1.6557,51
5.218,100,10.286,-3.6215,-13.1048,-0.1039,-0.6646,-1.0757,86,5.162,99,6.302,2.575,-12.8783,0.3617,0.5557,1.8888,51
5.27,101,9.4069,-4.084,-14.6633,-0.751,0.1933,-1.4289,86,5.214,100,3.3844,1.7591,-13.709,0.274,0.8853,1.6317,51
5.322,102,1.6266,-8.2177,-14.8209,-1.2233,0.8194,-0.73,86,5.266,101,1.3942,2.2638,-15.2943,-0.4771,0.785,1.2549,51
5.374,103,6.4529,-0.6457,-18.8218,-1.4307,-0.0753,-0.3149,86,5.317,102,3.807,-3.6446,-16.8598,-1.0253,0.4773,1.2272,51
5.425,104,3.9711,-4.4987,-11.1529,-1.3157,-0.0855,-0.9039,86,5.369,103,4.5563,2.6322,-20.2285,-0.0736,-0.2507,0.2243,51
5.477,105,8.164,-0.3444,-11.3746,-1.1275,-0.6309,-1.3337,86,5.421,104,2.8729,-0.5445,-20.4749,-0.4737,-0.1469,-0.5038,51
5.529,106,7.8649,-2.4907,-14.1916,-1.1624,0.2179,-1.6474,86,5.472,105,2.7968,0.1491,-17.978,-0.0423,0.2142,-0.5692,51
