right_leg_timestamp,right_leg_index,right_leg_accel_x,right_leg_accel_y,right_leg_accel_z,right_leg_gyro_x,right_leg_gyro_y,right_leg_gyro_z,right_leg_battery_percentage,left_leg_timestamp,left_leg_index,left_leg_accel_x,left_leg_accel_y,left_leg_accel_z,left_leg_gyro_x,left_leg_gyro_y,left_leg_gyro_z,left_leg_battery_percentage
0.501,9,9.5559,-0.4031,-7.6016,-0.7943,-0.1544,0.1271,88,0.021,0,-10.3462,0.4089,-7.5425,-0.1636,0.3891,0.0707,52
0.553,10,9.1729,-0.4095,-8.0843,-0.8205,-0.0154,0.2153,88,0.072,1,-10.3624,0.4213,-7.7647,-0.1121,0.4379,-0.0019,52
0.605,11,8.1335,-0.112,-8.9942,-0.7084,0.0654,0.3364,88,0.124,2,-10.4954,0.6001,-8.048,-0.0981,0.4912,-0.0772,52
0.657,12,9.3696,1.4825,-14.5693,-0.6686,-0.4616,0.0793,88,0.176,3,-10.4245,0.4463,-8.1416,-0.0318,0.5604,-0.2223,52
0.709,13,10.3923,0.9352,-16.322,-0.3258,-0.853,0.0916,88,0.228,4,-10.3775,0.6997,-8.8502,0.1408,0.6539,-0.4315,52
0.76,14,11.2584,-0.9621,-15.6823,-0.3492,-0.9294,0.2618,88,0.28,5,-10.4073,-0.1809,-9.1072,0.0789,0.6798,-0.4811,52
0.812,15,11.5089,-1.5519,-14.6004,-0.2262,-0.7175,0.0289,88,0.331,6,-10.4034,-0.3547,-9.2794,0.1892,0.7007,-0.4992,52
0.864,16,13.6654,-0.3622,-8.9999,0.0371,-0.8496,-0.1111,88,0.383,7,-10.5381,-0.7563,-9.5823,0.0923,0.786,-0.4606,52
0.916,17,13.1834,-2.2002,-5.259,0.154,-1.2934,-0.3463,88,0.435,8,-10.6141,-0.2828,-9.2315,0.0886,0.9872,-0.5054,52
0.967,18,10.037,-3.5381,-1.2542,-0.1344,-0.2657,-0.1475,88,0.487,9,-13.2192,0.6832,-7.9043,0.3623,1.4055,-1.0403,52
1.019,19,10.2154,-2.7207,-7.1689,0.5785,0.4845,0.0504,88,0.539,10,-15.1206,-4.6594,-10.1112,0.3585,1.7108,-1.4307,52
1.071,20,12.7214,-4.9348,-2.6481,-0.2346,-0.2215,0.7041,88,0.591,11,-13.8437,-5.8342,-10.7186,0.4776,1.9335,-1.7156,52
1.123,21,14.5336,-2.2585,-6.9532,0.4868,-0.6164,1.1916,88,0.642,12,-9.4376,-5.4243,-12.0981,0.1462,1.5808,-1.916,52
1.175,22,12.7143,-2.5298,-8.4949,0.125,-0.4829,1.2049,88,0.694,13,-3.2974,-3.5074,-13.0011,0.7116,1.0496,-2.0698,52
1.226,23,13.3464,-2.6728,-8.0388,-0.1588,-0.3786,0.9022,88,0.746,14,0.7022,-1.2753,-12.8428,0.6826,0.8336,-2.182,52
1.278,24,14.2313,-4.1914,-4.3008,-0.7898,-0.4201,0.6414,88,0.798,15,0.1341,-0.2047,-12.638,-0.0004,1.0429,-2.2639,52
1.33,25,10.9704,-5.435,-2.5273,-1.2517,-0.3276,0.3677,88,0.85,16,-5.3747,-4.9551,-12.0991,-0.05,1.3349,-2.0439,52
1.382,26,7.3651,-7.7339,-2.0602,-1.1772,0.4392,0.9181,88,0.901,17,-7.1328,-5.7497,-12.7655,-0.0424,0.8836,-0.8114,52
1.433,27,7.5405,-8.9119,-9.5085,-0.1827,0.8631,0.9465,88,0.953,18,-5.4119,-7.3467,-16.1126,0.6269,-0.0219,0.0881,52
1.485,28,0.1792,-4.5656,-10.0269,-0.1289,0.6966,0.3904,88,1.005,19,-4.864,-10.6587,-17.5195,0.4091,-0.3736,0.7447,52
1.537,29,-2.1486,-2.9864,-8.7345,-0.4407,1.1494,0.932,88,1.057,20,-1.8429,-11.6928,-18.8296,-0.3027,-0.9092,0.0622,52
1.589,30,0.5824,-3.5236,-8.4759,-0.3616,0.8626,0.748,88,1.109,21,0.5092,-8.6875,-16.7813,-0.1207,-0.5904,-0.626,52
1.64,31,3.2336,-2.7703,-9.3248,-0.2164,0.313,0.2549,88,1.16,22,0.6255,-7.2833,-15.2294,0.2355,-0.0945,-1.1283,52
1.692,32,7.3903,-1.0657,-9.0354,-0.2535,-0.0018,0.2373,88,1.212,23,-2.5451,-5.7255,-13.1203,-0.1601,0.0895,-1.4949,52
1.744,33,8.2551,-2.7397,-5.0226,-0.5852,-0.2075,-0.1304,88,1.264,24,-5.4938,-9.1316,-13.0722,-0.5703,0.0771,-1.2847,52
1.796,34,7.3161,-4.7995,-1.0816,-0.9636,-0.0631,-0.5976,88,1.316,25,-7.1092,-11.9466,-13.6043,-0.0014,-0.5699,-0.2575,52
1.848,35,6.0544,-6.0356,-2.6283,-0.8448,0.6323,0.1974,88,1.368,26,-7.0659,-12.2437,-14.8023,0.6737,-0.7871,0.4924,52
1.9,36,5.9373,-6.219,-9.9231,0.06,0.4987,0.5206,88,1.419,27,-8.1733,-13.4455,-17.178,0.7893,-0.6104,1.0398,52
1.952,37,-0.9909,-3.9319,-6.5879,-0.2761,0.3215,0.3108,88,1.471,28,-8.2262,-13.6638,-18.0353,0.3752,-0.442,0.7811,52
2.004,38,-0.2834,-2.3153,-9.116,-0.2726,-0.1008,0.4136,88,1.523,29,-6.3366,-14.3219,-16.4329,-0.1973,-0.1746,-0.1013,52
2.055,39,2.7398,-2.4787,-10.5999,-0.3378,-0.2428,0.412,88,1.575,30,-1.8112,-10.9219,-13.7458,-0.4021,0.1598,-0.7453,52
2.107,40,7.2654,-1.057,-10.2479,-0.5563,-0.2289,0.3607,88,1.626,31,0.1671,-8.4712,-12.217,-0.3275,0.3571,-1.2154,52
2.159,41,6.9126,-3.0624,-7.9916,-1.0044,0.2848,0.1146,88,1.678,32,-3.1491,-7.3825,-11.5774,-0.9161,0.3719,-1.5584,52
2.211,42,6.1947,-5.1238,-3.2485,-1.4083,0.4364,-0.2905,88,1.73,33,-7.4214,-10.6849,-13.3624,-1.0776,0.0743,-1.1898,52
2.262,43,4.8522,-6.0122,-1.2013,-0.4952,0.9969,0.3536,88,1.782,34,-7.6254,-12.5545,-14.9492,-0.5286,-0.5789,-0.1881,52
2.314,44,4.0042,-5.1677,-8.8816,0.3151,1.4059,0.6508,88,1.834,35,-7.4436,-13.5819,-17.3009,0.2889,-1.0893,0.5431,52
2.366,45,8.1882,-2.1356,-12.0297,0.9065,0.3527,0.2686,88,1.885,36,-6.5289,-15.2095,-19.9021,0.2045,-1.1756,1.0767,52
2.418,46,11.2419,-6.7957,-10.4317,-0.0095,-0.416,-0.0059,88,1.937,37,-2.9902,-14.3688,-20.1014,-0.2475,-0.8923,0.3395,52
2.47,47,11.7916,-6.0606,-11.5861,-0.1385,-0.4804,-0.0766,88,1.989,38,2.3589,-10.1562,-17.0526,-0.4953,0.0091,-0.4236,52
2.521,48,13.8718,-1.8297,-7.6403,-0.3458,-0.25,0.2158,88,2.041,39,3.9134,-7.8957,-14.8613,-0.8483,0.6916,-0.9806,52
2.573,49,13.0854,-2.5956,-4.8678,0.3786,-0.7345,-0.4589,88,2.092,40,1.5238,-6.9717,-14.065,-0.9615,1.1897,-1.3871,52
2.625,50,7.8224,-2.1665,-0.9687,-0.3989,0.0247,-0.6236,88,2.144,41,-4.3605,-7.4363,-13.6658,-0.4097,1.083,-1.2947,52
2.677,51,6.7939,-2.9668,-5.0264,-0.6763,0.6963,0.2123,88,2.196,42,-8.6551,-9.4297,-14.9498,-0.2505,0.2258,-0.2645,52
2.729,52,4.246,-4.563,-11.6734,0.1829,0.562,0.4884,88,2.248,43,-7.7192,-11.8278,-17.254,0.1788,-0.502,0.4873,52
2.78,53,-2.2252,-0.0195,-6.1954,-0.4742,0.153,0.7996,88,2.3,44,-7.8583,-12.6543,-20.5715,-0.2986,-1.0332,1.036,52
2.832,54,0.4307,-1.5579,-8.9476,-0.6079,-0.2239,0.6531,88,2.352,45,-5.8318,-14.5325,-21.525,-0.7834,-0.1738,0.8141,52
2.884,55,5.4243,-1.1579,-9.6058,-0.63,-0.2321,0.5381,88,2.403,46,-0.7136,-9.0169,-17.8585,-0.2615,0.5581,-0.066,52
2.936,56,6.2279,-0.8253,-8.3958,-0.993,0.2727,0.2533,88,2.455,47,-0.5275,-8.6304,-16.0026,-0.8519,1.0923,-0.7195,52
2.988,57,8.9273,-4.7227,-3.5436,-0.5247,-0.3145,0.525,88,2.507,48,-5.8576,-6.9666,-13.8782,-0.3218,1.4822,-0.9448,52
3.039,58,3.7616,-5.1818,-0.0022,-1.0582,0.4488,0.279,88,2.559,49,-6.8302,-10.3814,-15.1997,-0.5681,1.068,-0.0449,52
3.091,59,5.7013,-4.5164,-8.0065,-0.2458,1.0059,0.7293,88,2.611,50,-5.8374,-12.8736,-19.0746,-0.0616,0.1127,0.6476,52
3.143,60,3.7312,2.0557,-3.2602,0.2194,1.2748,0.8721,88,2.662,51,-8.9363,-14.6925,-21.9027,-0.5864,-0.5827,1.153,52
3.195,61,6.4152,1.3111,-7.0497,-0.0176,1.2709,0.4273,88,2.714,52,-8.0606,-13.9058,-23.9667,-0.4199,-0.5078,0.3304,52
3.247,62,8.2101,0.5138,-8.8057,-0.1555,0.7065,0.3316,88,2.766,53,-0.7657,-10.5435,-20.2779,-0.3964,0.1426,-0.4303,52
3.298,63,11.2578,-0.5605,-5.2491,-0.4127,0.1222,0.4346,88,2.818,54,2.3321,-5.2481,-16.8929,-0.6077,0.7891,-0.9854,52
3.35,64,13.4822,-1.8777,-3.0374,-0.4607,-0.5842,0.1112,88,2.869,55,0.6789,-5.7323,-14.4224,-0.6402,1.2609,-1.3906,52
3.402,65,11.6036,-4.5911,0.3672,-1.0115,0.2518,0.649,88,2.921,56,-4.9771,-8.303,-13.9567,-0.9242,1.1841,-0.8165,52
3.454,66,5.1197,-4.5015,-7.6852,-0.0617,0.8621,1.0559,88,2.973,57,-9.1052,-7.3136,-15.1247,-0.4952,0.1974,0.0844,52
3.506,67,9.0023,2.0665,-3.0249,0.56,0.574,0.4345,88,3.025,58,-11.1937,-10.6346,-19.0198,0.2834,-0.5227,0.742,52
3.557,68,8.1164,1.2866,-9.5114,-0.0486,-0.2545,-0.3569,88,3.077,59,-8.3114,-13.0584,-21.8627,-0.2356,-0.722,1.2106,52
3.609,69,9.4923,0.2042,-11.199,-0.1346,-0.5704,-0.3876,88,3.128,60,-0.9488,-11.9152,-20.5884,0.1758,-0.0311,0.5615,52
3.661,70,12.1936,1.5179,-10.1931,0.0647,-0.6734,-0.1769,88,3.18,61,3.2299,-8.8521,-18.5254,0.0811,0.6622,-0.2616,52
3.713,71,12.2107,-0.7218,-6.7469,-0.3036,-0.9026,-0.0332,88,3.232,62,1.8907,-6.9872,-15.5771,0.1408,1.1683,-0.8623,52
3.765,72,11.4935,0.7007,-2.3401,-0.736,-0.4578,-0.3456,88,3.284,63,-4.0927,-7.5276,-13.847,-0.5743,1.3407,-0.8763,52
3.816,73,8.6286,-1.0531,-2.8575,-1.2124,0.3442,0.228,88,3.336,64,-8.4596,-6.8046,-14.9529,0.2446,0.3683,0.0408,52
3.868,74,6.2682,-2.0188,-10.0904,-0.4396,0.9296,0.8441,88,3.387,65,-8.1344,-10.2631,-18.8945,0.8315,-0.398,0.7101,52
3.92,75,3.9173,-1.0861,-11.3521,0.2433,1.0306,0.8645,88,3.439,66,-7.9664,-12.4002,-21.7712,0.1486,-0.9573,1.1986,52
3.972,76,8.1247,-2.7431,-16.2901,-0.4977,0.0787,0.8695,88,3.491,67,-3.6586,-12.2074,-23.8708,-0.4767,-0.7641,0.5353,52
4.024,77,9.7092,-2.8567,-15.1499,-0.448,-0.3025,0.6106,88,3.543,68,1.7595,-9.8209,-21.6381,-1.0091,0.1273,-0.2807,52
4.075,78,12.352,-2.9054,-11.8072,-0.8128,-0.3473,0.7029,88,3.594,69,1.8728,-8.1056,-19.6103,-0.8294,0.7779,-0.8763,52
4.127,79,12.3093,-4.957,-8.0829,-1.0936,-0.8861,0.4418,88,3.646,70,-2.2165,-7.4997,-17.746,-0.6117,1.2527,-1.0058,52
4.179,80,6.7648,-4.7805,-3.3152,-1.4734,0.0316,0.6433,88,3.698,71,-7.0903,-10.7704,-18.1208,-0.7384,1.3017,-0.2253,52
4.231,81,5.6579,-3.4951,-6.3747,-0.3988,0.7015,0.8502,88,3.75,72,-7.8224,-10.2732,-18.295,-0.0301,0.2833,0.5159,52
4.283,82,4.9449,-7.7879,-12.6574,0.3855,0.0563,1.0142,88,3.802,73,-7.8057,-12.7947,-19.3603,0.3851,-0.46,1.0569,52
4.334,83,-1.7151,-6.5485,-17.2428,0.6199,-0.0077,0.1242,88,3.854,74,-6.1944,-14.4318,-22.1112,0.2541,-0.6647,1.0486,52
4.386,84,4.014,-7.3643,-16.6397,0.1067,-0.679,0.1977,88,3.905,75,-1.3103,-13.4108,-21.2108,0.053,-0.3392,0.0939,52
4.438,85,6.7106,-5.8581,-15.9302,0.0106,-0.5693,-0.1288,88,3.957,76,1.8533,-10.3533,-18.6156,-0.0924,0.323,-0.6029,52
4.49,86,10.0385,-3.167,-13.9968,-0.429,0.1704,-0.1948,88,4.009,77,1.1939,-7.5662,-15.8924,0.2195,0.6921,-1.1114,52
4.542,87,8.3182,-4.2678,-7.6314,-0.2525,0.2099,-0.7311,88,4.061,78,-3.3706,-6.5738,-13.5071,-0.15,0.9622,-1.4826,52
4.593,88,5.8028,-7.4486,-5.3696,-0.5692,0.8316,-0.1729,88,4.113,79,-2.6936,-10.0946,-13.9362,0.0834,0.575,-0.5016,52
4.645,89,4.8829,-7.0325,-11.9238,0.2376,1.2853,0.525,88,4.164,80,-3.0801,-11.6313,-17.4934,0.0369,-0.2471,0.3143,52
4.697,90,0.5335,0.2193,-16.7074,0.2892,0.295,0.0308,88,4.216,81,-3.3874,-13.7858,-20.7487,0.7016,-0.837,0.9097,52
4.749,91,-4.9348,0.0851,-20.1987,0.5492,-0.1318,-0.3185,88,4.268,82,-4.0336,-15.3583,-23.1245,-0.1221,-1.161,0.1797,52
4.801,92,1.4433,-2.1187,-18.1724,0.184,-0.4932,0.0484,88,4.32,83,2.1734,-12.6836,-20.0524,-0.3824,-0.6223,-0.5403,52
4.853,93,4.413,-1.8983,-17.0236,0.0835,-0.5289,-0.0735,88,4.371,84,3.3871,-10.5456,-16.8721,-0.4748,0.2308,-1.0657,52
4.904,94,8.4865,-0.4493,-13.8295,-0.0962,-0.5612,0.2502,88,4.423,85,0.6788,-9.7402,-13.8298,-0.0756,0.8534,-1.4492,52
4.956,95,9.3787,-2.3953,-10.1932,-0.5381,-0.5038,0.2915,88,4.475,86,-4.9772,-9.4303,-12.1098,-0.7323,0.7872,-1.672,52
5.008,96,8.4135,-1.2538,-4.8554,-0.5678,0.1786,0.1632,88,4.527,87,-6.5411,-11.2198,-12.8268,-0.1284,-0.056,-0.541,52
5.06,97,7.49,-1.4112,-3.4439,-0.6157,0.8087,0.3571,88,4.579,88,-7.3827,-12.4746,-17.0025,-0.0628,-0.7076,0.2855,52
5.112,98,6.1594,-0.8526,-9.0579,0.2271,1.2686,0.1791,88,4.63,89,-8.47,-9.2646,-20.3899,0.1089,-0.6266,0.8887,52
5.163,99,6.6636,4.0111,-14.6157,0.0123,0.5428,0.0494,88,4.682,90,-7.4828,-12.0585,-22.8626,-0.2491,-0.0054,1.2714,52
5.215,100,10.1291,3.7314,-14.7833,0.6355,0.1263,0.7138,88,4.734,91,-4.6442,-12.678,-21.99,-0.8529,0.681,0.3924,52
5.267,101,10.3985,1.5763,-13.731,0.2975,0.2434,0.5348,88,4.786,92,-2.1515,-11.1932,-18.4344,-0.8238,1.182,-0.385,52
5.319,102,12.855,1.155,-10.1707,0.0418,0.2424,0.4331,88,4.838,93,-1.9183,-8.3778,-15.7243,0.0274,1.5476,-0.9524,52
5.37,103,12.5176,-0.1211,-8.3299,0.0475,-0.449,-0.0557,88,4.889,94,-1.5421,-4.8582,-13.8778,0.4531,1.8145,-1.3665,52
5.422,104,10.3879,2.1338,-3.4955,0.6198,0.1943,-0.6767,88,4.941,95,-2.938,-3.7376,-14.6898,-0.2305,1.6193,-1.6468,52
5.474,105,8.6851,-1.3464,-5.1905,1.1289,0.8202,-0.8295,88,4.993,96,-5.9338,-7.6303,-14.9517,0.5064,0.6787,-1.125,52
5.526,106,5.5582,-3.2881,-11.7931,1.5004,0.9282,-1.0748,88,5.045,97,-4.6091,-7.4758,-16.8517,0.1704,-0.1715,-0.1408,52
5.578,107,7.6736,-0.9346,-13.8516,1.7716,0.8506,-1.4584,88,5.097,98,-1.1775,-8.0191,-18.861,0.799,-0.7919,0.4034,52
5.629,108,10.8663,0.4777,-14.7332,1.4685,0.6625,-1.1864,88,5.148,99,-0.485,-9.981,-19.1612,0.2433,-1.2448,-0.2114,52
5.681,109,10.1165,-0.0015,-13.6216,0.9936,0.9053,-0.6539,88,5.2,100,-0.1814,-8.4508,-17.7183,-0.0285,-1.3748,-0.8257,52
5.733,110,9.5559,-0.2404,-12.3765,0.6525,0.9798,-0.2379,88,5.252,101,-0.1352,-6.6685,-16.4518,-0.1463,-1.1458,-1.274,52
5.785,111,9.4476,-0.5893,-11.2745,0.7117,0.7628,-0.0992,88,5.304,102,-1.5062,-4.3392,-14.6553,-0.1091,-0.899,-1.6012,52
5.837,112,9.3943,-0.9682,-10.4985,0.6918,0.4323,0.0617,88,5.356,103,-1.1195,-6.0593,-15.1054,-0.7329,-0.6851,-1.8401,52
5.888,113,9.5776,-1.2557,-10.0558,0.6183,0.1327,0.0862,88,5.408,104,0.3668,-6.5815,-15.5824,0.1398,-1.1617,-1.0898,52
5.94,114,9.375,-1.468,-10.0314,0.5986,-0.134,0.0204,88,5.459,105,-1.4153,-4.7893,-17.3626,0.5157,-1.5146,-0.2312,52
5.992,115,9.5876,-1.3218,-9.8182,0.5975,-0.365,-0.1148,88,5.511,106,-2.8671,-3.1967,-16.7747,0.2249,-1.7722,0.3207,52
6.044,116,9.7174,-1.2202,-10.3143,0.8154,-0.4865,-0.3009,88,5.563,107,-4.2464,-3.8424,-17.1447,-0.262,-1.9602,0.7093,52
