right_leg_timestamp,right_leg_index,right_leg_accel_x,right_leg_accel_y,right_leg_accel_z,right_leg_gyro_x,right_leg_gyro_y,right_leg_gyro_z,right_leg_battery_percentage,left_leg_timestamp,left_leg_index,left_leg_accel_x,left_leg_accel_y,left_leg_accel_z,left_leg_gyro_x,left_leg_gyro_y,left_leg_gyro_z,left_leg_battery_percentage
0.566,10,8.7868,-2.0752,-12.714,1.392,-0.8798,0.2535,94,0.139,2,5.1385,5.6923,-14.6891,-0.7328,0.8795,-1.0837,64
0.618,11,7.6472,-4.641,-14.3523,1.1238,-1.2428,0.4661,94,0.191,3,7.6221,0.5283,-18.702,-1.1911,1.1215,-1.4623,64
0.669,12,8.7723,-2.8304,-13.7795,1.2208,-1.2716,0.4564,94,0.243,4,10.6017,-3.0012,-11.0418,-1.1101,0.2526,-0.6409,64
0.721,13,9.1724,-2.061,-13.3948,0.8954,-1.0098,0.5758,94,0.295,5,5.048,-1.8853,-14.7397,-1.1235,0.294,-0.1937,64
0.773,14,9.2368,-1.5384,-12.6215,0.8949,-0.8984,0.6461,94,0.347,6,8.5774,0.6717,-13.9885,-0.7348,0.3638,0.0004,64
0.825,15,8.9553,-1.5062,-12.2524,0.5858,-1.0381,0.8585,94,0.398,7,8.8215,0.7891,-13.2467,-0.3954,0.582,0.2141,64
0.876,16,10.2374,0.3766,-11.5809,-0.0929,-1.4311,1.0361,94,0.45,8,8.6463,0.3666,-12.1275,-0.4373,0.5598,0.3952,64
0.928,17,12.7374,1.4318,-11.7966,-0.743,-1.7179,1.0771,94,0.502,9,8.3354,0.3181,-11.3719,-0.5364,0.2418,0.8124,64
0.98,18,12.9827,0.0656,-11.0557,-1.2175,-0.964,0.439,94,0.554,10,9.4701,0.3069,-11.7043,-0.4822,-0.1904,1.2733,64
1.032,19,10.6821,-1.3775,-9.4387,-1.3292,-0.0252,0.1404,94,0.606,11,9.4504,-1.7475,-11.3299,-0.5023,-0.0741,1.2241,64
1.084,20,8.4783,-0.7427,-10.0929,-0.3276,0.66,0.2639,94,0.657,12,10.3503,-1.5014,-14.0716,-0.6784,-0.3717,1.1329,64
1.135,21,9.1893,-0.519,-13.1912,-0.8979,1.16,0.4703,94,0.709,13,9.6131,-3.5827,-14.7877,-0.4023,-0.9381,1.3601,64
1.187,22,10.2287,-0.2082,-17.6324,-0.1136,1.3676,0.1798,94,0.761,14,8.552,-4.7265,-13.3605,-0.3109,-1.3515,1.6364,64
1.239,23,9.5607,2.1809,-16.2379,0.4354,0.3366,0.0388,94,0.813,15,9.0036,-4.7175,-14.1077,-0.3355,-1.6531,1.814,64
1.291,24,10.1515,1.8154,-15.1832,0.3377,0.0732,0.0516,94,0.865,16,9.4409,-4.6616,-15.1135,0.3026,-1.8733,1.9592,64
1.343,25,10.0276,1.9059,-14.1031,0.1706,-0.0567,0.1692,94,0.916,17,9.5685,-4.4526,-15.3924,0.8955,-2.034,1.9501,64
1.394,26,9.753,1.3141,-13.2004,0.0515,0.0133,0.2149,94,0.968,18,8.8389,-4.3584,-14.8185,1.2358,-2.1248,1.8949,64
1.446,27,10.2789,0.8378,-12.3991,-0.0032,-0.2089,0.0316,94,1.02,19,8.0061,-4.5594,-14.613,1.1862,-2.0954,1.8829,64
1.498,28,10.2245,0.7652,-12.3536,0.0454,-0.5363,0.0166,94,1.072,20,6.9746,-4.8555,-14.367,1.121,-1.97,1.8302,64
1.55,29,10.2454,0.571,-12.3307,0.0551,-0.4024,0.0458,94,1.123,21,6.0099,-5.0177,-14.7052,0.9544,-1.6723,1.6169,64
1.602,30,10.0667,0.4013,-12.1589,0.1022,-0.181,0.1143,94,1.175,22,5.0134,-5.5046,-15.1289,0.721,-1.3108,1.0949,64
1.653,31,9.8781,0.1604,-11.8822,0.101,-0.2064,0.1579,94,1.227,23,4.0756,-5.8954,-15.0748,0.3662,-0.8896,0.1764,64
1.705,32,9.9719,-0.0207,-12.0039,0.0592,-0.3995,0.1433,94,1.279,24,3.412,-7.635,-15.1107,-0.4092,-0.3842,-0.5427,64
1.757,33,9.8647,-0.0892,-12.081,0.0353,-0.562,0.1055,94,1.331,25,3.2158,-9.821,-17.0246,-0.9757,0.0018,-1.0666,64
1.809,34,9.8763,-0.2163,-11.9879,0.0071,-0.8029,0.0685,94,1.382,26,2.1459,-12.3577,-18.1128,-0.9854,0.0957,-0.9468,64
1.861,35,9.5662,-0.1402,-12.4337,-0.0023,-1.0418,-0.0435,94,1.434,27,0.3629,-11.9945,-16.9518,-0.8986,-0.215,-0.2382,64
1.912,36,9.4872,0.2093,-13.0266,0.124,-1.2542,-0.1176,94,1.486,28,-0.7573,-9.5924,-13.2117,-0.5899,-0.2577,0.215,64
1.964,37,10.2167,0.4413,-13.7974,0.4418,-0.5282,0.1035,94,1.538,29,-0.6687,-5.3505,-10.1808,0.0133,0.0795,0.3133,64
2.016,38,12.7223,2.786,-11.6618,0.0822,-0.9063,0.3967,94,1.589,30,0.1737,-1.6353,-11.0818,0.6844,0.2984,-0.4174,64
2.068,39,13.1336,1.1859,-10.6477,0.4843,-1.3349,-0.1535,94,1.641,31,5.2253,-0.914,-15.1446,-0.1776,0.5966,-0.7412,64
2.12,40,11.68,3.1129,-5.1871,-0.3218,-0.3548,-0.2335,94,1.693,32,8.0961,-5.8105,-19.0344,-0.4831,0.8798,-0.7369,64
2.171,41,13.167,1.7741,-11.3331,-0.0931,0.4194,0.5073,94,1.745,33,8.9561,-8.2844,-19.7598,-0.7261,0.7109,0.0737,64
2.223,42,4.2857,6.6467,-16.2763,0.6086,0.6382,0.4507,94,1.796,34,7.8984,-7.5725,-17.8283,-0.2722,0.6563,0.4951,64
2.275,43,-2.1963,5.0295,-16.3952,0.8162,1.1279,-0.3451,94,1.848,35,6.8063,-6.0496,-15.9722,-0.0661,0.7285,0.2808,64
2.327,44,3.6628,3.1479,-13.9268,0.3954,0.5985,0.0537,94,1.9,36,6.7474,-5.7248,-16.4662,0.0149,0.6714,-0.3605,64
2.378,45,5.4473,2.0504,-13.4422,0.1945,0.2946,0.1458,94,1.952,37,6.023,-7.2805,-17.9475,0.0011,0.4236,-0.4508,64
2.43,46,6.3501,1.1035,-13.2402,0.0824,-0.2686,-0.0653,94,2.004,38,4.3539,-6.6449,-18.5436,0.0358,0.0772,0.1278,64
2.482,47,7.418,1.336,-13.1685,0.1075,-0.5781,-0.3917,94,2.056,39,2.2117,-4.6006,-15.7431,-0.2981,-0.026,0.2264,64
2.534,48,8.516,1.4742,-13.3409,0.2646,-0.624,-0.4931,94,2.108,40,1.56,-2.9449,-13.0771,-0.8946,0.3947,-0.0835,64
2.586,49,11.4811,2.9647,-11.5491,0.0974,-1.1079,-0.0,94,2.159,41,2.348,-1.72,-11.8658,-0.5494,0.7589,-0.7324,64
2.638,50,10.0487,-0.3797,-7.5492,0.1086,-1.482,-0.5139,94,2.211,42,-3.759,-0.7319,-13.1252,-0.7078,0.8884,-1.2059,64
2.689,51,9.6628,0.6974,-4.533,-0.5717,-1.6935,-0.3747,94,2.263,43,2.3738,-3.944,-16.9199,-0.3778,0.6985,-1.5515,64
2.741,52,10.4903,-2.3912,-2.4541,-1.0925,-0.5576,0.4043,94,2.315,44,6.8498,-6.125,-16.5832,-0.2952,0.5909,-0.7402,64
2.793,53,9.5638,-1.2005,-9.796,-0.1208,0.2714,0.6929,94,2.366,45,9.1146,-5.7354,-14.6685,0.1171,0.6919,0.0641,64
2.845,54,10.6884,4.4757,-15.1544,0.2504,-0.1403,0.1234,94,2.418,46,8.6164,-4.0608,-13.8645,0.6375,0.9067,0.2963,64
2.896,55,7.0097,1.5056,-16.1569,0.3346,-0.626,0.4566,94,2.47,47,6.4305,-1.8529,-13.5607,0.9717,1.0577,0.1424,64
2.948,56,5.7994,1.6062,-14.5357,0.2742,-0.5379,0.0975,94,2.522,48,3.0506,-0.1943,-12.0107,0.9253,1.1031,-0.3298,64
3.0,57,6.7096,1.3322,-13.0262,0.1873,-0.5328,-0.0831,94,2.573,49,2.1286,1.2452,-11.6568,0.8357,1.4042,-0.9121,64
3.052,58,7.752,1.1255,-12.2649,0.4278,-0.4171,-0.3813,94,2.625,50,2.7331,1.6194,-15.1877,-0.0672,1.4856,-1.3335,64
3.104,59,8.9126,1.1488,-11.6357,0.4064,-0.5649,-0.6184,94,2.677,51,7.112,-4.1149,-19.0658,0.6256,0.57,-1.543,64
3.156,60,10.1331,2.0586,-11.1199,0.3415,-0.6758,-0.553,94,2.729,52,10.308,-4.7151,-14.9645,-0.2204,-0.0446,-0.5555,64
3.207,61,9.6784,1.6814,-11.5654,0.1498,-0.782,-0.524,94,2.781,53,9.5539,-3.1994,-15.2364,0.4289,-0.1411,-0.448,64
3.259,62,8.84,1.491,-11.3797,0.1138,-0.9789,-0.7097,94,2.832,54,9.8228,-2.9741,-14.2751,0.2482,0.0782,-0.1627,64
3.311,63,8.4328,2.6366,-11.7861,-0.1691,-1.3879,-0.9023,94,2.884,55,9.6793,-1.863,-13.2997,0.1158,0.0828,0.1472,64
3.363,64,11.4204,1.6665,-12.128,0.0357,-1.6863,-1.1905,94,2.936,56,9.1569,-1.2875,-12.9077,0.2143,-0.0012,0.4912,64
3.415,65,11.8348,0.609,-12.4615,0.7026,-1.5211,-1.1534,94,2.988,57,8.5939,-1.2132,-12.8939,0.4331,-0.0635,0.7429,64
3.466,66,10.2542,1.8906,-11.1416,-0.1414,-0.4343,-0.6373,94,3.039,58,9.3169,-1.2532,-12.6233,0.8024,-0.1864,1.0682,64
3.518,67,9.3124,2.0065,-10.1559,-0.7784,0.3614,0.1962,94,3.091,59,10.1401,-0.9001,-12.1811,0.9236,-0.1532,1.3852,64
3.57,68,9.5599,2.8593,-11.6726,0.1084,0.9421,0.7564,94,3.143,60,11.4501,-2.3996,-13.0351,0.3821,-0.5989,1.6913,64
3.622,69,10.1412,2.5074,-14.4689,-0.1375,1.3659,0.7212,94,3.195,61,10.5253,-3.7685,-15.3814,-0.3982,-1.1039,1.9148,64
3.674,70,8.2232,1.5156,-18.5649,-0.6147,0.7317,0.9183,94,3.247,62,9.9902,-2.7112,-14.031,0.3841,-1.2533,2.0677,64
3.725,71,11.2674,2.7675,-15.0338,-0.1858,0.1186,0.399,94,3.298,63,8.8918,-1.0219,-11.4693,-0.3968,-1.1668,1.5018,64
3.777,72,10.7187,1.8564,-13.8676,-0.128,-0.0936,0.5065,94,3.35,64,8.036,0.3446,-9.941,-0.9667,-0.2078,0.4289,64
3.829,73,10.2071,1.5628,-13.6151,-0.0309,-0.3703,0.3168,94,3.402,65,8.4661,0.825,-10.0827,-1.2124,0.5333,-0.3583,64
3.881,74,10.325,1.79,-12.9426,0.052,-0.37,0.2115,94,3.454,66,10.1897,0.4452,-12.9941,-1.5619,1.0742,-0.9329,64
3.933,75,10.0485,1.4529,-12.5834,-0.1216,-0.3961,0.3447,94,3.506,67,10.5258,-3.7521,-17.3089,-1.0169,1.466,-1.3523,64
3.984,76,9.7522,0.8979,-12.5655,-0.2968,-0.3961,0.3934,94,3.558,68,12.443,-8.0352,-18.0526,-1.0664,0.6415,-0.4059,64
4.036,77,9.5692,0.4386,-12.5242,-0.402,-0.3695,0.3959,94,3.609,69,10.533,-7.6168,-17.3918,-0.8338,0.0266,-0.0573,64
4.088,78,9.3391,0.2767,-12.4011,-0.4324,-0.4152,0.3578,94,3.661,70,10.2443,-4.8195,-16.2283,-0.5526,-0.0543,0.0587,64
4.14,79,9.371,0.1616,-11.9581,-0.4618,-0.7602,0.2591,94,3.713,71,9.5728,-3.262,-15.3418,-0.3128,0.0058,0.1149,64
4.191,80,10.2695,1.2018,-11.2432,-0.4202,-1.2282,0.0493,94,3.765,72,9.4123,-2.0807,-14.4092,-0.2286,-0.0332,0.2049,64
4.243,81,12.0755,1.6703,-12.3009,-0.3919,-1.5698,-0.0771,94,3.816,73,9.2411,-1.4799,-13.882,-0.1936,-0.1217,0.3342,64
4.295,82,10.4606,-1.1638,-14.4347,-0.4504,-1.6726,-0.234,94,3.868,74,9.4099,-1.2038,-13.5479,-0.0992,-0.1329,0.4331,64
4.347,83,7.8158,-1.0121,-12.5868,-0.4829,-0.5424,-0.2925,94,3.92,75,9.9231,-0.573,-12.6908,0.1064,-0.3047,0.694,64
4.399,84,6.8668,-0.4787,-11.7966,-0.4642,0.2825,0.0431,94,3.972,76,9.5541,-0.1421,-12.3202,0.1026,-0.5346,1.1066,64
4.45,85,7.596,-0.0798,-11.962,-0.2788,0.8845,0.5151,94,4.024,77,10.9488,-1.5183,-13.0721,0.1901,-0.7916,1.4418,64
4.502,86,9.2506,0.7027,-14.2126,0.2523,1.3239,0.6097,94,4.075,78,11.6397,-3.9986,-14.5503,0.0301,-1.2445,1.7326,64
4.554,87,8.6673,-0.0711,-18.3778,0.2301,1.0046,0.3813,94,4.127,79,13.6125,-3.5188,-15.9611,0.6568,-1.5751,1.9449,64
4.606,88,9.4544,-0.75,-18.1414,0.3069,0.0774,-0.025,94,4.179,80,14.0671,-0.9909,-15.0067,1.154,-1.8164,1.6589,64
4.658,89,8.7017,-0.143,-16.4073,0.3454,-0.4918,-0.1635,94,4.231,81,11.6608,0.521,-13.0017,0.7398,-1.3893,0.5393,64
4.709,90,8.9284,0.1197,-15.5576,0.3705,-0.7634,-0.0083,94,4.283,82,10.8073,-0.0636,-13.0906,-0.1371,-0.329,-0.2778,64
4.761,91,9.245,-0.028,-14.5531,0.4215,-0.8363,0.0808,94,4.334,83,9.9772,-5.3432,-15.3158,-0.7771,0.4449,-0.7156,64
4.813,92,9.0365,0.123,-14.3397,0.4021,-1.0772,0.1373,94,4.386,84,6.901,-6.7257,-17.8997,-1.0496,0.5347,0.137,64
4.865,93,8.9097,-0.0566,-14.3533,0.3094,-1.3328,0.1816,94,4.438,85,4.8829,-4.9792,-18.5766,-1.1158,0.3262,0.7803,64
4.917,94,8.9934,-0.0925,-14.7644,0.1113,-1.6139,0.0002,94,4.49,86,2.9853,-3.6621,-17.2172,-0.9581,0.2707,1.0216,64
4.968,95,10.9443,1.9149,-15.5925,0.1589,-1.4261,0.0284,94,4.541,87,1.5173,-1.3833,-14.5833,-0.427,0.3071,0.1194,64
5.02,96,13.2533,0.5134,-10.9988,-0.4026,-0.3712,0.2791,94,4.593,88,2.9681,-0.4219,-11.9392,-0.1222,0.0407,-0.5843,64
5.072,97,12.678,-2.7677,-8.2241,-0.969,-0.5784,0.2368,94,4.645,89,3.5906,-3.1253,-9.3653,0.0669,0.0137,-1.0978,64
5.124,98,11.9726,-3.2816,-8.1618,-1.3825,-0.914,0.4051,94,4.697,90,7.7379,-3.0093,-13.5681,0.6228,0.695,-1.1066,64
5.176,99,9.2886,-4.7332,-4.297,-1.4014,0.0113,0.9734,94,4.749,91,10.7647,-0.8704,-14.2174,-0.0905,0.7146,-0.2306,64
5.227,100,4.481,-2.8506,-11.1411,-0.3463,0.6866,0.9615,94,4.8,92,11.4777,-0.1438,-14.7658,-0.435,0.193,0.1872,64
5.279,101,8.5362,1.4543,-9.636,0.0859,0.0375,0.3656,94,4.852,93,8.0018,1.5957,-12.4642,-0.0911,0.1164,-0.1683,64
5.331,102,11.4958,-0.9005,-7.4476,-0.4089,-0.6301,0.6218,94,4.904,94,6.9026,2.7021,-10.6417,-0.3935,0.4978,-0.7143,64
5.383,103,10.4334,-1.4255,-8.4152,0.1268,-1.1333,-0.1508,94,4.956,95,6.3007,1.5297,-11.4196,-0.9258,1.0483,-1.029,64
5.435,104,10.448,-0.3627,-10.3809,0.1174,-1.5005,-0.1262,94,5.008,96,3.7919,-0.7642,-12.1178,-1.3458,1.4501,-1.2633,64
5.486,105,10.6462,-0.0747,-11.7006,0.0577,-1.0731,-0.1663,94,5.059,97,5.2931,-2.9605,-16.8253,-1.6593,1.564,-1.256,64
5.538,106,13.0358,3.5075,-11.5647,0.1063,-0.9119,0.5157,94,5.111,98,6.1741,-1.3139,-20.261,-1.2061,1.5833,-0.6912,64
5.59,107,10.3759,1.2781,-10.2296,-0.1237,-1.228,0.1663,94,5.163,99,2.33,-5.23,-22.7686,-1.4997,1.7559,0.1759,64
