right_leg_timestamp,right_leg_index,right_leg_accel_x,right_leg_accel_y,right_leg_accel_z,right_leg_gyro_x,right_leg_gyro_y,right_leg_gyro_z,right_leg_battery_percentage,left_leg_timestamp,left_leg_index,left_leg_accel_x,left_leg_accel_y,left_leg_accel_z,left_leg_gyro_x,left_leg_gyro_y,left_leg_gyro_z,left_leg_battery_percentage
0.131,2,7.8006,0.4759,-16.3158,0.1895,-0.7526,-0.14,91,0.192,3,8.1902,2.3,-9.7883,0.2535,-0.225,0.2054,62
0.183,3,8.9153,0.5232,-17.2757,0.0818,-0.6179,-0.0191,91,0.244,4,7.8507,2.639,-10.6576,0.0225,-0.6107,0.2952,62
0.234,4,10.6155,1.1442,-17.3522,-0.0182,-0.3823,0.1031,91,0.295,5,8.1726,1.6871,-11.4561,0.0604,-0.7614,0.3626,62
0.286,5,12.4176,0.3812,-16.2953,-0.5149,0.2967,0.2685,91,0.347,6,8.458,1.3352,-12.3374,0.0918,-0.8662,0.5174,62
0.338,6,7.9945,-1.1667,-19.8979,0.1687,-0.1407,-0.0635,91,0.399,7,8.3036,0.4878,-13.1556,0.1411,-0.9473,0.6351,62
0.39,7,7.7024,-0.3564,-19.2584,-0.2733,-0.7761,-0.0519,91,0.451,8,8.6619,0.1863,-13.8088,0.2084,-0.9587,0.5066,62
0.442,8,7.7474,-0.4572,-16.0239,-0.622,-1.2398,-0.1991,91,0.503,9,9.0636,0.0103,-14.4511,0.2483,-0.7905,0.4386,62
0.493,9,8.4037,0.6813,-11.9767,-0.7336,-1.5783,-0.013,91,0.555,10,11.7323,0.2431,-14.8324,0.4505,-0.3236,0.326,62
0.545,10,6.4534,-0.1621,-11.7725,-0.8686,-1.5059,0.1685,91,0.607,11,11.3901,2.9738,-13.8007,0.916,0.2724,0.2115,62
0.597,11,4.3369,-1.0087,-14.398,-0.0255,-0.4207,0.1636,91,0.658,12,9.7614,6.379,-9.6098,0.6438,-0.0393,0.128,62
0.649,12,1.5174,0.8717,-18.1966,0.0211,0.3713,-0.0506,91,0.71,13,6.4091,5.5226,-7.3246,0.3765,0.6563,-0.5139,62
0.701,13,0.6938,1.5788,-21.2419,-0.0003,0.6614,0.0243,91,0.762,14,5.4574,3.1618,-10.0232,-0.4023,1.1639,-0.8805,62
0.753,14,-0.8694,0.9136,-22.0902,0.3012,0.4583,0.0756,91,0.814,15,4.1186,-2.9892,-13.6664,0.054,1.2735,-0.766,62
0.805,15,-0.7216,0.9293,-20.7506,0.4389,-0.2952,-0.1848,91,0.866,16,8.1232,0.9986,-7.3666,-0.4959,0.4234,0.0713,62
0.856,16,2.7132,0.9758,-18.4852,0.2452,-0.8889,-0.2931,91,0.917,17,8.9998,-0.1223,-11.604,0.1443,0.1224,0.5577,62
0.908,17,5.0138,-0.282,-16.9402,-0.4826,-1.3213,0.0706,91,0.969,18,10.6482,-0.5035,-12.7912,0.433,0.2163,0.601,62
0.96,18,7.0555,0.3061,-16.6892,0.3243,-0.3965,0.1479,91,1.021,19,12.8888,2.7686,-11.1593,0.6157,-0.5089,0.4149,62
1.012,19,5.9708,1.8934,-18.8759,-0.353,0.389,0.1812,91,1.072,20,12.8284,3.836,-9.3071,0.8,-1.0382,0.5026,62
1.064,20,3.6604,1.9458,-20.8181,0.1564,0.9623,0.3707,91,1.124,21,7.7419,3.8248,-4.185,0.1851,-0.1616,-0.1337,62
1.115,21,-0.4662,1.4405,-21.5214,0.0913,1.2454,0.1862,91,1.176,22,7.6467,-1.6573,-6.7512,-0.5011,0.567,-0.769,62
1.167,22,0.0633,0.4338,-20.8672,0.0757,0.7377,-0.2754,91,1.228,23,1.97,4.0826,-12.9085,-1.0428,0.085,-0.6376,62
1.219,23,4.0306,-0.0695,-18.8397,0.2093,0.1203,-0.1813,91,1.28,24,5.6019,8.2718,-10.5721,-0.9296,-0.6048,0.0612,62
1.27,24,6.7098,0.5887,-16.6064,-0.0821,-0.4482,0.2713,91,1.331,25,7.6964,6.0172,-12.4692,-0.3106,-0.3159,0.1674,62
1.322,25,5.7425,-0.672,-17.6417,0.1978,-0.4408,0.3532,91,1.383,26,10.7345,6.7997,-8.7185,-0.1947,-0.8974,-0.0198,62
1.374,26,4.6506,1.5299,-20.5373,0.0706,0.3567,0.4536,91,1.435,27,10.6511,8.7603,-8.4999,0.4084,-1.3217,0.3438,62
1.426,27,3.8387,1.2975,-22.3148,-0.3742,0.9382,0.7202,91,1.487,28,8.6587,8.1209,-3.5959,0.3502,-0.4378,-0.1887,62
1.478,28,3.4199,1.4729,-22.6137,-0.2296,1.1621,0.5985,91,1.538,29,9.4602,3.3273,-5.023,0.5514,0.3654,-0.8092,62
1.529,29,2.2353,0.9778,-21.9699,-0.1277,0.8657,0.0982,91,1.59,30,7.7391,-0.2062,-11.6472,-0.2746,0.9517,-0.4778,62
1.581,30,2.776,0.3908,-19.8724,0.1033,0.2863,-0.4262,91,1.642,31,0.2082,-2.5104,-14.7413,0.4742,1.0203,-0.5756,62
1.633,31,4.2335,0.274,-17.874,0.3086,-0.3321,-0.5867,91,1.694,32,2.3546,-3.7137,-16.5452,-0.1391,0.47,-0.2733,62
1.685,32,4.9708,0.8442,-16.1096,0.1937,-0.9152,-0.3473,91,1.746,33,6.7056,-1.7925,-15.8044,0.1205,0.0908,-0.1404,62
1.737,33,4.4622,-1.4652,-17.3381,-0.1351,-1.1312,-0.2171,91,1.797,34,10.0113,-0.4329,-10.0203,0.7058,0.3034,-0.0345,62
1.788,34,5.0991,-0.0266,-18.3879,-0.121,-0.182,0.2501,91,1.849,35,9.1992,2.2158,-7.0939,0.6173,-0.1895,-0.0709,62
1.84,35,6.3214,-0.3608,-20.6801,-0.5845,0.5455,0.5771,91,1.901,36,5.5145,1.6908,-4.8508,0.8986,0.5467,-0.6813,62
1.892,36,5.1289,0.9892,-21.8153,-0.2566,0.9358,0.4931,91,1.953,37,6.1392,0.3603,-9.8644,-0.0212,1.0839,-1.0395,62
1.944,37,3.6095,0.796,-22.0709,-0.1336,0.7804,-0.0327,91,2.005,38,3.6198,-5.0338,-14.7537,-0.6925,0.946,-0.8125,62
1.996,38,3.9323,-0.3461,-21.068,0.084,0.263,-0.5448,91,2.057,39,-2.8307,-1.9911,-15.1799,-0.1687,0.7009,-0.6498,62
2.047,39,4.2144,-1.0511,-19.2043,0.6755,-0.4704,-0.6793,91,2.108,40,2.3152,-2.2327,-15.5276,-0.1029,-0.0419,-0.2071,62
2.099,40,5.7278,-0.6591,-16.7734,0.627,-1.0167,-0.3445,91,2.16,41,5.5226,-1.4956,-15.3162,0.185,-0.0047,-0.0997,62
2.151,41,4.6198,-0.8078,-17.0441,-0.0005,-1.4155,0.1725,91,2.212,42,9.1479,0.551,-12.4223,0.1511,-0.5571,-0.38,62
2.203,42,6.2601,-1.7657,-18.116,0.3317,-0.7548,0.6136,91,2.264,43,9.7568,2.3992,-10.4557,0.5703,-1.0608,-0.0233,62
2.255,43,5.5867,-0.7571,-20.3753,-0.0735,0.1275,0.82,91,2.316,44,9.0477,2.8653,-5.0233,0.7397,-0.566,-0.3167,62
2.306,44,1.9182,4.7994,-22.8757,0.0077,0.5381,0.5045,91,2.367,45,4.8667,3.2576,-3.8095,1.2146,0.2719,-0.9026,62
2.358,45,1.5505,3.039,-22.2425,0.5755,0.7094,-0.1653,91,2.419,46,4.2796,0.8414,-10.7615,0.2094,0.8834,-0.8848,62
2.41,46,0.7614,1.9789,-21.3715,0.1584,0.5362,-0.7401,91,2.471,47,8.2407,-4.6827,-5.2465,0.4896,0.0517,-0.3034,62
2.462,47,1.0359,-0.2086,-19.7818,0.4688,0.0808,-1.1031,91,2.523,48,11.1318,-8.4302,-6.2794,-0.3198,-0.629,-0.1771,62
2.514,48,2.2995,-0.559,-18.1369,0.7422,-0.543,-0.8777,91,2.574,49,12.3202,-6.9253,-8.7903,0.2727,-0.5664,-0.1797,62
2.565,49,4.663,0.6768,-16.1837,0.383,-1.0697,-0.1257,91,2.626,50,14.1091,-5.8128,-6.6712,-0.2573,-0.6396,-0.4368,62
2.617,50,7.8494,0.3675,-16.4891,0.3747,-1.0618,0.0819,91,2.678,51,12.9945,-4.6477,-5.4311,0.3867,-0.4708,-0.2977,62
2.669,51,8.2858,1.3758,-18.7977,0.0058,-0.1088,0.4119,91,2.73,52,13.5673,0.3434,-1.3561,0.8391,-1.0104,-0.3914,62
2.721,52,6.8071,1.2282,-20.4694,0.0918,0.599,0.5919,91,2.782,53,9.8329,2.4674,0.4974,0.8131,-0.0535,-0.8009,62
2.773,53,5.2468,2.4758,-21.9315,0.1608,0.8755,0.331,91,2.833,54,9.6795,0.5323,-4.262,0.0061,0.6459,-1.2559,62
2.824,54,3.4858,1.6729,-21.8836,0.0423,0.6242,-0.2579,91,2.885,55,6.7903,-1.392,-11.0918,-0.1321,1.1564,-0.6504,62
2.876,55,2.699,0.2758,-19.9652,-0.051,0.1155,-0.5163,91,2.937,56,-0.0511,3.9876,-16.0765,-0.4235,0.2448,-0.0208,62
2.928,56,3.2781,-0.3115,-17.7203,0.3701,-0.4563,-0.3934,91,2.989,57,2.6416,2.8391,-16.3574,-0.086,-0.257,0.1362,62
2.98,57,4.9078,0.5032,-15.8549,0.4082,-1.0064,-0.0383,91,3.04,58,7.0453,1.6378,-15.5815,0.1362,-0.1392,0.1163,62
3.032,58,7.1151,0.9507,-16.2614,0.3447,-0.9831,0.0661,91,3.092,59,10.2592,3.4315,-9.0479,0.5122,-0.7683,0.0259,62
3.083,59,7.8183,1.1933,-18.7267,0.0897,-0.1043,0.521,91,3.144,60,9.7225,4.6328,-6.2512,0.1659,-1.2276,0.4881,62
3.135,60,7.1469,2.1204,-20.2855,0.2381,0.6022,0.5883,91,3.196,61,8.1631,4.9626,-1.9547,0.7723,-0.2387,-0.2018,62
3.187,61,4.7457,2.6385,-22.8102,0.0543,0.6987,0.1531,91,3.248,62,9.0516,4.2699,-4.794,-0.0566,0.5108,-0.8187,62
3.239,62,1.5194,1.3978,-22.6751,0.0251,-0.0193,-0.4768,91,3.299,63,5.8482,0.447,-11.4801,-0.7184,1.0577,-0.2307,62
3.291,63,1.1547,0.8638,-20.789,0.2407,-0.6875,-0.621,91,3.351,64,7.39,5.6184,-10.5495,-0.8801,0.1052,0.4944,62
3.342,64,3.7299,-0.0438,-18.1497,-0.1311,-1.1751,-0.1984,91,3.403,65,9.3903,3.633,-12.2666,-0.4007,-0.4161,0.4566,62
3.394,65,7.4201,-0.2677,-15.4322,0.0184,-1.5311,0.0675,91,3.455,66,11.4951,2.7717,-12.7936,-0.1089,-0.3406,0.3089,62
3.446,66,7.8919,-0.3913,-15.0528,0.475,-0.6834,-0.0991,91,3.507,67,13.0454,4.9803,-9.0721,0.5765,0.1309,0.1433,62
3.498,67,5.4415,0.2487,-18.5027,-0.0916,0.1795,0.0082,91,3.558,68,13.2665,8.927,-4.0135,0.4469,-0.5712,0.2019,62
3.55,68,3.8026,0.5451,-21.509,0.1231,0.6577,0.1693,91,3.61,69,11.5887,7.8913,-0.3215,0.9094,0.2384,-0.521,62
3.601,69,1.5084,-0.4918,-23.4786,-0.0486,0.2708,0.2005,91,3.662,70,11.2775,2.4994,-5.0287,0.5579,0.8589,-1.0516,62
3.653,70,0.7665,-0.3246,-21.208,-0.009,-0.4758,0.1082,91,3.714,71,8.755,2.6674,-11.6514,-0.2699,1.2027,-0.64,62
3.705,71,2.8789,0.8016,-17.6186,0.0007,-1.0206,0.0866,91,3.766,72,0.9172,7.1369,-16.4849,0.3309,0.5472,-0.0517,62
3.757,72,5.1718,0.6992,-13.9524,-0.0596,-1.0744,0.0485,91,3.817,73,4.9517,5.3408,-16.4073,0.6264,0.0563,0.0589,62
3.809,73,3.7153,-0.714,-13.2241,-0.0647,-0.2401,-0.2525,91,3.869,74,8.7312,6.0636,-13.0352,0.6481,-0.4837,-0.005,62
3.86,74,3.9064,0.1039,-16.2249,-0.1422,0.5031,-0.4464,91,3.921,75,7.9592,9.0331,-10.5484,1.0877,-0.8574,0.4168,62
3.912,75,5.5623,-0.2182,-19.8465,-0.2404,1.0456,-0.2221,91,3.973,76,5.7286,7.1034,-7.6617,1.1007,0.0592,-0.3672,62
3.964,76,7.0959,-0.9692,-20.1482,-0.1935,1.4414,-0.0302,91,4.024,77,6.117,2.3739,-8.4334,1.478,0.7282,-0.9394,62
4.016,77,5.9106,-1.0953,-21.569,0.1187,1.726,-0.0128,91,4.076,78,4.4281,0.4817,-12.8401,0.4016,1.2164,-0.897,62
4.068,78,3.9042,-0.7887,-19.9874,0.4359,1.499,-0.3294,91,4.128,79,-2.2408,3.0347,-17.2285,0.762,0.2545,-0.7437,62
4.119,79,4.8817,0.3273,-15.2603,0.3746,1.336,-0.3435,91,4.18,80,0.8129,0.6192,-19.6025,0.2704,-0.2868,-0.1042,62
4.171,80,6.2392,0.0619,-9.0098,0.3604,1.6534,-0.1316,91,4.232,81,4.5879,0.0973,-18.6815,0.2983,-0.2926,0.0352,62
4.223,81,9.2111,-0.1132,-7.8372,0.406,1.8851,0.0931,91,4.283,82,8.4657,2.1885,-14.9604,0.7585,-0.8363,-0.0095,62
4.275,82,11.9884,-0.6929,-12.6527,0.7091,2.0542,-0.0851,91,4.335,83,8.9274,4.6618,-13.8634,1.2282,-1.2596,0.3632,62
4.327,83,9.836,-2.6174,-16.5677,1.1874,1.3791,-0.0791,91,4.387,84,9.6225,8.6945,-7.5104,1.3137,-1.293,-0.0393,62
4.378,84,12.4445,-7.1473,-20.0968,0.2851,0.3332,0.5813,91,4.439,85,10.9338,5.7717,-6.6008,0.4383,-0.2587,-0.7001,62
4.43,85,6.5289,-4.3384,-20.1172,0.7509,-0.1094,0.6329,91,4.49,86,10.5211,-1.0843,-12.7988,-0.0559,-0.4454,-0.0228,62
4.482,86,8.6313,-3.3949,-17.7703,0.3344,-0.0886,0.5744,91,4.542,87,12.796,-0.817,-11.8166,-0.2822,-0.9919,0.4204,62
4.534,87,9.5268,-2.5913,-15.397,0.4582,0.1071,0.2015,91,4.594,88,14.1232,-0.2975,-12.1611,0.3618,-1.3907,0.6353,62
4.585,88,9.9114,-1.0037,-13.3444,0.3743,0.2804,0.1182,91,4.646,89,13.7316,0.6707,-13.0864,0.763,-1.6818,0.9399,62
4.637,89,9.0015,0.2571,-12.3381,0.9497,-0.4531,-0.1071,91,4.698,90,15.1393,0.9343,-11.8481,0.7169,-1.8942,1.3663,62
4.689,90,6.9906,2.4499,-10.1082,1.3697,-0.6169,-0.398,91,4.75,91,12.6068,2.4909,-11.0218,0.3969,-0.9558,1.0156,62
4.741,91,8.8359,-0.1987,-12.6731,1.6762,-0.5205,-0.8888,91,4.801,92,10.5971,1.8056,-11.8093,0.3487,-0.0126,0.0782,62
4.793,92,11.1963,-4.2802,-13.0484,1.8999,-0.6947,-0.7513,91,4.853,93,9.9406,0.0668,-13.6416,0.9079,0.6758,-0.6143,62
4.844,93,11.1224,-1.9476,-14.0937,0.7114,-0.3216,-0.445,91,4.905,94,8.4786,-3.9756,-16.7512,1.1014,1.1782,-1.1198,62
4.896,94,9.5091,-1.4726,-13.2224,-0.1092,-0.0144,-0.0059,91,4.957,95,10.012,-6.8415,-18.9015,0.1267,1.2581,-1.3465,62
4.948,95,10.6952,-2.4114,-12.5351,0.0431,0.0821,0.214,91,5.009,96,10.6505,-3.9241,-13.1125,0.7657,0.2565,-0.4334,62
5.0,96,9.9766,-2.346,-11.6871,0.4628,0.0293,0.1798,91,5.06,97,12.8905,-3.115,-12.6637,-0.0625,-0.0641,-0.0996,62
5.052,97,9.6941,-1.9969,-11.5338,0.3124,0.0022,0.1705,91,5.112,98,11.7444,-2.4977,-12.7077,0.4191,-0.0642,-0.1175,62
5.103,98,9.6488,-1.5624,-11.4552,0.3804,0.0368,0.1207,91,5.164,99,10.5273,-1.5746,-12.8971,0.5736,0.373,-0.2695,62
5.155,99,9.5589,-1.4161,-11.1233,0.3336,0.0734,0.1024,91,5.216,100,10.0204,-0.9251,-10.8552,0.6959,0.6097,-0.268,62
5.207,100,9.7168,-1.1728,-10.9056,0.3775,0.0433,0.0323,91,5.267,101,10.4409,-0.2974,-10.3832,0.603,0.7414,-0.2016,62
5.259,101,9.8923,-1.4802,-10.6524,0.4082,-0.0499,-0.0498,91,5.319,102,10.0272,-0.8493,-10.8431,0.7748,0.6327,0.0181,62
5.311,102,9.5559,-1.0725,-10.1563,0.6206,-0.3253,-0.2429,91,5.371,103,9.7475,-0.9553,-12.5112,1.2402,0.4409,-0.0956,62
5.362,103,10.8092,-1.3944,-10.3322,0.5953,-0.7682,-0.4983,91,5.423,104,9.087,-0.353,-13.2942,1.5798,0.2644,-0.0469,62
5.414,104,10.8679,-0.5438,-11.2255,1.111,-1.0707,-0.8918,91,5.474,105,8.8686,0.791,-12.9706,1.8277,0.0058,0.1102,62
5.466,105,10.3483,-1.6255,-10.9981,1.4874,-1.038,-0.9491,91,5.526,106,8.1939,4.9798,-10.3721,2.0086,-0.1237,-0.0135,62
5.518,106,9.5093,-0.2461,-10.9052,1.7621,-0.6141,-1.1787,91,5.578,107,10.3538,3.2695,-10.6892,1.2097,-0.2392,-0.11,62
5.57,107,9.0871,-0.4784,-11.6479,1.9626,-0.0031,-1.438,91,5.63,108,8.5593,1.7043,-10.601,0.9544,-0.1388,-0.1564,62
5.621,108,8.7653,-1.4204,-13.0332,2.1089,0.38,-1.4472,91,5.681,109,8.406,1.5627,-10.7991,0.6903,-0.106,-0.1594,62
5.673,109,8.6419,-3.2493,-13.7292,2.2157,0.5075,-1.2087,91,5.733,110,8.8573,1.3667,-10.9565,0.4838,-0.1071,-0.1216,62
5.725,110,8.7407,-2.7685,-12.8565,1.1678,0.5488,-0.8403,91,5.785,111,8.8667,1.1808,-11.198,0.3766,-0.0918,-0.1125,62
5.777,111,8.8429,-1.4848,-12.1924,1.2449,0.3538,-0.5075,91,5.837,112,8.9062,0.9631,-11.4121,0.3532,0.0479,-0.0997,62
5.829,112,9.0489,-1.5547,-11.6755,0.9791,0.197,-0.2185,91,5.889,113,8.9595,0.8963,-11.3949,0.3791,0.2091,-0.1175,62
5.88,113,9.2924,-1.5934,-12.0763,0.6343,0.0623,-0.1629,91,5.94,114,8.8247,0.8875,-11.2624,0.4449,0.3518,-0.1059,62
5.932,114,9.2896,-1.2062,-11.9344,0.5736,0.0324,-0.1545,91,5.992,115,8.6897,1.0116,-10.6984,0.4885,0.2527,0.0307,62
5.984,115,9.3366,-1.0429,-11.8366,0.3817,0.026,-0.1312,91,6.044,116,8.9342,1.0219,-10.3236,0.4905,-0.1564,0.2884,62
6.036,116,9.391,-0.8753,-11.7669,0.31,-0.0315,-0.1086,91,6.096,117,9.4202,0.8005,-11.0402,0.7584,-0.4832,0.3227,62
6.087,117,9.4076,-0.8017,-11.7479,0.2012,-0.0716,-0.0847,91,6.148,118,9.0479,1.1369,-10.328,1.2282,-0.4046,-0.0481,62
6.139,118,9.4774,-0.7341,-11.7582,0.1188,-0.1254,-0.0931,91,6.199,119,9.4115,0.6928,-9.9266,1.5711,-0.1241,-0.2972,62
6.191,119,9.5267,-0.8671,-11.6471,-0.0149,-0.2161,-0.1571,91,6.251,120,9.5643,0.2014,-9.2717,1.6489,0.1808,-0.5401,62
