right_leg_timestamp,right_leg_index,right_leg_accel_x,right_leg_accel_y,right_leg_accel_z,right_leg_gyro_x,right_leg_gyro_y,right_leg_gyro_z,right_leg_battery_percentage,left_leg_timestamp,left_leg_index,left_leg_accel_x,left_leg_accel_y,left_leg_accel_z,left_leg_gyro_x,left_leg_gyro_y,left_leg_gyro_z,left_leg_battery_percentage
0.039,0,-5.0333,0.1125,-7.3933,-1.3522,-1.827,-0.4699,97,0.407,7,-2.7013,-2.8669,1.7476,0.2708,0.4434,0.5913,64
0.091,1,-4.7804,0.6772,-5.8024,-1.2164,-1.9392,-0.5323,97,0.459,8,-5.7349,-1.0688,1.249,0.5783,1.0345,0.5014,64
0.143,2,-3.4539,0.7329,-5.9251,-1.4666,-2.021,-0.6349,97,0.511,9,-9.0032,4.2225,-4.7757,0.8393,0.4499,0.4537,64
0.194,3,-5.8348,0.417,-5.6639,-0.9138,-1.4138,-0.9554,97,0.563,10,-5.652,-2.2209,-5.5148,1.2396,0.794,0.2276,64
0.246,4,-10.9766,3.5801,-6.3136,-0.6069,-0.2859,-0.5777,97,0.614,11,-3.3821,-0.1021,-5.8971,1.2042,0.378,0.4362,64
0.298,5,-13.1459,2.977,-9.2601,-0.7851,0.5337,0.0407,97,0.666,12,0.2794,-1.4903,-3.5899,1.0434,0.2368,0.4623,64
0.35,6,-14.4673,1.8373,-10.7253,0.0533,0.4369,-0.0964,97,0.718,13,1.9534,0.1217,-3.1873,1.331,-0.2932,0.1237,64
0.402,7,-14.5332,4.0782,-9.2726,0.0811,-0.2534,-0.2976,97,0.77,14,-2.8468,-2.9032,-7.1027,1.1008,0.3845,0.2411,64
0.454,8,-12.9725,3.1294,-7.1735,0.4476,-0.7856,-0.7237,97,0.821,15,-1.9011,1.1813,-8.8123,0.1655,0.9915,0.7375,64
0.505,9,-10.5995,-0.8358,-6.5924,-0.3266,-1.1058,-0.2077,97,0.873,16,-4.6088,6.1484,-12.1189,0.3227,0.0926,-0.0015,64
0.557,10,-10.9157,-0.4964,-6.5581,0.3152,-0.2219,-0.053,97,0.925,17,-4.6273,7.178,-11.2856,0.6701,-0.4857,-0.2031,64
0.609,11,-12.7462,0.8969,-9.505,0.1741,0.5841,0.4319,97,0.977,18,-2.4659,7.5352,-9.996,0.4989,-0.5774,0.1184,64
0.661,12,-15.7796,4.4525,-12.3276,0.2384,1.1723,0.8325,97,1.029,19,0.9481,4.701,-6.1508,0.257,-0.3471,0.4975,64
0.713,13,-18.4183,4.1035,-13.58,0.504,0.6297,0.625,97,1.08,20,-0.6377,4.5438,-6.4686,0.4963,-0.2222,0.4993,64
0.764,14,-18.0744,5.136,-12.0842,0.3396,-0.1462,0.5079,97,1.132,21,-4.7618,2.9318,-6.3641,0.9593,0.5247,0.4259,64
0.816,15,-13.3685,4.5926,-10.5999,-0.0388,-0.7124,0.4232,97,1.184,22,-3.8076,2.0646,-8.7566,0.0857,1.0938,0.4265,64
0.868,16,-8.3747,2.805,-8.8012,-0.3034,-1.1257,0.2851,97,1.236,23,-5.5551,2.95,-12.0428,0.3105,0.7922,0.6259,64
0.92,17,-10.7863,2.8062,-8.1468,0.2431,-0.1679,0.0773,97,1.287,24,-2.7047,-2.0457,-12.5004,-0.4112,0.9526,0.2795,64
0.972,18,-14.6097,5.0442,-7.74,0.3942,0.6234,0.2058,97,1.339,25,0.7601,-2.2724,-12.5809,0.2741,0.6778,0.3518,64
1.023,19,-14.955,6.3494,-11.0395,-0.0707,1.201,0.6154,97,1.391,26,3.3026,-2.3668,-10.3529,-0.1579,0.315,0.835,64
1.075,20,-15.8834,6.8513,-13.4369,-0.0731,1.3622,0.7862,97,1.443,27,1.3622,-1.5553,-3.8451,0.5987,0.1059,0.6642,64
1.127,21,-15.8031,8.0357,-12.0506,-0.4842,0.6514,0.3836,97,1.495,28,1.3678,-3.7648,1.8082,-0.0643,-0.0212,0.5112,64
1.179,22,-14.3864,6.7306,-9.9761,-0.5769,-0.1303,-0.2873,97,1.546,29,-3.2741,-2.2521,1.5899,0.2619,0.6954,0.8218,64
1.231,23,-10.8265,5.0882,-8.1989,-0.6199,-0.7009,-0.9046,97,1.598,30,-2.8256,1.4096,-4.5269,0.0554,1.2184,0.734,64
1.282,24,-5.4643,2.4963,-6.9592,-0.7425,-0.9125,-1.2122,97,1.65,31,0.6856,-4.2739,1.5977,-0.2604,0.2484,0.9008,64
1.334,25,-9.8288,3.3149,-6.3143,-0.245,0.08,-1.0813,97,1.702,32,3.2482,1.5355,1.8464,-0.2104,-0.4596,0.156,64
1.386,26,-13.5702,3.7377,-9.2616,-0.2582,0.8044,-0.6169,97,1.754,33,3.5792,1.5496,-1.806,0.4454,-0.9763,0.836,64
1.438,27,-12.0835,3.8079,-12.15,-0.2488,1.2763,0.0855,97,1.806,34,5.3601,-0.6138,1.5713,0.097,-1.2139,1.0359,64
1.49,28,-16.714,3.5893,-11.7809,0.4969,1.6297,-0.2223,97,1.857,35,6.6599,-0.752,4.2501,0.1931,-1.5268,0.6106,64
1.541,29,-17.7586,4.9881,-9.5721,0.0018,0.715,-0.0319,97,1.909,36,5.6805,-1.248,8.0036,0.7129,-0.5719,0.267,64
1.593,30,-15.8479,2.916,-8.023,0.2549,-0.0839,-0.2979,97,1.961,37,0.8329,3.5984,0.1541,-0.0813,0.2935,0.9493,64
1.645,31,-10.3427,3.7985,-8.3588,-0.0332,-0.667,-0.4479,97,2.013,38,-2.1561,2.7127,-5.5749,0.4991,0.7338,1.0173,64
1.697,32,-10.8451,2.4146,-9.3121,0.3752,0.2592,-0.3271,97,2.065,39,-9.4157,-0.6002,-9.7561,0.7403,0.6483,0.3531,64
1.749,33,-15.8102,6.977,-12.1754,0.2499,0.9352,0.0834,97,2.116,40,-8.8399,2.9647,-9.591,0.8913,0.0719,0.5427,64
1.801,34,-16.3446,7.934,-14.2766,0.0251,1.304,0.4868,97,2.168,41,-3.7039,2.0838,-6.7728,0.3401,-0.1472,1.0931,64
1.853,35,-17.3074,5.8264,-14.9159,0.0176,0.9599,0.4666,97,2.22,42,-1.8304,0.0243,-4.1882,0.6889,-0.0122,0.7096,64
1.904,36,-16.9615,6.8369,-12.3737,-0.3186,0.1478,0.0045,97,2.272,43,-2.4743,-2.7803,0.0905,0.081,0.0235,0.3661,64
1.956,37,-15.1847,5.9855,-10.1196,-0.2849,-0.4979,-0.4013,97,2.324,44,-3.5397,-1.1837,1.2135,0.742,0.728,1.0056,64
2.008,38,-12.2616,5.008,-8.5519,-0.7065,-0.9691,-0.715,97,2.375,45,-4.4528,-2.6366,-2.1792,1.1829,1.2422,0.7291,64
2.06,39,-6.2541,2.0124,-7.7351,-0.8492,-1.3131,-0.9006,97,2.427,46,-6.7226,3.3619,-7.2778,0.8667,0.3752,0.6724,64
2.112,40,-10.4814,1.7584,-6.7505,-0.3421,-0.2123,-0.6875,97,2.479,47,-9.2427,7.7399,-10.9925,1.3465,-0.2848,0.5866,64
2.163,41,-15.3383,1.8641,-9.5047,-0.6731,0.5781,0.0105,97,2.531,48,-6.8983,8.5899,-10.5151,1.5381,-0.7141,0.6721,64
2.215,42,-14.1975,2.3618,-12.3274,-0.7048,1.1625,0.5795,97,2.582,49,-2.2868,6.1766,-4.818,1.1817,-0.6898,1.0112,64
2.267,43,-15.5871,4.4434,-12.9832,-0.3849,1.104,1.0325,97,2.634,50,-0.851,3.8046,-2.8436,1.1988,-0.9994,0.7465,64
2.319,44,-16.2461,4.9752,-10.3204,-0.9343,0.499,0.7012,97,2.686,51,-2.1455,2.3574,2.8263,0.8243,-0.0903,0.5614,64
2.371,45,-15.8201,4.0081,-8.6899,-0.0203,-0.236,-0.0765,97,2.738,52,-2.1292,6.2194,-3.2267,-0.0347,0.645,1.117,64
2.422,46,-11.06,3.8648,-7.7599,-0.1738,-0.778,-0.5397,97,2.79,53,-5.6608,3.6786,-8.0423,0.5397,1.1816,0.967,64
2.474,47,-5.3771,0.6169,-7.3133,-0.7802,-0.5064,-0.2734,97,2.841,54,-1.3837,7.971,-11.5569,0.903,0.2463,0.3021,64
2.526,48,-10.55,2.4249,-10.6941,0.129,0.3764,0.265,97,2.893,55,1.738,5.6311,-9.8243,0.0603,-0.4524,-0.048,64
2.578,49,-14.7336,3.5369,-13.1955,0.4731,1.0207,0.6705,97,2.945,56,4.0163,6.3547,-7.538,-0.4234,-0.9253,0.4348,64
2.63,50,-12.6341,3.5461,-14.1331,0.2159,1.0954,0.7114,97,2.997,57,4.7542,3.2397,-3.3036,0.1852,-0.8396,0.3384,64
2.681,51,-13.3441,6.0017,-12.8806,0.3358,0.431,0.6663,97,3.048,58,3.4427,1.4501,1.1443,-0.2348,-1.0349,0.2424,64
2.733,52,-13.2202,5.5125,-10.3624,-0.4083,-0.2467,0.3619,97,3.1,59,0.4092,-0.1996,5.1036,0.0968,-0.0444,0.1778,64
2.785,53,-12.2971,4.6956,-8.6418,-0.0579,-0.7858,-0.2369,97,3.152,60,-4.9212,2.4473,-0.1723,-0.0468,0.6785,0.6268,64
2.837,54,-7.5454,4.2191,-7.7885,-0.5088,-1.1793,-0.8601,97,3.204,61,-5.2436,7.0724,-5.813,0.4261,0.8918,0.6554,64
2.889,55,-9.9531,3.2122,-8.6268,-0.1961,-0.1147,-0.7519,97,3.256,62,-9.4092,10.4479,-9.537,1.0249,0.2468,0.3958,64
2.94,56,-14.6014,2.8445,-9.9295,-0.5397,0.112,0.042,97,3.307,63,-6.9798,10.2817,-8.872,0.8947,-0.2465,0.6496,64
2.992,57,-13.1218,4.5525,-12.4267,-0.958,0.8277,0.3373,97,3.359,64,-2.4868,5.5609,-4.2375,0.9496,0.0464,0.6888,64
3.044,58,-14.7894,5.3525,-11.9568,-0.0007,0.7235,0.2825,97,3.411,65,-2.9601,4.4427,-4.1688,0.6701,-0.4433,0.6194,64
3.096,59,-14.8257,5.8137,-10.1719,-0.0334,0.359,-0.3426,97,3.463,66,-3.0236,2.2617,1.8576,0.4382,-0.2967,0.3547,64
3.148,60,-12.7945,4.9614,-8.3475,0.0169,-0.3263,-0.9459,97,3.515,67,-3.1503,4.2593,0.0969,-0.071,0.4943,0.7201,64
3.199,61,-8.3634,3.0348,-6.6551,-0.1844,-0.8439,-1.2843,97,3.566,68,-3.5876,-0.0358,-2.3692,0.6621,1.0717,0.7834,64
3.251,62,-4.7615,2.4625,-4.7193,-0.4209,-1.009,-0.7352,97,3.618,69,-1.4575,5.2601,-7.4164,1.0565,0.2317,0.2715,64
3.303,63,-10.3691,3.5348,-6.6275,0.3744,0.0096,-0.5212,97,3.67,70,1.6841,5.0734,-5.5563,0.2789,-0.4717,-0.0727,64
3.354,64,-13.859,3.966,-10.2275,0.278,0.753,-0.0886,97,3.722,71,3.977,6.3299,-5.1498,0.1857,-0.7755,0.4012,64
3.407,65,-13.7624,2.6655,-12.8549,0.2146,1.1429,0.3883,97,3.774,72,4.6383,4.2394,-0.9825,0.6015,-0.5157,0.4823,64
3.458,66,-13.2138,2.4446,-13.7971,0.855,0.4218,0.7289,97,3.825,73,3.6449,4.5083,1.3328,0.304,-1.0172,0.4029,64
3.51,67,-13.1175,0.9825,-11.7016,-0.0293,-0.1292,1.0463,97,3.877,74,-0.8386,1.3711,5.1711,-0.1623,-0.1124,0.4991,64
3.562,68,-11.0428,1.2928,-9.1748,0.0913,-0.7001,1.3152,97,3.929,75,-1.5482,3.3917,-0.0376,0.0297,0.6288,0.5334,64
3.614,69,-6.9753,0.6437,-6.9409,-0.2388,-1.1167,0.8667,97,3.98,76,-4.5406,2.7679,-5.3713,-0.1055,0.4877,0.5555,64
3.666,70,-7.6015,1.1873,-7.1101,0.5234,-0.2108,0.0358,97,4.032,77,-11.156,0.5451,-9.5393,0.3082,1.0668,0.0839,64
3.717,71,-11.9381,1.9016,-10.5797,0.1611,0.5921,0.0241,97,4.084,78,-8.0744,2.625,-9.0089,0.4221,0.1378,-0.385,64
3.769,72,-13.1456,6.4214,-11.3543,0.0115,1.1608,0.5834,97,4.136,79,-3.1452,5.4214,-12.2624,0.1633,0.7968,0.2579,64
3.821,73,-14.9715,4.842,-13.6773,-0.3913,1.5932,0.6187,97,4.188,80,0.4462,1.7888,-7.7509,-0.0061,0.9762,0.4072,64
3.873,74,-15.4773,3.9948,-13.0212,-0.2739,0.9718,0.3617,97,4.239,81,-1.8911,1.7496,-8.148,0.1466,0.8436,0.4198,64
3.925,75,-13.9494,5.1895,-10.2198,-0.5781,0.2222,-0.0637,97,4.291,82,-2.3269,-0.7317,-4.0156,-0.1629,0.8531,0.3185,64
3.976,76,-13.0806,5.4299,-8.2592,-0.5691,-0.4435,-0.4272,97,4.343,83,-3.4609,0.2045,-0.8781,0.595,1.3335,0.4856,64
4.028,77,-11.1768,3.5577,-7.515,-0.5369,-0.9295,-0.8019,97,4.395,84,-5.8829,2.2933,-6.3282,0.5063,1.6841,0.4236,64
4.08,78,-5.4624,2.8095,-8.227,-0.9175,-1.2841,-1.2551,97,4.447,85,-1.5457,-2.3031,-10.3059,0.0696,1.4074,0.7483,64
4.132,79,-9.996,3.9064,-10.2371,-0.0809,-0.1912,-0.94,97,4.498,86,1.6197,1.5327,-5.9939,0.1904,0.3863,-0.0163,64
4.183,80,-11.6356,1.0838,-11.9631,0.088,0.2776,-0.0956,97,4.55,87,3.93,3.6209,-5.4034,-0.0297,-0.204,0.5747,64
4.235,81,-12.6392,2.2055,-13.7422,-0.5755,0.9486,0.47,97,4.602,88,4.599,0.0972,-1.8818,0.2018,0.2299,0.6158,64
4.287,82,-12.8714,3.7808,-12.6748,-0.0119,0.6744,0.6652,97,4.654,89,0.3395,0.5818,-4.9386,0.0826,0.2863,0.6969,64
4.339,83,-12.776,3.9388,-10.4709,-0.2224,0.2044,0.5007,97,4.706,90,-2.2732,-0.7697,-1.2709,0.1938,0.312,0.4587,64
4.39,84,-11.3805,3.5616,-7.5162,-0.2302,-0.2564,0.2533,97,4.758,91,-3.4038,0.6138,-1.1095,0.1622,0.9386,0.5752,64
4.442,85,-10.6515,3.2253,-6.168,-0.1632,-0.6089,-0.242,97,4.809,92,-4.5161,-1.6459,-4.8462,0.2399,1.3455,0.5303,64
4.494,86,-8.677,3.7141,-6.3684,-0.3168,-1.0501,-0.399,97,4.861,93,-0.5482,1.626,1.3647,0.6372,0.6617,0.024,64
4.546,87,-11.239,4.5566,-9.9573,0.1707,-0.0204,-0.5072,97,4.913,94,2.3477,2.0629,2.2081,0.1265,0.1039,-0.0762,64
4.598,88,-13.9729,4.2061,-12.5633,0.0571,0.516,0.1128,97,4.965,95,4.4613,2.0708,-0.3046,-0.5142,0.0333,0.702,64
4.65,89,-10.4042,4.6323,-13.5657,-0.0724,0.8334,0.4274,97,5.017,96,0.0533,-1.3422,1.702,0.3386,0.407,0.3181,64
4.702,90,-11.6743,6.88,-10.9968,-0.3267,0.3172,0.5424,97,5.069,97,-0.3093,-3.5713,3.8372,-0.3907,-0.1255,0.4228,64
4.753,91,-11.832,5.6544,-8.8206,-0.6186,-0.3004,0.0845,97,5.12,98,-3.4933,-4.8162,6.6091,0.347,0.6193,0.8189,64
4.805,92,-9.9966,4.1882,-7.7586,-0.0094,-0.8238,-0.6238,97,5.172,99,-1.7822,1.0601,-0.8637,-0.2146,1.1629,0.9987,64
4.857,93,-6.8723,3.0709,-6.4241,-0.6572,-1.2052,-0.8667,97,5.224,100,-2.9577,6.0599,-6.3176,0.5573,1.2712,1.0217,64
4.909,94,-10.0702,4.1925,-8.051,-0.3151,-0.1336,-0.6606,97,5.276,101,-7.0427,9.709,-9.4948,1.1207,0.4123,0.7637,64
4.961,95,-12.7801,4.6505,-11.2663,-0.0158,0.64,0.122,97,5.328,102,-8.2129,9.1763,-8.6597,0.9558,0.5284,1.0247,64
5.012,96,-11.766,5.8568,-9.8574,-0.0241,1.0917,0.7007,97,5.379,103,-5.5592,5.7791,-4.1768,0.8823,0.5956,0.9021,64
5.064,97,-10.1773,5.3618,-10.4487,0.3928,0.814,0.5375,97,5.431,104,-6.9548,5.6841,-3.5469,0.4294,0.3281,0.8895,64
5.116,98,-10.6161,4.313,-10.1367,0.3285,0.0036,-0.036,97,5.483,105,-8.7249,4.58,-2.1491,0.0934,0.7693,0.828,64
5.168,99,-8.8817,3.9788,-7.3759,0.0698,-0.6031,-0.3451,97,5.535,106,-9.2524,2.3469,-0.5068,0.7415,1.17,0.7409,64
5.22,100,-7.3682,3.1721,-5.5078,0.176,-0.997,-0.5045,97,5.587,107,-9.2142,1.9859,-6.0572,-0.0967,0.7468,0.7739,64
5.271,101,-12.4523,3.1934,-8.594,0.8269,0.0184,-0.7664,97,5.638,108,-14.567,-1.1825,-10.1081,0.3054,1.256,0.1215,64
5.323,102,-16.5963,6.2024,-9.0508,1.1288,0.7594,-0.3757,97,5.69,109,-12.3364,1.1662,-9.651,0.8605,0.9153,0.306,64
5.375,103,-15.7008,7.5336,-11.9961,0.2657,1.2513,0.346,97,5.742,110,-6.3685,2.0802,-7.5559,0.3583,0.9585,0.9938,64
5.427,104,-14.7587,6.9604,-12.9552,0.4712,1.0347,0.8322,97,5.794,111,-4.7735,-1.1525,-4.15,0.3668,1.3251,0.8463,64
5.479,105,-13.2822,6.5313,-12.2144,0.3945,0.4171,0.9943,97,5.846,112,-7.064,0.102,-6.0266,-0.2447,0.9861,0.9098,64
5.53,106,-11.9885,5.3491,-9.6515,-0.3597,-0.157,0.6019,97,5.897,113,-6.9089,0.619,-3.4458,-0.6292,0.5101,0.8587,64
5.582,107,-11.053,4.7123,-7.7138,0.1041,-0.7164,0.1457,97,5.949,114,-7.6657,0.9318,-1.8716,-0.5877,0.7975,0.8135,64
5.634,108,-9.9567,4.5315,-6.723,-0.1679,-1.1286,-0.0616,97,6.001,115,-7.7372,4.174,-7.0533,-0.0434,1.126,0.4118,64
5.686,109,-12.6622,2.9875,-9.6878,0.139,-0.297,-0.3656,97,6.053,116,-13.489,5.711,-10.8351,0.4827,0.555,0.3895,64
5.738,110,-14.9865,4.2351,-12.461,0.0542,0.5293,-0.0205,97,6.105,117,-12.8453,5.7215,-9.9917,0.1631,0.5576,0.7729,64
5.789,111,-13.4811,4.5363,-13.2896,-0.3712,1.0191,0.4436,97,6.157,118,-7.0084,1.7685,-5.6707,0.2685,1.0096,0.6888,64
5.841,112,-12.9418,6.812,-11.3364,0.4275,0.7082,0.5664,97,6.208,119,-5.0937,3.0655,-4.1109,0.0662,0.5014,0.6225,64
5.893,113,-12.5777,2.8778,-8.8706,0.119,0.4006,0.0764,97,6.26,120,-5.8542,0.3184,-5.0653,-0.5895,1.021,1.1267,64
5.945,114,-11.7153,4.6314,-7.6977,0.1961,-0.1869,-0.2033,97,6.312,121,-6.6037,-0.8711,-5.8425,-0.815,1.456,1.3238,64
5.997,115,-11.0338,3.8393,-7.0096,-0.3329,-0.6171,-0.153,97,6.364,122,-7.8191,-0.5594,-7.8416,-0.0002,1.5453,1.3174,64
6.048,116,-11.7283,3.2968,-6.9917,0.4085,0.1948,0.0213,97,6.415,123,-13.5488,4.878,-11.4104,0.5173,0.8248,1.0451,64
6.1,117,-13.1785,2.8035,-8.2149,0.524,0.8882,0.3738,97,6.467,124,-12.0471,2.9342,-11.8741,0.5346,1.2072,1.3044,64
6.152,118,-8.5247,3.1516,-6.0501,0.8376,1.3942,0.9287,97,6.519,125,-6.8231,0.4225,-8.2926,-0.0364,1.592,1.4921,64
6.204,119,-5.9796,3.3048,-6.3811,0.3108,1.7636,1.3337,97,6.571,126,-8.0355,1.9328,-7.7664,-0.6367,1.2562,1.4279,64
6.256,120,-3.6808,1.6917,-8.2554,-0.1227,2.0331,1.6293,97,6.623,127,-8.233,1.8856,-5.7994,-1.1026,0.4464,1.4022,64
6.307,121,-4.2751,3.0312,-8.5668,-0.7429,2.2299,1.6913,97,6.674,128,-6.8025,6.6624,-7.4855,-1.4421,-0.1402,1.0493,64
6.359,122,-0.4252,7.2547,-8.106,0.074,1.1669,0.7143,97,6.726,129,-11.0983,9.5746,-9.8308,-0.3386,-0.4053,0.6594,64
6.411,123,0.0491,6.6946,-7.1245,-0.4838,1.1801,0.6776,97,6.778,130,-8.6399,5.8483,-8.2839,-0.0451,-0.0014,0.7312,64
6.463,124,0.221,6.5623,-5.2605,-0.2589,1.1597,0.4579,97,6.83,131,-7.3251,2.376,-6.7765,-0.3092,0.1832,0.6232,64
6.515,125,0.3237,5.2599,-4.3961,0.0443,0.8825,0.3113,97,6.881,132,-4.9133,1.5804,-5.2966,-0.5006,-0.1896,0.537,64
6.566,126,0.3338,4.4094,-3.7345,0.116,0.6931,0.163,97,6.933,133,-2.9302,0.2863,-4.1342,-1.0032,-0.6763,0.852,64
6.618,127,0.2231,3.2467,-3.3379,0.0038,0.5269,0.0352,97,6.985,134,-3.8348,0.7745,-4.8813,-1.3701,-0.6119,1.3988,64
6.67,128,0.2555,2.695,-3.2167,-0.1081,0.4659,-0.079,97,7.037,135,-1.7207,4.3618,-3.581,-1.4628,-0.4701,1.1608,64
6.722,129,0.3558,2.321,-3.2832,-0.3029,0.5658,-0.182,97,7.088,136,-1.0406,3.9734,-3.6848,-0.5145,-0.2078,0.949,64
