right_leg_timestamp,right_leg_index,right_leg_accel_x,right_leg_accel_y,right_leg_accel_z,right_leg_gyro_x,right_leg_gyro_y,right_leg_gyro_z,right_leg_battery_percentage,left_leg_timestamp,left_leg_index,left_leg_accel_x,left_leg_accel_y,left_leg_accel_z,left_leg_gyro_x,left_leg_gyro_y,left_leg_gyro_z,left_leg_battery_percentage
0.167,3,10.6272,-0.9807,-16.7712,0.6979,-0.7543,-0.0474,92,0.022,0,8.6532,-0.9349,-12.1596,-0.2053,-0.0819,-0.0969,63
0.218,4,10.4548,-1.0479,-16.2041,0.306,-0.7199,0.1465,92,0.074,1,8.5621,-0.9681,-12.1156,-0.163,-0.0533,-0.112,63
0.27,5,11.1326,-1.652,-15.6059,0.0467,-0.4007,0.1061,92,0.126,2,8.6708,-0.6523,-11.8788,-0.0729,-0.0861,-0.1531,63
0.322,6,12.5399,-0.9901,-13.2299,-0.3334,-0.0213,0.0712,92,0.177,3,8.7673,-0.3239,-12.2283,0.0355,-0.151,-0.1345,63
0.374,7,9.4932,-1.7311,-12.7918,-0.3098,-0.0217,0.1357,92,0.229,4,8.7375,-0.3512,-12.3151,0.0339,-0.1692,-0.0705,63
0.426,8,8.7797,-0.8881,-8.8619,-0.1038,-0.0506,0.077,92,0.281,5,8.6665,-0.4046,-12.2191,0.063,-0.2024,-0.0366,63
0.477,9,6.6049,-0.7506,-8.516,-0.4777,0.6411,0.0261,92,0.333,6,8.544,-0.4529,-12.1163,0.0269,-0.3107,-0.0274,63
0.529,10,3.9572,0.0887,-11.6809,0.2586,0.7368,0.0274,92,0.385,7,8.4121,-1.1015,-11.4727,-0.08,-0.5599,-0.0913,63
0.581,11,8.1539,5.4166,-16.5301,0.5273,-0.1227,-0.3161,92,0.436,8,8.5895,-0.9158,-12.3899,0.1176,-1.0542,-0.3376,63
0.633,12,5.7194,5.4424,-17.4976,0.6379,0.5211,-0.0085,92,0.488,9,11.3863,-2.6394,-11.7543,0.3879,-1.4362,-0.6641,63
0.685,13,7.9571,3.6779,-17.4086,0.4875,0.2787,-0.0222,92,0.54,10,12.9537,-0.3925,-13.2242,-0.3108,-1.7147,-0.6413,63
0.736,14,11.0381,2.0164,-15.5794,0.0742,0.2533,-0.0723,92,0.592,11,9.9761,1.1505,-17.6328,-0.257,-1.9079,-0.6966,63
0.788,15,13.3218,-0.3989,-11.7095,-0.4215,0.0831,0.039,92,0.644,12,6.9453,1.5601,-18.3551,0.0132,-2.0316,-0.4901,63
0.84,16,12.6655,-0.7867,-8.9646,-0.7511,-0.3704,0.3125,92,0.695,13,4.198,1.5588,-17.1311,-0.2013,-2.0113,0.0342,63
0.892,17,7.9363,2.2403,-6.5179,-0.6603,0.408,0.3812,92,0.747,14,2.5974,1.1091,-15.6745,-0.6427,-2.0052,0.4663,63
0.943,18,5.8162,2.0669,-12.7619,0.1683,0.9761,-0.1165,92,0.799,15,1.3682,1.6139,-14.1633,-1.0505,-2.0346,0.7053,63
0.995,19,9.5107,-3.7285,-6.7302,0.0462,0.115,0.2942,92,0.851,16,0.6184,1.4765,-13.2388,-1.1522,-2.0304,0.6714,63
1.047,20,12.2071,-4.8846,-9.2456,0.3436,-0.5154,0.195,92,0.903,17,1.1753,0.4072,-13.1396,-0.8119,-2.0339,0.4274,63
1.099,21,11.7534,-4.8922,-11.7145,0.1755,-0.4165,0.2416,92,0.954,18,4.4197,1.9594,-15.0192,0.0433,-1.9281,-0.0645,63
1.151,22,12.4004,-4.4881,-12.771,0.0179,-0.2952,0.1011,92,1.006,19,5.1173,4.5365,-18.4109,0.22,-1.0523,-0.3318,63
1.203,23,14.3161,-3.9666,-10.5391,-0.152,-0.3992,0.0332,92,1.058,20,3.6173,4.8408,-21.4183,0.3286,-0.083,-0.2462,63
1.254,24,13.3487,-4.2355,-10.5236,-0.4329,-0.9374,0.2403,92,1.11,21,1.8661,6.6688,-22.8808,-0.4372,0.6244,-0.0126,63
1.306,25,9.9104,-2.4952,-5.0965,-0.1648,-0.0526,0.3428,92,1.162,22,-1.4403,5.5742,-22.8937,-0.9158,0.6792,-0.0784,63
1.358,26,7.9951,-0.5532,-9.2852,-0.3692,0.64,0.1538,92,1.213,23,-3.3908,5.1521,-21.4122,-0.4623,0.2231,-0.3242,63
1.41,27,3.7466,-1.0865,-14.7816,0.4019,1.1433,-0.2008,92,1.265,24,-2.0753,3.7204,-19.5613,-0.0956,-0.3717,-0.5845,63
1.462,28,-2.5898,-6.03,-18.7932,-0.3783,0.4989,-0.1527,92,1.317,25,1.4731,2.2004,-17.7605,-0.2009,-0.9381,-0.7727,63
1.513,29,-0.5214,-4.0489,-18.353,-0.4722,0.0279,-0.0019,92,1.369,26,5.5458,2.9817,-16.8999,0.1537,-1.2899,-1.0456,63
1.565,30,3.213,-3.1008,-17.7978,-0.4706,-0.0448,0.0718,92,1.421,27,7.5653,3.24,-18.8947,0.1235,-0.7503,-0.7569,63
1.617,31,7.6108,-3.2817,-15.5541,-0.3298,-0.1213,0.0863,92,1.472,28,5.6951,4.4346,-21.4252,0.6468,0.1373,-0.3049,63
1.669,32,7.5831,-2.604,-10.9833,-0.3599,0.1329,0.0917,92,1.524,29,2.4616,6.9804,-20.7813,-0.0979,0.7852,0.3992,63
1.721,33,8.5186,-0.5357,-5.4321,-0.2716,0.3143,0.1766,92,1.576,30,0.3108,5.9911,-21.2622,0.2093,0.6243,0.5274,63
1.772,34,7.6942,2.0875,-3.1951,-0.7853,0.9077,0.2373,92,1.628,31,-2.7841,6.5214,-20.2165,0.1772,0.0037,0.4237,63
1.824,35,8.6542,2.7873,-10.0444,-0.8453,1.3408,0.1786,92,1.679,32,-3.7894,5.831,-18.2159,-0.4903,-0.4457,0.2983,63
1.876,36,11.582,7.3862,-4.7468,-0.9542,0.3052,0.1222,92,1.731,33,-1.9956,4.3868,-16.6405,-0.8317,-0.7513,-0.0311,63
1.928,37,13.7188,7.7204,-7.9613,-0.0964,0.551,0.0091,92,1.783,34,1.9143,1.096,-16.82,-0.3148,-1.2008,-0.6707,63
1.979,38,13.844,4.5142,-11.6862,0.1091,0.4107,-0.1251,92,1.835,35,6.5144,3.496,-17.353,-0.1028,-1.1044,-0.7954,63
2.031,39,15.3697,3.2161,-10.0147,-0.1906,0.1983,-0.039,92,1.887,36,7.1841,3.4128,-20.6462,-0.0052,-0.3398,-0.5024,63
2.083,40,13.143,1.9362,-7.956,0.0153,-0.1702,-0.0277,92,1.938,37,5.9129,6.0835,-22.1319,0.355,0.4369,-0.069,63
2.135,41,11.8182,3.5335,-3.2226,0.6877,0.1064,-0.0194,92,1.99,38,2.8068,5.1064,-22.67,0.5492,0.907,0.3886,63
2.187,42,10.2474,4.1301,-2.6365,0.2394,0.756,-0.0063,92,2.042,39,-1.3393,5.116,-22.9519,0.4021,0.596,0.813,63
2.238,43,7.9862,5.5352,-9.9291,-0.5005,1.2301,0.216,92,2.094,40,-3.7965,5.6642,-20.5767,-0.2292,0.0203,0.825,63
2.29,44,11.0944,9.3917,-4.6626,0.0203,0.2244,-0.1807,92,2.145,41,-3.6117,4.3705,-19.052,-0.8444,-0.4763,0.5024,63
2.342,45,10.5,9.7729,-9.9959,0.6553,0.4926,-0.0738,92,2.197,42,-2.6915,1.4759,-18.5126,-0.4083,-0.9012,-0.1521,63
2.394,46,12.5763,7.141,-11.8535,0.5557,0.1235,-0.1498,92,2.249,43,3.1529,3.0363,-20.7654,0.3766,-1.3245,-0.7824,63
2.446,47,14.4445,4.2769,-8.1248,-0.1338,0.0478,0.0138,92,2.301,44,7.4184,1.6801,-22.4101,-0.4022,-0.8843,-0.3919,63
2.497,48,14.4773,1.9048,-9.6821,-0.0379,-0.6385,0.1239,92,2.353,45,5.3976,2.0133,-23.8694,0.3812,-0.055,-0.6533,63
2.549,49,9.5419,5.2125,-4.7823,-0.2547,0.2096,0.0616,92,2.405,46,2.6528,3.4387,-21.4907,0.9526,0.6448,-0.7309,63
2.601,50,8.5242,4.7781,-6.5529,-0.8611,0.8313,-0.0456,92,2.456,47,-0.5469,2.5215,-20.9504,0.0182,0.64,-0.1885,63
2.653,51,4.7548,-1.6199,-12.7875,0.0481,0.0812,-0.3862,92,2.508,48,-2.8133,2.5655,-19.5679,-0.6005,0.0872,0.3514,63
2.705,52,4.6537,4.1696,-17.3378,0.0354,-0.6141,-0.5685,92,2.56,49,-2.5336,2.17,-17.9709,-0.4799,-0.4944,0.561,63
2.756,53,7.5189,4.0089,-18.1774,-0.0164,-0.962,-0.3038,92,2.612,50,-0.6339,1.0415,-16.9102,0.3238,-0.8953,0.0629,63
2.808,54,10.7533,2.4619,-16.6447,-0.1137,-0.9598,-0.2775,92,2.664,51,4.6546,1.8673,-17.4712,0.6477,-1.1309,-0.2952,63
2.86,55,13.114,1.5372,-10.0107,-0.1825,-0.7971,-0.2405,92,2.715,52,7.656,3.4664,-20.7325,-0.2043,-0.4695,0.098,63
2.912,56,13.5756,2.1259,-4.7222,0.3331,-0.7337,-0.2354,92,2.767,53,5.1396,5.4558,-22.8901,0.2621,0.3423,0.2579,63
2.964,57,10.6376,3.676,-0.8624,-0.3052,0.1428,-0.1309,92,2.819,54,0.5866,5.2446,-23.6499,0.3074,0.9182,0.2023,63
3.015,58,11.0046,1.8109,-7.8751,-0.3598,0.7826,-0.0354,92,2.871,55,-2.4185,5.4829,-23.1584,0.5141,0.0376,0.3354,63
3.067,59,3.744,-3.9154,-13.7524,0.4139,0.2478,-0.2417,92,2.922,56,-2.387,4.7387,-20.7793,-0.2888,-0.6393,0.2416,63
3.119,60,7.9983,-8.0946,-14.7788,-0.3205,-0.4926,0.1355,92,2.974,57,-0.5631,3.5829,-18.5538,-0.5125,-1.129,-0.2303,63
3.171,61,11.1033,-8.2204,-14.321,-0.6378,-1.0329,-0.0063,92,3.026,58,2.4745,0.2232,-17.6473,-0.4045,-1.3093,-0.6654,63
3.223,62,13.3694,-4.931,-13.6305,-0.3373,-0.9851,-0.0584,92,3.078,59,4.9539,0.4248,-18.4491,-0.3958,-0.8872,-0.6396,63
3.274,63,12.2737,-2.9821,-8.4058,-0.0926,-0.5662,-0.035,92,3.13,60,4.7912,3.0866,-21.4462,0.0044,0.0375,-0.2681,63
3.326,64,11.5731,-0.5963,-3.554,0.6075,-0.5698,-0.031,92,3.181,61,1.3663,5.7856,-23.6336,0.013,0.7123,0.3177,63
3.378,65,8.5225,1.8543,-1.8589,0.0914,0.2625,0.0259,92,3.233,62,-2.6402,4.5556,-23.9876,0.6634,0.5433,0.495,63
3.429,66,7.0846,2.5852,-6.355,-0.6085,0.8699,0.0264,92,3.285,63,-5.3083,6.2351,-22.4226,0.3536,-0.1867,0.6286,63
3.481,67,3.8967,-3.3502,-12.6431,0.2143,0.1179,0.0967,92,3.337,64,-5.7852,6.4642,-20.183,-0.419,-0.8021,0.5461,63
3.533,68,8.1098,-7.6822,-11.4501,-0.5188,-0.5873,0.2551,92,3.388,65,-3.7057,3.4671,-18.6354,-0.5839,-1.2522,-0.1377,63
3.585,69,11.1846,-7.6123,-13.8283,-0.6565,-0.7993,0.2441,92,3.44,66,2.4127,-0.2021,-19.3147,0.2467,-1.5807,-0.7717,63
3.637,70,13.4288,-4.3204,-12.3698,-0.3228,-0.9332,0.1096,92,3.492,67,4.8268,4.567,-19.7495,-0.0601,-0.8943,-0.689,63
3.688,71,11.174,-3.6834,-7.6559,-0.1105,-0.609,0.047,92,3.544,68,3.8886,4.4024,-21.1247,0.158,0.0323,-0.6648,63
3.74,72,11.1935,0.1856,-3.0035,0.5959,-0.4559,0.0716,92,3.596,69,0.0365,8.4919,-20.4292,0.0928,0.7085,-0.3702,63
3.792,73,9.5174,4.0764,-0.1453,-0.2357,0.3456,0.0358,92,3.647,70,-1.7755,4.6018,-22.8814,-0.0065,1.0464,-0.138,63
3.844,74,10.0084,1.0094,-8.1109,0.1519,0.9306,-0.0414,92,3.699,71,-5.0481,4.8471,-21.1464,-0.2802,0.3587,0.2999,63
3.896,75,12.5703,-4.5004,-6.0985,-0.348,0.0058,-0.3663,92,3.751,72,-4.1435,4.6438,-19.3053,-0.6433,-0.3057,0.438,63
3.947,76,14.4401,-8.5216,-7.8731,-0.2528,-0.6692,-0.2811,92,3.803,73,-2.0783,4.0793,-17.2314,-0.5877,-0.8565,0.1297,63
3.999,77,15.8048,-7.514,-11.0567,-0.2043,-0.6007,-0.2564,92,3.855,74,3.6005,1.0623,-17.8665,0.0236,-1.241,-0.4251,63
4.051,78,16.8008,-4.765,-8.9751,-0.5066,-0.7922,-0.0738,92,3.906,75,5.9018,2.6096,-18.9224,0.2444,-0.4809,-0.3072,63
4.103,79,16.4577,-3.2065,-9.6314,0.2296,-1.2516,-0.0789,92,3.958,76,4.3059,4.6788,-21.7916,0.2051,0.3339,-0.08,63
4.155,80,12.7356,0.2357,-4.4453,0.0837,-0.3188,0.03,92,4.01,77,0.4728,6.4887,-20.4961,-0.4331,0.9287,0.2883,63
4.207,81,11.5791,2.0516,-5.4267,-0.6141,0.4457,0.0737,92,4.062,78,-2.5145,5.567,-21.0404,0.3586,0.5093,0.2916,63
4.258,82,8.6513,-1.0284,-11.9655,-0.2721,1.0036,0.2586,92,4.114,79,-5.359,7.108,-19.4478,-0.0566,-0.2093,0.5447,63
4.31,83,5.3623,4.6014,-13.3604,-0.534,1.0729,0.5286,92,4.165,80,-4.526,6.1581,-18.2124,-0.7184,-0.6816,0.3562,63
4.362,84,8.4381,7.9317,-17.7559,0.2596,1.1235,0.4279,92,4.217,81,-2.6227,4.1385,-17.3003,-0.6899,-1.0396,-0.3357,63
4.414,85,11.4242,6.2659,-17.1837,0.3903,0.4976,0.2805,92,4.269,82,3.2032,2.9018,-18.3041,0.1712,-1.278,-0.9111,63
4.465,86,13.6037,2.9597,-12.5646,-0.2502,-0.1739,0.3425,92,4.321,83,5.5897,3.7932,-21.3403,-0.0075,-0.6255,-0.6771,63
4.517,87,14.6568,1.3006,-11.5141,-0.1555,-0.8003,0.378,92,4.372,84,4.8472,4.846,-23.5563,0.5652,0.2284,-0.7329,63
4.569,88,11.2076,3.582,-5.8194,-0.3631,0.0513,0.5133,92,4.424,85,0.539,4.6451,-22.5772,0.2397,0.8517,-0.4489,63
4.621,89,9.1509,4.1809,-7.4779,-0.9403,0.7158,0.4858,92,4.476,86,-2.4534,4.6607,-21.5754,0.378,0.7211,-0.0071,63
4.673,90,6.1647,3.428,-13.4626,-0.7676,1.2008,0.2584,92,4.528,87,-4.1629,4.4342,-20.1088,-0.1999,0.2329,0.4277,63
4.724,91,1.8855,7.8538,-17.718,-0.8976,1.2168,0.5284,92,4.579,88,-4.1371,3.7716,-18.546,-0.5477,-0.2454,0.5411,63
4.776,92,5.4262,7.9507,-20.2161,-0.0497,1.2285,0.4183,92,4.631,89,0.1765,2.6185,-17.6759,-0.5214,-0.8459,0.1084,63
4.828,93,8.9715,5.4414,-19.0212,0.2178,0.4904,0.1025,92,4.683,90,5.2461,2.85,-17.5225,-0.0889,-0.9688,-0.2053,63
4.88,94,11.8135,3.7539,-14.8881,-0.1434,-0.015,0.0211,92,4.735,91,6.8478,4.2756,-20.7699,0.1664,-0.4428,-0.2535,63
4.932,95,11.5075,2.1918,-14.7923,0.0988,-0.6727,0.0648,92,4.787,92,5.1797,7.1962,-21.5069,0.715,0.3618,-0.2549,63
4.983,96,9.7523,4.6008,-8.212,-0.2014,0.141,0.135,92,4.838,93,-0.2314,3.624,-23.3046,-0.0461,0.9479,0.1794,63
5.035,97,9.1818,5.9161,-7.31,-0.8222,0.7813,0.0494,92,4.89,94,-4.0327,3.5415,-22.9832,0.5222,0.4965,0.5614,63
5.087,98,5.7743,0.8795,-13.3401,0.0763,0.9895,0.0134,92,4.942,95,-4.4337,4.1919,-20.0629,-0.1153,-0.0279,0.8439,63
5.139,99,9.4801,5.9938,-10.937,0.3152,1.0602,0.2307,92,4.994,96,-3.2833,3.9804,-18.7179,-0.6142,-0.4382,0.643,63
5.191,100,7.8111,7.0739,-15.0361,0.9066,1.2537,0.2239,92,5.045,97,2.721,1.3017,-19.0052,-0.6529,-0.9855,0.1279,63
5.242,101,10.0422,4.7626,-15.878,0.7785,0.7452,0.0964,92,5.097,98,7.1032,2.7937,-18.0597,-0.5174,-0.8231,-0.0478,63
5.294,102,12.595,2.8737,-13.1757,0.5053,0.153,-0.0341,92,5.149,99,7.3394,3.5201,-20.1781,-0.5189,-0.1987,0.0328,63
5.346,103,11.5636,2.9329,-9.6263,0.6763,-0.0995,-0.0269,92,5.201,100,5.1114,5.7862,-22.708,0.2623,0.5394,0.0942,63
5.398,104,10.4573,3.7226,-4.4416,0.3331,0.4276,0.1623,92,5.253,101,0.2937,4.596,-22.1165,0.0978,1.0786,0.3744,63
5.45,105,9.6091,5.2593,-3.1445,-0.3439,0.9904,0.1887,92,5.305,102,-4.1026,4.6481,-22.0191,-0.0334,0.8404,0.5209,63
5.501,106,6.5228,4.3877,-10.2999,-0.0365,1.4012,0.0915,92,5.357,103,-5.4787,5.7408,-21.0265,-0.4165,0.0392,0.5984,63
5.553,107,10.0264,8.5542,-4.9332,0.0251,0.3493,-0.2693,92,5.409,104,-3.5601,4.2614,-19.1678,-0.3795,-0.6345,0.3441,63
5.605,108,12.5835,9.431,-8.7826,0.5303,-0.1443,-0.3007,92,5.46,105,2.4759,1.6799,-18.3804,-0.1814,-1.1299,-0.0863,63
5.657,109,12.7171,6.3155,-12.1716,0.5319,-0.3113,-0.3257,92,5.512,106,6.9243,1.5279,-18.6763,0.138,-1.4528,-0.5267,63
5.709,110,14.5472,4.7094,-11.7856,0.1924,-0.3692,-0.3713,92,5.564,107,7.193,1.6168,-21.1276,-0.0133,-0.5885,-0.4687,63
5.76,111,15.3484,2.5994,-8.61,0.6676,-0.2551,-0.5091,92,5.616,108,5.1676,3.518,-23.4011,0.2552,0.2554,-0.1673,63
5.812,112,14.341,1.9092,-5.3575,0.729,-0.5334,-0.3938,92,5.668,109,2.6422,3.182,-22.9718,-0.282,0.8714,0.2313,63
5.864,113,11.4314,1.9045,-1.3261,0.2583,0.2601,-0.219,92,5.719,110,-1.4721,4.1295,-23.3971,-0.0754,0.6495,0.4773,63
5.916,114,8.3884,2.5242,-2.5523,-0.2779,0.8682,-0.1388,92,5.771,111,-3.7345,5.1749,-21.9912,-0.6283,-0.1199,0.6645,63
5.968,115,9.4169,-3.3948,-9.8677,0.2858,0.6765,-0.4284,92,5.823,112,-3.5058,4.4997,-19.7652,-0.8507,-0.7148,0.6086,63
6.02,116,1.5487,-7.7147,-15.2068,-0.4343,0.1582,-0.4207,92,5.875,113,0.6466,2.436,-18.3746,-0.6503,-1.1885,0.186,63
6.072,117,4.6133,-7.3015,-14.7744,-0.6228,-0.4126,-0.3184,92,5.927,114,5.5892,1.1059,-18.1428,-0.0389,-1.4842,-0.237,63
6.123,118,7.3853,-5.7563,-15.5323,-0.2267,-0.6873,-0.3833,92,5.978,115,8.2618,3.3901,-21.2226,-0.2397,-0.8377,-0.5242,63
6.175,119,10.6559,-5.4604,-13.0742,-0.1622,-1.0509,-0.3461,92,6.03,116,7.1383,4.3542,-23.4704,0.1941,0.0736,-0.6032,63
6.227,120,8.9611,-3.7568,-12.1533,0.3356,-1.0888,-0.4174,92,6.082,117,4.5562,5.058,-23.5994,-0.1359,0.7387,-0.0702,63
6.278,121,7.6183,-1.8377,-6.3016,-0.2625,-0.1163,-0.1202,92,6.134,118,-0.0317,2.9367,-24.1124,-0.5581,1.0609,0.3707,63
6.33,122,7.6807,-0.4959,-8.2861,-0.8668,0.5935,0.3182,92,6.186,119,-4.0128,5.1531,-22.9939,-0.2911,0.3606,0.4782,63
6.382,123,5.7321,-5.599,-14.0524,0.0191,0.2801,0.6176,92,6.237,120,-5.1095,4.9767,-20.9191,-0.0438,-0.2841,0.2229,63
6.434,124,-1.1406,-9.3234,-18.261,-0.6491,-0.1311,0.2457,92,6.289,121,-2.7491,4.82,-18.5065,-0.3441,-0.8742,-0.0796,63
6.486,125,1.8679,-8.3248,-15.684,-0.7737,-0.4644,0.1524,92,6.341,122,3.0846,1.2546,-18.5269,-0.5383,-1.3048,-0.5892,63
6.537,126,6.629,-7.2135,-14.8887,-0.6126,-0.9655,0.1367,92,6.393,123,7.3686,3.9252,-17.81,-0.4214,-1.1583,-0.725,63
