right_leg_timestamp,right_leg_index,right_leg_accel_x,right_leg_accel_y,right_leg_accel_z,right_leg_gyro_x,right_leg_gyro_y,right_leg_gyro_z,right_leg_battery_percentage,left_leg_timestamp,left_leg_index,left_leg_accel_x,left_leg_accel_y,left_leg_accel_z,left_leg_gyro_x,left_leg_gyro_y,left_leg_gyro_z,left_leg_battery_percentage
0.059,1,10.3269,-3.0686,-16.7954,-0.2661,-1.2377,-0.4625,92,0.183,3,6.2499,0.8282,-13.0943,-0.6691,0.0797,0.2082,63
0.111,2,7.7407,-1.8431,-17.0255,-0.2662,-1.0339,-0.4235,92,0.235,4,5.5965,0.5671,-17.1761,-0.5853,-0.1153,-0.0853,63
0.163,3,5.0847,-1.2656,-17.5592,-0.0795,-0.8995,-0.4585,92,0.287,5,4.6597,-0.2009,-15.35,-0.1718,-0.036,-0.2189,63
0.215,4,1.9869,-0.8396,-16.9427,0.6185,-1.092,-0.5176,92,0.339,6,6.8786,0.586,-15.0847,-0.0633,-0.0156,-0.1525,63
0.266,5,1.2924,0.7957,-15.4772,0.7387,-1.2981,-0.4792,92,0.39,7,9.1224,-1.0478,-14.2672,0.1229,0.0734,0.0424,63
0.318,6,3.152,1.3118,-14.5369,0.2511,-1.577,-0.4085,92,0.442,8,9.2067,-0.6782,-12.44,0.2511,0.2008,0.0887,63
0.37,7,4.3665,1.0717,-15.0933,0.2541,-1.5884,-0.3402,92,0.494,9,8.8195,-2.5842,-9.4241,0.043,0.2705,0.1994,63
0.422,8,4.2274,1.3264,-15.8785,0.862,-1.103,-0.5008,92,0.546,10,5.5511,-1.9373,-12.3615,0.7061,0.4255,0.1317,63
0.474,9,4.6577,0.3121,-18.3338,0.0993,-0.2401,-0.6265,92,0.598,11,6.1536,3.8782,-16.1979,0.9671,-0.2786,-0.523,63
0.525,10,5.058,0.08,-20.2415,0.5656,-0.0366,-0.6313,92,0.649,12,9.6084,-0.1568,-16.5504,0.5309,-0.7078,-0.541,63
0.577,11,4.4263,0.6158,-19.1788,0.936,-0.2542,-0.5631,92,0.702,13,11.1015,2.5398,-16.1637,0.5288,-0.9856,-0.726,63
0.629,12,3.6484,0.689,-17.8059,0.6526,-0.2278,-0.5484,92,0.753,14,10.3907,1.7518,-15.117,0.5709,-0.6079,-0.4387,63
0.681,13,3.5902,-0.065,-17.6283,0.1875,-0.09,-0.4916,92,0.805,15,9.6091,1.4693,-14.2294,0.5779,-0.239,-0.2564,63
0.732,14,3.3984,-1.101,-17.6593,0.1916,0.1361,-0.4146,92,0.857,16,8.9055,1.5481,-13.171,0.5958,-0.1574,-0.1804,63
0.784,15,3.9494,-1.2798,-17.7314,0.4929,0.3782,-0.2893,92,0.909,17,8.8528,1.0123,-13.1358,0.5011,-0.072,-0.1563,63
0.836,16,4.4504,-1.2454,-17.2699,0.1001,0.6939,-0.0875,92,0.96,18,9.1907,1.0578,-12.8028,0.5,-0.0882,-0.1982,63
0.888,17,5.3525,-1.9013,-17.2823,-0.2947,0.9697,0.1202,92,1.012,19,9.1394,1.0137,-12.8034,0.4214,-0.113,-0.1715,63
0.94,18,6.0275,-1.7394,-16.4884,-0.5422,1.1979,0.3777,92,1.064,20,9.0261,1.0126,-12.7345,0.3427,-0.0735,-0.0938,63
0.992,19,7.5751,-2.0051,-15.5519,-0.7704,1.0126,0.5984,92,1.116,21,8.7565,0.7802,-12.6954,0.2705,-0.0252,0.0033,63
1.043,20,7.6566,-1.4126,-16.3756,-0.9277,0.9895,0.7315,92,1.167,22,8.6605,0.4936,-12.5224,0.2421,0.0696,0.0778,63
1.095,21,7.919,-0.1377,-16.5626,-0.6168,0.9891,0.5864,92,1.219,23,8.5736,0.248,-12.497,0.1675,0.1791,0.1345,63
1.147,22,8.1523,-0.9093,-15.6528,-0.2595,0.9318,0.4725,92,1.271,24,8.8987,-0.1389,-12.2706,0.1887,0.2006,0.1341,63
1.199,23,8.4541,-1.0694,-15.0254,-0.3501,0.8814,0.4203,92,1.323,25,8.8599,-0.0263,-12.0568,0.2607,0.2308,0.1279,63
1.251,24,8.5997,-1.0356,-14.6856,-0.1106,0.7619,0.3433,92,1.374,26,8.8595,0.1786,-11.6908,0.1985,0.2027,0.1768,63
1.302,25,8.7601,-1.1087,-14.2827,-0.0857,0.6581,0.271,92,1.426,27,8.5519,-0.2397,-11.9243,0.0022,0.1509,0.2379,63
1.354,26,8.7398,-1.321,-14.0806,-0.0106,0.5251,0.1994,92,1.478,28,9.0674,-0.5795,-12.3888,0.0405,0.1074,0.2292,63
1.406,27,8.781,-1.4498,-13.8505,0.0461,0.3975,0.134,92,1.53,29,9.1619,-0.5146,-11.957,-0.0106,0.1647,0.233,63
1.458,28,9.0258,-1.402,-13.7062,0.0416,0.2717,0.0978,92,1.582,30,9.1185,-0.6265,-11.6357,-0.0433,0.1111,0.2217,63
1.51,29,9.3623,-1.3344,-13.3666,-0.0388,0.1425,0.097,92,1.633,31,9.2099,-0.3636,-11.5846,-0.0234,0.1606,0.1742,63
1.561,30,9.2415,-1.017,-13.3066,-0.1862,-0.0462,0.1042,92,1.685,32,8.8958,0.6661,-12.6288,-0.1884,-0.0094,0.0041,63
1.613,31,10.0933,-1.2288,-13.1525,-0.3837,-0.283,0.1653,92,1.737,33,8.5918,0.9506,-13.1666,-0.6114,-0.3194,-0.2054,63
1.665,32,9.6069,-1.4005,-13.3566,-0.3162,-0.4552,0.13,92,1.789,34,9.2588,-2.425,-10.4681,-0.8678,-0.305,-0.0947,63
1.717,33,8.856,-1.0496,-12.2259,0.1395,-0.4878,-0.0311,92,1.84,35,11.2917,-2.4453,-8.5499,-0.6707,-0.1258,0.0451,63
1.768,34,8.72,-0.6646,-11.3256,0.084,0.2375,-0.3004,92,1.892,36,10.8167,-2.198,-9.6273,-0.482,0.0149,0.1041,63
1.82,35,8.823,-1.1295,-12.9798,0.0944,0.8517,-0.344,92,1.944,37,10.0797,-1.9669,-10.1852,-0.4459,0.0413,0.1339,63
1.872,36,9.0208,-0.4651,-8.6945,0.2394,0.5047,-0.2712,92,1.996,38,9.9001,-1.6544,-10.5407,-0.4158,0.0453,0.1439,63
1.924,37,10.5803,-2.2429,-6.7678,-0.0357,0.2836,-0.2552,92,2.048,39,9.6501,-1.3114,-10.9315,-0.2419,0.0585,0.1612,63
1.976,38,10.4386,-1.4323,-8.3071,0.0928,0.3065,-0.1546,92,2.099,40,9.4452,-1.2539,-11.162,-0.1246,0.1114,0.183,63
2.027,39,10.0187,-1.5895,-9.0371,0.177,0.2125,-0.0713,92,2.151,41,8.9098,-1.2136,-10.9139,-0.1085,0.1203,0.1771,63
2.079,40,9.8828,-1.4123,-9.8565,0.1007,0.1345,-0.0655,92,2.203,42,9.0053,-1.7061,-10.8225,-0.149,-0.1195,0.0456,63
2.131,41,9.8056,-1.2563,-10.249,0.0497,0.0104,-0.0776,92,2.255,43,9.3157,-1.4626,-11.2233,-0.0257,-0.3218,-0.1784,63
2.183,42,10.2716,-1.4705,-10.3338,-0.0978,-0.1953,-0.1049,92,2.307,44,8.6691,-1.1015,-11.1335,0.1476,-0.2554,-0.2802,63
2.235,43,11.4798,-1.5024,-10.289,-0.2875,-0.7247,-0.092,92,2.358,45,8.1871,-1.0344,-11.5725,0.7614,-0.0213,-0.3096,63
2.286,44,11.3204,-1.6215,-13.1124,-0.3224,-1.0925,-0.1961,92,2.41,46,7.79,-0.8766,-13.9739,1.0194,0.0962,-0.172,63
2.338,45,10.072,-1.4675,-14.8476,0.2219,-1.3751,-0.4134,92,2.462,47,7.9321,-2.7503,-13.8138,0.599,0.1809,-0.1281,63
2.39,46,9.2338,-1.0023,-16.6056,0.4904,-1.5698,-0.5531,92,2.514,48,8.1401,-1.1757,-12.6233,0.8577,0.2282,-0.1926,63
2.442,47,8.6731,-0.4934,-18.0026,0.4122,-1.819,-0.665,92,2.565,49,8.2364,-0.613,-12.2123,0.4757,0.212,-0.083,63
2.494,48,7.7952,-0.5102,-16.1672,0.4932,-2.001,-0.7812,92,2.617,50,8.3715,-1.4381,-12.1409,0.2616,0.1476,-0.0343,63
2.545,49,6.4768,0.2785,-11.6012,0.7063,-1.6273,-0.732,92,2.669,51,8.3533,-0.7192,-11.9726,0.1255,0.05,-0.0389,63
2.597,50,5.3681,0.6232,-8.5356,0.6411,-0.531,-0.5913,92,2.721,52,8.485,-0.5493,-11.9357,-0.2022,-0.027,0.0271,63
2.649,51,6.1676,0.8411,-8.5429,0.2402,0.2908,-0.3918,92,2.773,53,8.5628,-0.5786,-11.8974,-0.4017,-0.0781,0.0697,63
2.701,52,9.0445,-0.3483,-11.8758,0.03,0.8906,-0.0535,92,2.824,54,8.6738,-0.898,-11.8393,-0.2892,-0.0948,0.0222,63
2.753,53,10.5356,-0.9146,-15.7024,0.6868,1.3283,0.0427,92,2.876,55,8.676,-0.6954,-12.0563,-0.0952,-0.0904,0.0293,63
2.804,54,12.9551,-4.7041,-9.3215,0.6137,0.9815,0.1119,92,2.928,56,8.6934,-0.6187,-11.8964,-0.0267,-0.1059,0.061,63
2.856,55,11.0751,-4.5512,-11.3217,0.4707,0.8833,0.2441,92,2.98,57,8.6932,-0.7404,-11.8733,0.0205,-0.112,0.1037,63
2.908,56,10.7644,-3.7743,-11.7113,0.2653,0.6703,0.2321,92,3.031,58,8.7609,-0.7359,-11.6704,0.0746,-0.1422,0.0871,63
2.96,57,10.4671,-3.0804,-11.4613,0.2152,0.5368,0.217,92,3.083,59,9.0774,-0.606,-11.6895,0.0103,-0.2598,0.0383,63
3.012,58,10.2014,-2.5958,-11.168,0.2413,0.3768,0.199,92,3.135,60,8.9079,-0.7116,-12.163,0.1236,-0.293,-0.0019,63
3.063,59,10.1317,-2.2928,-11.0891,0.107,0.2687,0.1959,92,3.187,61,8.7989,-0.8403,-12.398,0.1947,-0.2586,0.009,63
3.115,60,10.0141,-2.2157,-11.0072,0.029,0.2156,0.1954,92,3.238,62,8.849,-0.6176,-12.0872,0.3093,-0.2448,-0.0032,63
3.167,61,9.8369,-2.0749,-11.0027,-0.0418,0.1884,0.1582,92,3.29,63,8.8904,-0.5066,-12.0114,0.2292,-0.195,0.0014,63
3.219,62,9.7656,-2.1179,-10.9249,-0.0455,0.1309,0.0958,92,3.342,64,8.8719,-0.7114,-12.2615,0.3008,-0.1853,-0.1223,63
3.271,63,9.6678,-2.0164,-10.9069,-0.0529,0.0987,0.0388,92,3.394,65,9.0755,-0.511,-11.8566,0.5091,-0.1938,-0.2374,63
3.322,64,9.7741,-1.8937,-10.7836,-0.0644,0.041,-0.017,92,3.445,66,9.1598,-0.397,-11.4144,0.2357,-0.0558,-0.2114,63
3.374,65,9.8459,-1.7816,-10.6897,-0.1268,-0.0699,-0.0686,92,3.497,67,9.0576,-0.6988,-11.2665,-0.0235,0.1033,-0.1579,63
3.426,66,10.4268,-1.0551,-10.701,-0.225,-0.2717,-0.1021,92,3.549,68,8.824,-0.8782,-11.5445,0.1073,0.2488,-0.1722,63
3.478,67,10.7064,-1.6659,-15.8149,-0.2292,-0.8485,-0.1349,92,3.601,69,8.1743,-1.6748,-12.3015,0.2604,0.2346,-0.1401,63
3.53,68,11.5524,-1.3646,-18.3604,-0.3935,-1.2927,-0.2654,92,3.653,70,9.3119,-1.3133,-10.5765,0.1644,-0.0551,-0.0904,63
3.581,69,10.9807,-1.4515,-17.9095,-0.5995,-1.6169,-0.5198,92,3.705,71,9.0089,-1.1862,-11.2603,0.0007,0.1655,-0.02,63
3.633,70,9.6321,-1.1401,-17.6459,-0.2165,-1.8535,-0.6899,92,3.756,72,9.0685,-1.2186,-11.3834,0.0043,0.1948,-0.0531,63
3.685,71,7.9948,-0.9452,-16.0637,0.3814,-2.0261,-0.7118,92,3.808,73,8.856,-0.9434,-11.4552,-0.1112,0.1568,-0.0577,63
3.736,72,6.5428,-0.3218,-15.0028,0.297,-2.0848,-0.4798,92,3.86,74,8.7772,-0.5813,-11.375,-0.2187,0.0763,-0.0517,63
3.788,73,5.5838,-0.0315,-14.4384,-0.2438,-1.8533,-0.2268,92,3.912,75,8.7578,-0.9921,-11.7112,-0.3096,0.0481,-0.055,63
3.84,74,4.7173,0.0036,-14.8565,-0.0326,-1.4046,-0.0775,92,3.964,76,8.889,-0.9286,-11.9971,-0.1558,0.0988,-0.1325,63
3.892,75,3.9555,0.348,-15.8275,0.2591,-0.9356,-0.0047,92,4.015,77,8.9213,-0.7135,-11.8647,0.0571,0.0959,-0.1801,63
3.944,76,3.2283,0.244,-16.7977,0.1727,-0.5248,0.0141,92,4.067,78,8.9004,-0.1806,-11.7966,0.2281,0.0855,-0.1891,63
3.995,77,2.6409,-0.1017,-17.9838,0.1853,-0.3022,0.0164,92,4.119,79,8.8341,0.1403,-11.6832,0.1643,0.0593,-0.1142,63
4.047,78,2.2376,-0.3492,-18.5322,0.1502,-0.2119,0.0222,92,4.171,80,8.8597,0.1177,-11.473,0.068,-0.002,-0.0568,63
4.099,79,1.8308,-0.6896,-18.8707,0.1581,-0.1657,0.0197,92,4.222,81,8.8103,-0.0108,-11.4424,-0.1265,-0.0656,-0.0143,63
4.151,80,1.5898,-0.7194,-19.1138,0.1327,-0.1294,0.0338,92,4.274,82,8.7881,-0.1618,-11.705,-0.2068,-0.0776,-0.0109,63
4.203,81,1.4645,-0.7123,-19.3096,0.1293,-0.117,0.0672,92,4.326,83,8.7882,-0.1086,-11.8592,-0.2033,-0.0598,-0.0185,63
4.255,82,1.4508,-0.7587,-19.4475,0.1063,-0.1169,0.0945,92,4.378,84,8.7935,-0.0588,-11.8489,-0.1644,-0.0409,-0.0237,63
4.307,83,1.4196,-0.9092,-19.498,0.0669,-0.1111,0.099,92,4.43,85,8.7442,-0.0302,-11.8205,-0.1508,-0.0405,-0.0325,63
4.358,84,1.3514,-0.7752,-19.5087,0.1142,-0.1014,0.0845,92,4.481,86,8.8318,-0.0871,-11.9929,-0.0304,-0.0242,-0.054,63
4.41,85,1.2807,-0.5562,-19.4653,0.0933,-0.0906,0.0488,92,4.533,87,8.5984,0.1513,-11.9709,0.0841,0.0596,-0.0762,63
4.462,86,1.2203,-0.7153,-19.4537,0.0244,-0.0764,0.0103,92,4.585,88,8.6642,0.416,-11.6599,0.0873,0.0507,-0.0557,63
4.514,87,1.2549,-0.8409,-19.4385,-0.0137,-0.0505,-0.0366,92,4.637,89,8.7011,0.4286,-11.5714,0.0217,0.0283,-0.0096,63
4.565,88,1.2385,-1.0228,-19.4485,-0.0302,-0.0287,-0.0827,92,4.688,90,8.7239,0.3402,-11.5928,-0.0821,-0.012,0.0184,63
4.617,89,1.1233,-1.1741,-19.4828,-0.018,-0.001,-0.1121,92,4.74,91,8.7598,0.3027,-11.6407,-0.1645,-0.0455,0.0304,63
4.669,90,1.0041,-1.3287,-19.5676,-0.0031,0.008,-0.1044,92,4.792,92,8.7668,0.1499,-11.8202,-0.2013,-0.0691,0.0262,63
4.721,91,1.0146,-1.3246,-19.5994,0.0378,-0.0076,-0.065,92,4.844,93,8.7544,0.1412,-11.9059,-0.1767,-0.0568,0.0168,63
4.772,92,1.0812,-1.1795,-19.6052,0.0585,-0.0149,-0.0184,92,4.896,94,8.8282,0.0731,-11.9035,-0.0719,-0.0279,-0.0145,63
4.824,93,1.1369,-1.1027,-19.5104,0.0427,-0.0089,0.0186,92,4.947,95,8.8592,0.2121,-11.8222,0.0242,0.0171,-0.0365,63
4.876,94,1.185,-1.0981,-19.4463,0.0559,0.0044,0.0423,92,4.999,96,8.8416,0.2117,-11.7812,0.0419,0.032,-0.0333,63
4.928,95,1.2504,-0.9609,-19.5271,0.0963,0.0185,0.0396,92,5.051,97,8.9241,0.1926,-11.7924,0.0701,0.0847,-0.0315,63
4.98,96,1.2643,-0.9503,-19.5248,0.044,0.0301,0.0393,92,5.103,98,8.9187,0.2953,-11.6544,0.116,0.0985,-0.044,63
5.031,97,1.2539,-1.03,-19.5113,0.0529,0.047,0.0347,92,5.155,99,8.8496,0.3779,-11.5289,0.0777,0.0685,-0.0248,63
5.083,98,1.2365,-1.1353,-19.5889,0.0256,0.0553,0.0308,92,5.206,100,8.8302,0.2693,-11.4797,0.0592,0.0297,-0.0241,63
5.135,99,1.1788,-1.2122,-19.6177,-0.024,0.0299,0.0287,92,5.258,101,8.7999,0.1414,-11.5354,0.0491,0.0129,-0.0259,63
5.187,100,1.1519,-1.2193,-19.4506,0.0263,-0.0126,0.0464,92,5.31,102,8.7691,0.2384,-11.6438,0.0848,0.0157,-0.0378,63
5.238,101,1.3237,-1.0311,-19.1853,0.0422,-0.0175,0.0362,92,5.362,103,8.7816,0.2576,-11.6044,0.1153,0.0071,-0.0449,63
5.29,102,1.8496,-1.1704,-18.9964,0.0435,0.0099,0.0009,92,5.414,104,8.8108,0.3308,-11.5905,0.1057,-0.0223,-0.0434,63
5.342,103,3.0341,-1.002,-18.8663,0.087,0.0368,-0.0892,92,5.465,105,8.7649,0.3613,-11.602,0.0741,-0.0444,-0.0429,63
5.394,104,3.9684,-1.0664,-18.9943,0.1155,0.1445,-0.189,92,5.517,106,8.7849,0.4296,-11.4864,0.0441,-0.1159,-0.0821,63
5.446,105,4.5144,-1.4061,-19.8978,0.1787,0.3737,-0.2732,92,5.569,107,8.6426,0.3098,-11.4197,-0.0321,-0.2374,-0.1259,63
5.498,106,3.8446,-2.2281,-21.2611,0.1885,0.6588,-0.231,92,5.621,108,8.4896,0.4655,-11.7692,-0.1732,-0.3166,-0.1779,63
5.549,107,1.9828,-1.8669,-22.435,-0.1808,0.739,-0.0011,92,5.672,109,8.3008,0.6922,-12.0069,-0.1893,-0.4023,-0.2474,63
5.601,108,-0.2382,-1.6138,-21.4663,-0.7076,0.2628,0.1904,92,5.724,110,8.4922,0.7692,-12.7384,-0.118,-0.381,-0.2794,63
5.653,109,-1.2872,-1.7408,-19.446,-0.6597,-0.323,0.2403,92,5.776,111,8.8655,0.7903,-13.365,-0.0242,-0.3095,-0.2797,63
5.705,110,-0.1814,-1.7016,-17.4642,-0.4199,-0.7356,0.2072,92,5.828,112,9.7412,1.2604,-13.4761,0.0427,-0.3722,-0.1216,63
5.757,111,4.3473,-0.7553,-15.5642,-0.1899,-0.9108,-0.0565,92,5.88,113,10.9362,-0.951,-11.1874,0.1769,-0.3066,-0.1324,63
5.808,112,6.2064,-1.6048,-16.436,-0.4916,-0.4268,-0.2007,92,5.931,114,9.4137,-0.3774,-10.1675,-0.1781,-0.6436,-0.1713,63
5.86,113,7.6028,-2.642,-19.002,0.2582,0.3669,-0.1668,92,5.983,115,5.6355,-1.7429,-8.6413,0.1043,0.0638,0.3793,63
5.912,114,7.5329,-2.2527,-21.8734,-0.4817,0.9461,0.0729,92,6.035,116,2.5285,4.0201,-14.288,-0.601,0.2802,0.7913,63
5.964,115,3.8068,-1.5256,-23.969,0.2452,1.3087,0.197,92,6.086,117,-3.6272,-2.3627,-17.5021,-0.1018,0.5516,0.244,63
6.016,116,-2.1716,0.3128,-21.9656,0.3257,0.9045,0.1261,92,6.138,118,-2.3949,-1.1954,-18.141,-0.1121,0.9434,0.1719,63
6.067,117,-3.3932,0.7432,-19.6191,-0.081,0.1789,0.0543,92,6.19,119,2.1179,-1.6872,-17.7573,-0.2812,0.5941,0.3424,63
6.119,118,-0.5203,1.324,-17.6584,-0.2603,-0.3598,0.0224,92,6.242,120,6.6349,-2.7851,-14.9045,-0.167,0.3646,0.2362,63
6.171,119,4.886,1.3119,-16.4991,-0.4751,-0.3971,-0.1053,92,6.294,121,5.8754,-1.2521,-13.6801,0.0423,-0.0251,-0.1975,63
6.223,120,5.2235,0.0842,-17.853,-0.3798,0.3533,0.1595,92,6.345,122,3.4461,-4.8369,-8.8204,0.4733,0.6666,0.1371,63
6.274,121,6.0436,0.7293,-19.6619,0.3564,0.8557,0.2603,92,6.397,123,2.8964,0.4254,-14.4187,0.3932,1.1715,0.5824,63
6.326,122,6.4776,0.1921,-22.355,-0.308,1.1222,0.3753,92,6.449,124,4.2798,5.6027,-11.6296,-0.3901,0.3478,-0.0316,63
6.378,123,3.5689,0.8651,-24.0364,0.208,0.7417,0.1792,92,6.501,125,1.2859,9.3812,-14.4507,-0.5154,-0.15,-0.5942,63
6.43,124,-0.2319,1.1916,-21.3424,0.5894,-0.0445,-0.1717,92,6.553,126,2.3926,8.0123,-15.9322,-0.4652,-0.4873,-0.536,63
6.482,125,-0.8321,1.3064,-18.6926,0.2801,-0.7059,-0.263,92,6.604,127,6.4606,5.0742,-15.8996,-0.3449,-0.5722,-0.3503,63
6.534,126,2.8351,1.3139,-16.3961,-0.283,-1.1644,-0.3588,92,6.656,128,7.6781,2.1885,-12.0609,0.3489,-0.6634,-0.636,63
6.585,127,6.7276,0.7289,-15.8459,-0.2233,-1.1567,-0.4287,92,6.708,129,7.9284,-0.2395,-7.9409,0.2462,-0.6882,-0.6731,63
6.637,128,9.5018,-1.3578,-18.0951,0.2816,-0.3828,-0.2356,92,6.76,130,5.4018,-1.7623,-7.7984,0.8544,0.1288,-0.2951,63
6.689,129,8.5122,-0.3597,-21.2115,-0.3276,0.3989,0.1184,92,6.812,131,1.9601,4.0059,-13.6728,0.7616,0.4923,-0.094,63
6.741,130,6.025,-0.9918,-23.486,0.3269,0.9458,0.4687,92,6.863,132,6.5479,-2.3731,-17.9602,0.0621,-0.1864,0.312,63
6.792,131,0.872,1.3277,-22.6098,0.2536,0.7796,0.3355,92,6.915,133,6.5834,1.0738,-19.4398,0.1411,-0.6023,-0.4433,63
6.844,132,-1.6821,1.8791,-20.4238,-0.061,0.263,0.0136,92,6.967,134,9.9221,0.7274,-18.2554,-0.2041,-0.7188,-0.0754,63
6.896,133,0.7331,1.2745,-17.8986,-0.47,-0.2616,-0.1328,92,7.019,135,10.2851,-0.6295,-15.385,0.1839,-0.5905,-0.1551,63
6.948,134,4.9609,0.618,-15.3292,-0.3622,-0.2486,-0.1812,92,7.07,136,9.1927,1.041,-14.1248,-0.0599,-0.7564,-0.2634,63
7.0,135,8.8865,-0.9455,-15.3176,-0.4796,0.4155,0.2969,92,7.122,137,6.7713,-2.7344,-10.3487,0.5548,0.0441,-0.0209,63
7.051,136,11.1996,-0.2826,-19.1843,0.3242,0.9816,0.5945,92,7.174,138,4.5288,-0.373,-13.4139,0.8172,0.7172,0.4078,63
7.103,137,9.4164,1.3842,-22.0065,0.5033,1.1963,0.6019,92,7.226,139,-0.5135,5.0199,-17.7713,-0.0806,0.4825,0.0214,63
7.155,138,4.0696,2.0113,-23.8406,0.2964,0.7838,0.2683,92,7.278,140,-1.4243,5.8643,-15.8981,0.3215,1.0064,-0.132,63
7.207,139,-0.1178,1.8302,-21.9787,0.1599,-0.1013,0.0065,92,7.329,141,1.6155,6.0176,-16.5513,0.0675,0.7079,-0.2475,63
7.259,140,0.2509,0.5895,-19.456,-0.2297,-0.7473,0.0199,92,7.381,142,6.2963,2.5804,-15.2003,0.0733,0.0206,-0.2786,63
7.31,141,5.4488,1.5278,-16.6281,-0.4306,-0.7239,0.0791,92,7.433,143,7.7013,3.4296,-14.5959,-0.1685,-0.535,-0.5709,63
7.362,142,8.5095,0.8176,-16.1371,-0.5948,-0.6654,0.3739,92,7.485,144,6.136,-2.453,-8.045,0.5046,0.2945,-0.3462,63
7.414,143,8.831,2.5409,-17.4942,-0.0691,0.1927,0.5024,92,7.536,145,4.3286,-0.9672,-11.3477,1.043,0.8999,0.4116,63
7.466,144,8.5132,0.6056,-20.7729,-0.1848,0.819,0.7805,92,7.588,146,1.0932,4.5863,-16.2632,0.0841,0.3342,0.2451,63
7.518,145,4.8229,1.5719,-23.0659,0.3174,1.0694,0.4806,92,7.64,147,-4.6748,8.6394,-17.5951,0.7361,0.2882,-0.4417,63
7.569,146,-1.8042,2.3157,-21.9553,0.6955,0.675,-0.0361,92,7.692,148,-4.687,9.0382,-17.3218,0.7388,0.7394,-0.3788,63
7.621,147,-3.114,1.6983,-19.4183,0.4068,-0.1099,-0.4709,92,7.744,149,1.6965,4.0252,-16.9096,0.4022,0.2453,-0.2514,63
7.673,148,0.1799,1.4024,-16.4798,0.4203,-0.7479,-0.6904,92,7.796,150,6.3555,0.1983,-12.3614,0.6402,-0.1636,-0.4075,63
7.725,149,5.397,1.3728,-12.9127,0.257,-0.6685,-0.7127,92,7.847,151,9.1414,-2.784,-7.6884,-0.1756,-0.4168,-0.2614,63
7.777,150,9.0658,-1.4835,-14.8625,0.2987,0.1904,-0.4621,92,7.899,152,7.9523,-4.2767,-7.9776,0.5465,0.3584,-0.1205,63
7.828,151,11.7096,-1.4752,-18.8522,0.069,0.8173,-0.4354,92,7.951,153,4.9213,-0.3634,-12.1566,1.0735,0.9465,0.0993,63
7.88,152,9.6435,-1.7951,-21.764,0.5199,0.621,-0.1188,92,8.003,154,-0.6411,5.0269,-16.8536,0.5179,0.6631,-0.3529,63
7.932,153,5.0239,-0.7543,-23.2211,0.2641,-0.2044,-0.0616,92,8.055,155,-5.9405,8.961,-13.5601,1.0527,1.1689,-0.4383,63
7.984,154,1.6852,0.021,-20.1807,0.1166,-0.8226,-0.2095,92,8.107,156,-3.2844,10.3948,-14.5089,0.7927,1.2873,-0.5174,63
8.035,155,1.8772,0.4192,-16.4333,0.048,-1.2738,-0.2047,92,8.158,157,2.7202,5.557,-14.4237,0.5563,0.7586,-0.5264,63
8.087,156,6.6358,0.7065,-13.5377,-0.478,-1.603,-0.1567,92,8.21,158,3.6442,3.9663,-11.1626,0.5657,0.4868,-0.677,63
8.139,157,9.5041,-1.22,-12.6731,-0.468,-0.96,0.0833,92,8.262,159,4.0415,-2.402,-5.663,0.5422,0.9837,-0.2026,63
8.191,158,12.2023,-1.9702,-15.5608,0.3349,-0.0223,0.3329,92,8.314,160,4.2415,-4.1191,-5.4578,1.0704,1.4029,0.3591,63
8.243,159,13.4013,-1.2528,-19.3618,0.0185,0.6621,0.7318,92,8.366,161,1.3198,2.2858,-11.9645,0.585,1.7089,0.9101,63
8.294,160,13.0307,-0.1822,-22.136,0.6632,1.1205,0.7666,92,8.417,162,2.0256,-3.6285,-16.7134,0.7337,1.5939,1.1885,63
8.346,161,7.367,0.8194,-23.5973,0.4729,1.182,0.2432,92,8.469,163,6.5957,-7.945,-19.4316,-0.1409,1.501,0.7109,63
8.398,162,2.3161,-0.3446,-21.4713,-0.1769,0.6673,-0.3644,92,8.521,164,8.8412,-6.5343,-18.8748,-0.4773,0.8241,0.6025,63
8.45,163,2.2362,-0.3211,-18.2614,0.2924,-0.1667,-0.5766,92,8.573,165,11.2932,-6.1274,-14.3974,-0.2332,0.3111,0.3691,63
8.502,164,5.7454,1.5593,-13.7731,0.3911,-0.439,-0.4096,92,8.625,166,12.7425,-3.9854,-12.6174,-0.7922,-0.4335,0.2688,63
8.554,165,9.459,0.9194,-13.548,0.052,0.1623,-0.1484,92,8.676,167,9.7968,-7.22,-7.6898,0.0965,0.3686,0.5535,63
8.605,166,11.7769,-0.8951,-17.8928,0.1253,0.7968,0.1578,92,8.728,168,9.6574,-2.6547,-11.2172,0.7451,0.954,0.7562,63
8.657,167,11.3626,-0.6134,-21.0639,0.093,1.0402,0.4357,92,8.78,169,3.4552,3.3546,-16.168,0.8245,1.0295,0.22,63
8.709,168,7.7677,1.0012,-21.6173,-0.008,0.7162,0.2711,92,8.832,170,-2.9509,7.7405,-19.7813,1.0889,1.1237,-0.1708,63
8.761,169,0.4967,2.0857,-20.1881,0.0563,0.0019,-0.3821,92,8.884,171,2.4497,7.6311,-18.5757,0.9401,1.2222,-0.1084,63
8.813,170,-0.0412,1.0447,-19.0344,0.0388,-0.6388,-0.9129,92,8.935,172,6.9052,1.9313,-17.4176,0.3,0.9302,-0.1735,63
8.864,171,3.8289,-0.4374,-17.7052,0.1582,-1.1396,-1.1183,92,8.987,173,9.0988,1.4206,-14.3207,0.2509,0.6627,-0.0329,63
8.916,172,7.3707,-1.4886,-16.0122,-0.1244,-1.5052,-0.7099,92,9.039,174,10.4593,-4.2599,-8.2483,-0.4033,0.7772,0.3197,63
8.968,173,10.644,-2.4764,-16.1749,0.5246,-0.83,0.0103,92,9.091,175,9.283,-5.81,-7.7437,0.3803,1.2522,0.5016,63
9.02,174,11.5225,-0.3316,-18.8772,0.1591,0.0726,0.6853,92,9.142,176,6.1681,-1.0726,-12.597,0.8008,1.5989,0.6345,63
9.071,175,10.0859,1.975,-21.7823,0.2376,0.422,0.918,92,9.194,177,9.619,-6.0796,-6.5861,-0.0818,0.5001,0.788,63
9.123,176,4.8724,2.6873,-21.7834,0.5487,0.0814,0.3516,92,9.246,178,6.7768,-4.2963,-12.2345,-0.5729,-0.3018,-0.0963,63
9.175,177,2.2644,1.9119,-19.5355,0.3849,-0.5589,-0.289,92,9.298,179,7.9425,-2.5626,-12.6504,-0.7174,-0.725,-0.0422,63
9.227,178,2.7284,0.8856,-17.374,0.2665,-1.0813,-0.5604,92,9.35,180,9.0071,-4.3433,-11.5196,-0.218,-0.6958,-0.2001,63
9.279,179,5.9684,0.8256,-14.4993,0.0806,-1.2581,-0.4543,92,9.401,181,9.4853,-1.9133,-11.3555,-0.6309,-0.9797,-0.2518,63
9.33,180,9.2927,0.1034,-14.6605,-0.2568,-0.8777,-0.2066,92,9.453,182,5.6916,-4.6143,-6.9847,0.2142,-0.03,0.258,63
9.382,181,11.6843,-0.1669,-17.258,0.3043,0.0378,0.0098,92,9.505,183,7.4627,-1.8095,-11.3276,0.831,0.6302,0.2598,63
9.434,182,11.2931,-1.0545,-20.6005,0.2901,0.7059,0.3081,92,9.557,184,1.9322,3.9715,-16.2486,0.5092,0.2493,0.027,63
9.486,183,8.3861,0.0866,-23.0401,0.4777,0.9397,0.398,92,9.609,185,-4.0624,6.2947,-19.8401,1.0463,0.8669,-0.6513,63
9.538,184,1.632,1.2506,-22.5176,0.2054,0.6228,0.0865,92,9.66,186,2.1524,6.4477,-19.3845,1.0462,0.9798,-0.7738,63
9.589,185,-1.4326,1.1607,-19.8183,0.0586,-0.1201,-0.3258,92,9.712,187,6.4915,3.3599,-18.9443,0.4345,0.8282,-0.3309,63
9.641,186,-0.6609,0.4429,-17.2053,0.0864,-0.7578,-0.4507,92,9.764,188,9.8551,0.4645,-15.1338,0.665,0.417,-0.4117,63
9.693,187,4.7834,-0.2632,-13.4789,0.028,-0.7596,-0.2204,92,9.816,189,9.663,1.5583,-13.4331,-0.1183,-0.2849,-0.2377,63
9.745,188,8.7569,-2.4405,-11.9672,-0.0924,-0.1581,0.2779,92,9.868,190,7.2977,-1.7058,-10.0514,0.5883,0.2767,0.0202,63
9.797,189,11.6569,-2.2372,-16.0859,0.4187,0.563,0.7016,92,9.919,191,5.878,0.6796,-10.8059,1.104,0.8869,0.185,63
9.848,190,12.8077,-0.4879,-19.7451,0.8727,1.0892,0.8309,92,9.971,192,0.3695,5.7881,-15.8678,1.1227,1.1014,-0.1455,63
9.9,191,8.2513,0.5866,-21.949,0.465,0.9484,0.5396,92,10.023,193,1.1326,5.0208,-16.9267,1.494,1.4355,-0.7593,63
9.952,192,2.541,1.2324,-20.283,0.3487,0.3799,0.0237,92,10.075,194,4.4769,5.1645,-17.7793,1.2715,0.6659,-0.7703,63
10.004,193,1.0231,1.1089,-18.8064,0.3127,-0.2098,-0.3714,92,10.126,195,8.3847,1.7165,-17.0328,0.5999,-0.153,-0.5709,63
10.056,194,5.7104,0.4557,-17.8904,-0.0848,-0.8074,-0.2032,92,10.178,196,7.9877,3.8947,-15.0173,0.0931,-0.2134,-0.4251,63
10.108,195,9.4334,-2.7194,-18.6412,-0.7371,-1.2337,0.2893,92,10.23,197,7.9725,-2.4543,-8.3526,-0.0143,0.5292,-0.0074,63
10.159,196,11.2455,-2.8236,-18.3349,-0.4892,-0.8143,0.6115,92,10.282,198,7.5651,-5.725,-6.7971,0.6642,1.0712,0.6749,63
10.211,197,10.2307,-1.092,-20.1896,-0.3748,-0.1406,0.8845,92,10.334,199,3.4883,1.1138,-12.942,0.0382,1.4668,1.1729,63
10.263,198,8.2461,0.3768,-22.139,0.1384,0.0878,0.5412,92,10.385,200,-1.2638,-1.0985,-17.3553,0.7026,1.7555,0.4493,63
10.315,199,4.2285,0.6175,-20.6272,0.1305,-0.0853,0.0371,92,10.437,201,4.1949,-0.3841,-16.7193,0.3795,0.6144,-0.1772,63
10.366,200,1.9803,0.6305,-16.8901,-0.148,-0.4455,-0.3162,92,10.489,202,8.1789,-2.7276,-17.3272,0.0518,0.3944,0.0019,63
10.418,201,2.0316,-0.094,-12.8363,-0.4009,-0.4567,-0.4719,92,10.541,203,9.7947,-2.4986,-13.7837,0.3048,0.3631,-0.0804,63
10.47,202,4.8333,-0.7277,-9.2318,-0.1367,0.1529,-0.3164,92,10.592,204,8.1672,0.3521,-13.6997,0.3922,0.3975,-0.1722,63
10.522,203,8.1658,-2.2561,-12.2405,-0.1249,0.7899,0.0348,92,10.644,205,6.8649,0.2881,-11.8367,0.9609,0.8686,-0.1964,63
10.574,204,11.2255,-3.4236,-16.9385,0.1769,0.7621,0.1305,92,10.696,206,4.6274,0.5842,-13.3067,0.9882,1.3189,-0.0476,63
10.625,205,10.8585,-1.4764,-20.3674,-0.1021,-0.0927,0.2977,92,10.748,207,1.8583,5.7185,-17.693,1.1023,0.9491,-0.33,63
10.677,206,8.7995,-1.0079,-19.5731,-0.4317,-0.7411,0.0827,92,10.8,208,-1.251,-1.1232,-17.5994,1.4649,1.3776,-0.4097,63
10.729,207,6.0858,-0.4086,-16.5096,0.0447,-1.2143,-0.1586,92,10.852,209,4.2042,-1.3231,-19.0816,1.1947,1.109,-0.4716,63
10.781,208,6.9635,-1.2511,-12.0584,0.223,-1.5596,-0.1231,92,10.903,210,8.1857,-3.161,-17.3769,0.3828,0.1426,-0.5618,63
10.833,209,10.348,-1.0324,-8.3793,-0.0811,-1.4738,0.2546,92,10.955,211,10.6672,-0.6053,-16.1695,0.3342,-0.4732,-0.789,63
10.884,210,10.3491,-0.2477,-8.7329,0.069,-0.3973,0.6387,92,11.007,212,8.8222,-5.7386,-9.9021,0.5804,0.299,-0.1654,63
10.936,211,11.8529,0.0176,-14.3786,0.3871,0.3884,0.5846,92,11.059,213,5.0491,-5.0327,-9.9565,1.0983,0.9032,0.5584,63
10.988,212,10.4164,-0.7064,-18.499,0.9591,0.9618,-0.0116,92,11.111,214,1.8217,1.619,-15.2479,0.1245,0.9123,1.0259,63
11.04,213,5.0396,0.4751,-21.5063,0.055,0.5237,-0.2364,92,11.162,215,-4.1431,6.4738,-19.1098,0.7655,0.337,0.0935,63
11.092,214,0.4424,-0.8837,-20.8527,-0.4438,-0.2912,-0.5386,92,11.214,216,2.0935,5.0632,-17.2027,0.7618,0.593,-0.0031,63
11.143,215,0.9783,-0.4603,-18.3028,-0.1177,-0.8859,-0.6247,92,11.266,217,5.5981,2.5268,-16.5913,0.9386,0.7001,0.0279,63
11.195,216,5.9797,-0.4755,-14.9975,0.0889,-1.32,-0.6537,92,11.318,218,8.5151,0.5676,-11.161,0.8087,0.4412,-0.0393,63
11.247,217,9.63,-0.5114,-11.687,-0.3624,-1.0643,-0.6388,92,11.37,219,9.5619,-1.4147,-5.5437,0.8569,0.0103,-0.404,63
11.299,218,10.53,-2.4135,-12.8307,-0.1954,-0.0984,-0.5454,92,11.421,220,7.3073,-0.4935,-7.1522,1.3001,0.5993,-0.4034,63
11.351,219,10.3999,-1.8346,-17.3693,-0.7166,0.6065,-0.3409,92,11.473,221,3.4131,0.2041,-12.6848,0.6719,1.1224,-0.0275,63
11.402,220,4.8567,-4.0263,-20.6817,0.1511,0.9749,0.0962,92,11.525,222,7.6083,2.304,-6.6502,0.1253,0.1524,-0.6915,63
11.454,221,1.3167,-3.1192,-23.0993,-0.5507,0.0384,0.3058,92,11.577,223,3.3953,5.628,-12.8348,0.1536,-0.4252,-1.1063,63
11.506,222,1.1977,-3.8431,-20.846,-0.8267,-0.6453,0.3871,92,11.628,224,2.5019,5.7955,-13.5737,-0.1131,-0.1678,-0.4779,63
11.558,223,5.4199,-2.1766,-18.4258,-0.4767,-1.1444,0.4172,92,11.68,225,6.9433,-0.1085,-12.4575,0.0129,-0.1144,-0.4983,63
11.61,224,9.0616,-2.0302,-16.0027,-0.6866,-1.5086,0.5072,92,11.732,226,9.6365,-0.3899,-6.4843,-0.1078,-0.7456,-0.7236,63
11.661,225,9.1992,-3.2327,-14.6278,-0.5285,-0.4908,0.5906,92,11.784,227,3.995,-3.3683,-3.955,0.594,0.1408,0.1319,63
11.713,226,9.6354,-1.0076,-16.0299,0.1005,0.3201,0.5963,92,11.836,228,5.7527,-0.0869,-7.6847,0.1878,0.7877,0.7766,63
11.765,227,9.0211,-0.1524,-19.7042,0.3356,0.912,0.6365,92,11.887,229,9.3159,-5.3602,-3.0009,-0.2884,-0.0919,0.9092,63
11.817,228,5.698,-0.2371,-21.5061,0.9215,1.344,0.3804,92,11.939,230,11.9164,-3.6995,-7.1085,-0.5884,-0.7338,0.3749,63
11.869,229,2.7341,0.1488,-22.5215,0.27,1.5051,-0.0763,92,11.991,231,12.5017,-0.9003,-10.3935,-0.5897,-0.9484,0.2144,63
11.921,230,0.9893,-0.3429,-22.8978,0.1153,1.0486,-0.3793,92,12.043,232,14.2416,-1.416,-10.2098,-0.3356,-0.7076,0.1733,63
11.972,231,3.6844,0.239,-20.68,0.5315,0.0919,-0.6429,92,12.095,233,14.4149,-1.9925,-7.4483,-0.2254,-0.7994,0.0065,63
12.024,232,7.4328,1.2949,-17.8004,0.2081,-0.538,-0.5994,92,12.146,234,12.7786,-6.751,-3.6534,-0.4841,0.0067,0.2689,63
12.076,233,10.6905,-0.6456,-17.8132,0.614,-0.3023,-0.598,92,12.198,235,9.6508,-6.5099,-6.6033,0.3214,0.6789,0.4145,63
12.128,234,9.8689,-1.4952,-20.9905,0.1889,0.4577,-0.2353,92,12.25,236,5.6228,-2.8797,-12.0037,-0.3343,1.1805,0.6827,63
12.179,235,7.6161,-1.0505,-23.3247,0.4187,0.6355,0.0753,92,12.302,237,9.2211,-7.3985,-6.1531,-0.8128,0.1948,0.4318,63
12.231,236,2.4339,-0.1852,-22.6642,0.3921,-0.007,0.0472,92,12.354,238,11.8472,-6.9854,-10.6067,-0.8547,-0.5246,-0.3447,63
12.283,237,-0.1844,-0.0494,-20.5217,-0.1098,-0.6785,-0.2456,92,12.405,239,13.7639,-5.3662,-12.6987,-0.9406,-1.0314,-0.1479,63
12.335,238,1.8458,-1.1865,-18.072,-0.1221,-1.1686,-0.4404,92,12.457,240,14.1987,-5.9032,-11.7654,-0.5315,-1.0865,-0.1115,63
12.387,239,4.9929,-1.0728,-15.2445,-0.0193,-1.5078,-0.3435,92,12.509,241,12.7111,-2.4203,-11.3098,-0.5652,-1.3319,-0.3365,63
12.438,240,8.5092,-2.1176,-14.5261,-0.3343,-1.1923,-0.0647,92,12.561,242,8.5626,-5.9092,-7.5467,-0.0277,-0.2871,0.0795,63
12.49,241,11.4761,-1.5805,-15.662,0.4325,-0.2067,0.1827,92,12.612,243,7.3489,-3.2239,-9.9182,0.6544,0.4754,0.3048,63
12.542,242,11.9054,-1.979,-19.4357,-0.3595,0.5275,0.7042,92,12.664,244,3.2343,2.9392,-15.2199,0.1987,1.032,0.4582,63
12.594,243,11.2626,0.7689,-22.1899,0.4141,0.8072,0.6905,92,12.716,245,0.8856,-3.1516,-19.0894,0.4818,1.1002,0.1294,63
12.646,244,5.6006,1.679,-22.5203,0.275,0.4973,0.2733,92,12.768,246,5.7637,-3.22,-21.8217,0.2395,0.1362,-0.577,63
12.697,245,2.056,1.2578,-20.9693,-0.1907,-0.2206,-0.2821,92,12.819,247,9.3239,-3.0388,-20.5773,-0.2269,-0.5674,-0.35,63
12.749,246,2.3028,-0.2422,-19.1392,-0.188,-0.8344,-0.4976,92,12.871,248,11.8865,-4.4376,-17.6358,-0.1163,-0.6256,-0.3533,63
12.801,247,5.2546,-0.426,-17.0963,-0.0346,-1.2824,-0.4384,92,12.923,249,10.1967,-1.6167,-15.0091,-0.1284,-0.6034,-0.3228,63
12.853,248,7.8837,-0.9437,-16.3833,-0.3519,-0.8754,-0.1388,92,12.975,250,7.9073,-5.2438,-9.7821,0.1954,0.2446,0.0222,63
12.905,249,10.3851,-1.2077,-17.8861,-0.2396,-0.0431,0.4525,92,13.027,251,7.1591,-5.3855,-9.7114,0.8173,0.8635,0.3991,63
12.957,250,9.3534,-0.0169,-20.7156,-0.0108,0.5919,0.9551,92,13.078,252,5.5537,1.3616,-15.069,1.0563,0.8054,0.0952,63
13.008,251,6.5715,2.0717,-21.3395,0.4868,0.7175,0.7833,92,13.13,253,-0.0883,6.2379,-15.8876,1.4456,1.2728,-0.6019,63
13.06,252,2.4031,2.8625,-20.3988,0.7308,0.2483,0.0786,92,13.182,254,3.5124,5.889,-16.2417,1.3244,1.3497,-0.3539,63
13.112,253,1.4432,1.863,-18.7215,0.4633,-0.3604,-0.5038,92,13.234,255,7.6808,1.1949,-15.2073,0.5777,0.9573,-0.041,63
13.164,254,3.2932,0.671,-16.8225,0.4112,-0.9162,-0.7408,92,13.285,256,7.8102,1.7331,-12.1723,0.4521,0.3171,-0.0869,63
13.216,255,4.8253,-0.2622,-15.6421,0.3712,-0.583,-0.4846,92,13.337,257,7.5358,-4.0319,-7.6115,-0.1583,0.7429,0.3588,63
13.267,256,8.7875,0.6156,-15.7349,0.4765,0.173,-0.2184,92,13.389,258,6.1783,-5.7761,-6.7563,0.5592,1.2272,0.5474,63
13.319,257,9.9253,0.812,-15.2738,-0.045,0.8047,0.3947,92,13.441,259,5.2121,1.0765,-12.9122,0.4344,1.5806,-0.1008,63
13.371,258,10.0614,1.8654,-14.9289,0.0128,1.2656,0.6832,92,13.493,260,-1.3803,-1.1551,-17.4051,0.9917,1.8386,-0.7447,63
13.423,259,7.61,3.0703,-16.3016,-0.229,1.6021,0.4613,92,13.544,261,4.1099,-0.118,-16.0562,0.6991,0.9561,-0.6649,63
13.475,260,6.075,1.3524,-19.8602,-0.3293,1.8476,0.4855,92,13.596,262,7.7452,-2.5258,-15.5414,0.2277,0.6625,-0.2876,63
13.526,261,9.6996,-4.25,-11.9108,-0.7738,1.6721,0.7144,92,13.648,263,8.2823,-2.0276,-13.3746,0.5652,0.0963,-0.4349,63
13.578,262,1.755,-8.3389,-16.6979,-1.2174,0.9705,0.1468,92,13.7,264,6.9045,-5.5993,-7.1537,-0.0517,0.6669,0.3099,63
13.63,263,4.4711,-5.2127,-15.2014,-1.2009,1.1683,0.3673,92,13.752,265,7.8035,-6.314,-8.097,0.6369,1.1535,0.5997,63
13.682,264,6.051,-5.1512,-13.7996,-0.5018,0.9617,0.3748,92,13.803,266,6.6731,-5.665,-10.6219,1.1117,1.4001,0.7796,63
13.733,265,6.131,-5.428,-12.9925,-0.438,0.8414,0.2674,92,13.855,267,0.8512,-3.2327,-13.2425,1.2207,1.7068,1.1497,63
13.785,266,7.0598,-4.3373,-12.1509,-0.2906,0.569,0.2101,92,13.907,268,5.7386,-3.7514,-14.2944,1.2397,0.5789,0.6353,63
13.837,267,7.9662,-4.3961,-11.7337,-0.3526,0.2445,0.1471,92,13.959,269,2.8433,0.0852,-12.1725,1.3523,1.0101,0.5938,63
13.889,268,8.3265,-3.675,-11.6657,-0.3278,-0.0066,0.1188,92,14.011,270,5.6315,-1.0727,-12.2721,0.8432,0.8851,0.3586,63
13.941,269,8.707,-3.3833,-11.7424,-0.2915,-0.177,0.091,92,14.063,271,5.8921,-0.9439,-12.1475,0.7725,0.889,0.1451,63
13.992,270,8.8728,-3.3185,-11.7114,-0.2479,-0.309,0.0484,92,14.114,272,6.2234,-1.034,-11.9326,0.66,0.8038,0.0719,63
14.044,271,9.0565,-3.0645,-11.7277,-0.1602,-0.5271,-0.0403,92,14.166,273,6.7467,-0.1878,-11.7095,0.5188,0.7059,-0.1401,63
14.096,272,9.7917,-2.5058,-11.7414,-0.1788,-0.8176,-0.1173,92,14.218,274,7.0209,-0.1069,-11.7872,0.6668,0.7132,-0.3607,63
14.148,273,10.5454,-2.215,-11.6483,-0.3234,-1.224,-0.167,92,14.27,275,7.1172,-0.2618,-12.3548,1.1613,0.6768,-0.6302,63
14.2,274,12.0381,-1.3716,-11.3078,-0.6319,-1.487,-0.2176,92,14.322,276,7.0309,-0.7494,-13.3469,1.5223,0.7038,-0.9719,63
14.252,275,10.4191,-0.6638,-12.838,0.033,-1.6373,-0.6613,92,14.373,277,7.3857,-3.1692,-13.4339,1.7282,0.6891,-0.6923,63
14.303,276,8.7169,-1.7796,-13.1288,0.7006,-1.5038,-1.1567,92,14.425,278,10.5077,-2.02,-9.2409,0.6138,0.2886,-0.2533,63
14.355,277,8.854,-2.3812,-13.7362,1.1879,-1.5886,-1.5182,92,14.477,279,8.456,-0.2967,-8.6286,0.8962,0.2651,-0.2239,63
14.407,278,8.8133,-2.4748,-11.7927,0.9522,-1.1142,-1.7787,92,14.529,280,9.0253,-0.2028,-9.7698,0.6806,0.2455,-0.0865,63
14.459,279,8.8056,-2.494,-12.8454,0.0198,-0.4713,-1.9168,92,14.581,281,9.1026,-0.4723,-10.3969,0.3997,0.1857,-0.0096,63
14.51,280,7.7946,-4.4211,-13.2576,0.691,-0.1117,-1.9408,92,14.632,282,8.916,-0.2066,-10.4953,0.5312,0.1567,0.0026,63
14.562,281,7.4928,-3.722,-13.2744,1.1808,0.1631,-1.983,92,14.684,283,8.937,-0.1513,-10.7815,0.5756,0.1164,0.0003,63
14.614,282,7.8328,-3.3134,-13.0168,1.3468,0.7902,-2.035,92,14.736,284,8.9593,0.0356,-10.8775,0.6519,0.1106,0.0187,63
14.666,283,8.6509,-5.2724,-13.8095,1.0873,1.2551,-1.7091,92,14.788,285,8.9736,-0.1064,-11.0951,0.6865,0.1045,0.0499,63
14.718,284,10.092,-4.6652,-17.0763,1.4701,1.3414,-1.1386,92,14.84,286,8.9783,0.0396,-11.068,0.8842,0.1145,0.0523,63
14.769,285,9.1566,0.3059,-20.4679,1.1697,0.9984,-0.8102,92,14.891,287,8.9219,0.0316,-11.008,0.9074,0.1167,0.1039,63
14.821,286,8.0173,-1.9272,-19.0907,0.4879,0.551,-0.4019,92,14.943,288,8.9025,-0.1965,-11.0383,1.0155,0.1092,0.1301,63
14.873,287,8.1522,-1.6366,-17.3843,-0.1974,0.3211,-0.1339,92,14.995,289,8.9316,-0.2826,-10.9365,1.0292,0.0867,0.1478,63
14.925,288,11.0396,-2.7169,-10.8035,-0.1047,0.1856,-0.0937,92,15.047,290,8.2843,1.2541,-11.4779,1.2394,0.1946,0.1352,63
14.977,289,10.8781,-1.5929,-9.8241,0.2585,0.0329,-0.0487,92,15.099,291,8.2923,0.8881,-11.3495,1.1456,0.1698,0.2222,63
15.028,290,10.4776,-1.9984,-9.8818,-0.202,0.0628,0.0264,92,15.15,292,8.3902,0.0602,-11.1904,1.0888,0.1559,0.2275,63
15.08,291,10.1824,-1.9853,-10.1915,0.0313,0.0227,0.0422,92,15.203,293,8.7084,0.1203,-10.6767,1.0104,0.132,0.2161,63
15.132,292,9.8798,-2.0779,-10.3993,0.0149,0.0077,0.0539,92,15.254,294,8.7939,-0.3088,-10.7006,0.8461,0.0654,0.2519,63
15.184,293,9.7487,-2.0769,-10.5622,0.0592,-0.0416,0.028,92,15.306,295,8.6491,-1.4939,-10.8893,1.088,0.0161,0.1938,63
15.236,294,9.7273,-1.9274,-10.7668,0.0921,-0.0552,0.0125,92,15.358,296,8.6647,-1.8154,-11.0801,1.4688,-0.0721,0.0583,63
15.287,295,9.6378,-1.8881,-10.888,0.0798,-0.024,0.0183,92,15.409,297,8.619,-1.7009,-10.9417,1.7466,-0.2014,-0.0687,63
