right_leg_timestamp,right_leg_index,right_leg_accel_x,right_leg_accel_y,right_leg_accel_z,right_leg_gyro_x,right_leg_gyro_y,right_leg_gyro_z,right_leg_battery_percentage,left_leg_timestamp,left_leg_index,left_leg_accel_x,left_leg_accel_y,left_leg_accel_z,left_leg_gyro_x,left_leg_gyro_y,left_leg_gyro_z,left_leg_battery_percentage
0.778,15,9.2797,-2.5799,-10.8274,-0.1013,0.0299,0.1188,93,0.016,0,8.4977,-0.8251,-9.8974,0.9302,-0.2108,-0.1392,63
0.829,16,9.3202,-2.5023,-10.9177,-0.0855,0.0398,0.0246,93,0.068,1,8.7197,-1.2851,-9.9509,0.6326,0.1192,-0.0467,63
0.881,17,9.3419,-2.4445,-10.9328,-0.0699,0.1412,-0.0484,93,0.119,2,9.2225,-1.3135,-9.9543,0.6492,0.3153,0.0726,63
0.933,18,9.3339,-2.3752,-10.8081,-0.0615,0.2089,-0.117,93,0.171,3,9.1476,-1.255,-10.1988,0.6148,0.4682,0.1094,63
0.985,19,9.3965,-2.266,-10.7614,-0.0626,0.2781,-0.1872,93,0.223,4,8.9904,-1.3711,-10.0743,0.3402,0.4542,0.1129,63
1.036,20,9.3975,-2.1834,-10.6235,-0.0929,0.3685,-0.2682,93,0.275,5,8.7471,-1.4195,-9.9234,0.2768,0.4462,0.1464,63
1.088,21,9.3863,-2.0608,-10.4054,-0.1279,0.4372,-0.4169,93,0.327,6,8.5088,-0.9751,-10.1981,0.2325,0.3427,0.0768,63
1.14,22,9.2885,-1.883,-10.0737,-0.1478,0.3348,-0.7411,93,0.378,7,8.0087,-0.5144,-10.8764,0.1253,0.0601,-0.1218,63
1.192,23,9.2006,-1.9297,-9.7753,-0.0645,-0.3972,-1.2149,93,0.43,8,8.2296,2.1283,-14.7468,0.264,-0.3885,-0.4924,63
1.243,24,11.52,-1.7787,-11.4996,-0.1194,-0.9633,-1.5543,93,0.482,9,7.0348,1.9786,-15.1845,0.0741,-0.7063,-0.8129,63
1.295,25,12.2207,-2.4699,-13.7466,-0.5351,-1.3764,-1.8084,93,0.534,10,9.1201,2.4887,-14.3529,-0.0297,-0.9899,-1.2647,63
1.347,26,9.8223,-0.8131,-14.1103,0.0692,-1.678,-1.9359,93,0.586,11,9.2355,2.6182,-13.7421,-0.1036,-0.6505,-1.0139,63
1.399,27,8.2411,0.4936,-12.7909,0.0119,-1.7469,-1.4056,93,0.637,12,11.8578,-0.1888,-11.0453,0.5817,-1.0661,-0.1066,63
1.451,28,7.0503,0.5478,-12.1414,-0.16,-1.9484,-0.8425,93,0.689,13,9.4649,-1.0393,-11.6012,0.3442,-1.3007,0.0196,63
1.503,29,5.5471,-0.0948,-11.6573,-0.2597,-1.864,-0.7889,93,0.741,14,6.7438,-2.7613,-8.8538,0.7964,-0.4457,0.0618,63
1.555,30,5.106,-0.1142,-11.0775,0.0263,-1.8666,-0.7671,93,0.793,15,5.7364,-0.8493,-9.2245,0.2766,0.3596,0.0571,63
1.606,31,4.7601,-0.2981,-11.2631,0.2629,-1.8113,-0.7774,93,0.844,16,1.6847,0.4709,-12.7252,-0.4752,0.7563,0.0848,63
1.658,32,3.2856,2.0495,-16.1932,0.8684,-0.6987,-0.1626,93,0.896,17,-0.0472,5.6358,-12.1902,0.0825,-0.1148,-0.6095,63
1.71,33,1.9014,5.4038,-19.4478,1.3104,0.1638,0.5591,93,0.948,18,2.8396,4.253,-12.7801,0.0663,0.3481,-0.5312,63
1.762,34,1.1937,6.5024,-22.1988,0.7335,-0.5539,0.1421,93,1.0,19,7.1897,0.5787,-6.7197,0.1767,-0.2812,0.1179,63
1.814,35,0.4027,4.4895,-20.03,-0.1375,-0.3705,0.0041,93,1.052,20,6.637,0.4824,-8.9591,-0.1154,-0.5959,0.129,63
1.865,36,0.1002,3.3079,-16.2031,-0.1186,-0.7509,-0.2466,93,1.104,21,5.2745,-1.1758,-6.2733,-0.1956,0.119,0.0419,63
1.917,37,0.7687,1.7932,-14.5879,0.0545,-0.993,-0.4143,93,1.155,22,5.0258,-0.1646,-7.7289,0.5319,0.7718,0.2061,63
1.969,38,2.2593,0.1244,-14.5816,0.3821,-1.0406,-0.702,93,1.207,23,2.1494,1.5088,-11.347,-0.2889,0.9887,0.314,63
2.021,39,2.1687,0.4508,-17.9882,0.9215,-0.2015,-0.3944,93,1.259,24,1.9832,6.3933,-14.1232,0.4264,0.0565,-0.2227,63
2.073,40,-0.062,3.0294,-21.1334,1.121,0.5313,0.3899,93,1.311,25,4.2802,4.4904,-14.6055,0.3043,-0.2581,-0.3055,63
2.124,41,0.0319,7.5629,-23.429,0.466,-0.2857,-0.2161,93,1.363,26,5.897,3.8765,-12.7899,0.586,-0.3181,-0.0287,63
2.176,42,-0.6692,5.4482,-22.3281,-0.3351,-0.1592,0.3182,93,1.414,27,9.4212,3.7959,-11.4215,0.1438,-0.0499,-0.0581,63
2.228,43,-1.7895,2.4644,-18.7579,-0.7697,-0.1449,-0.3675,93,1.466,28,7.8831,3.5729,-10.446,0.7599,0.1512,-0.1002,63
2.279,44,-0.5464,1.1537,-16.8057,-0.2816,-0.773,-0.4178,93,1.518,29,6.3382,1.6525,-11.6552,0.7496,-0.3727,-0.2497,63
2.331,45,3.6415,-1.0924,-16.3821,0.0879,-1.147,-0.3151,93,1.57,30,3.0011,0.4768,-9.8726,0.0633,0.3639,-0.4118,63
2.383,46,2.7085,-0.6584,-15.9713,0.7407,-0.6109,-0.5125,93,1.621,31,0.7064,1.6756,-12.7486,0.3152,0.936,-0.2398,63
2.435,47,0.9495,1.3464,-19.6615,1.2171,0.2325,0.0827,93,1.673,32,-1.9258,3.104,-14.2854,0.1697,0.0164,-0.721,63
2.487,48,0.8346,4.8337,-22.3547,0.2131,-0.3492,-0.0543,93,1.725,33,1.5894,2.3744,-14.9529,0.3288,-0.2232,-0.0476,63
2.538,49,2.6207,2.8821,-24.2865,-0.5197,-0.904,0.3679,93,1.777,34,6.2773,2.7756,-12.7272,-0.0695,0.2337,-0.2536,63
2.59,50,1.3743,2.1268,-18.8882,-0.1942,-0.8043,-0.3849,93,1.829,35,6.7936,3.3746,-9.2649,0.2683,-0.2106,-0.3586,63
2.642,51,0.6003,1.1926,-15.8452,-0.6381,-0.8542,-0.7103,93,1.88,36,4.3887,3.4503,-5.3157,0.4204,0.5226,-0.8285,63
2.694,52,2.8874,-0.6076,-14.8291,-0.4016,-1.2969,-0.5567,93,1.932,37,3.2231,1.2521,-9.3583,0.7999,1.0663,-0.6364,63
2.746,53,3.6868,-1.7331,-15.1722,0.0874,-0.9063,-0.8337,93,1.984,38,1.739,2.0022,-14.8113,-0.0933,1.411,-0.2343,63
2.798,54,2.2983,0.058,-18.8174,0.7403,0.0169,-0.8832,93,2.036,39,6.3865,4.984,-15.0862,0.0493,0.3631,-0.3602,63
2.85,55,0.7676,4.0157,-21.7387,0.7065,0.6907,-0.036,93,2.087,40,7.3569,3.5827,-15.4044,-0.08,-0.0925,-0.7273,63
2.901,56,-0.0674,5.3725,-23.8707,-0.1596,0.3915,0.1507,93,2.139,41,8.121,2.6425,-14.9856,-0.2079,-0.0504,-0.5308,63
2.953,57,0.0698,4.7203,-22.4131,-0.4459,-0.2269,0.0614,93,2.191,42,11.0444,1.2362,-11.4259,0.29,-0.4186,-0.3858,63
3.005,58,-0.1827,2.9802,-19.69,-0.3435,-0.4547,-0.3882,93,2.243,43,9.9044,0.7813,-9.9615,0.0994,-0.5049,-0.1063,63
3.057,59,0.6251,1.3477,-16.573,-0.0469,-0.6838,-0.7632,93,2.294,44,9.0603,1.1591,-7.5499,0.4925,-0.3649,-0.2008,63
3.109,60,1.9565,-0.3027,-15.7869,-0.0073,-0.8895,-0.6274,93,2.346,45,6.6426,1.7928,-8.2417,0.6222,0.4187,0.0845,63
3.16,61,4.1178,-1.4351,-14.9304,0.0167,-0.687,-0.4554,93,2.398,46,3.6697,3.1687,-13.241,0.1481,0.5776,0.3655,63
3.212,62,2.5349,-0.1261,-18.9017,0.6887,0.1769,-0.3787,93,2.45,47,6.858,-2.9842,-17.6451,0.6153,-0.1456,0.6086,63
3.264,63,3.0679,5.2598,-19.6915,1.0973,0.4668,0.0696,93,2.502,48,7.0513,-2.163,-18.2039,0.46,-0.773,0.3648,63
3.316,64,5.5991,0.9012,-22.3766,0.1392,0.8363,-0.6218,93,2.554,49,7.3996,-1.7541,-18.4119,0.2316,-0.2938,0.2677,63
3.368,65,3.3538,2.8221,-21.3992,-0.1214,0.1221,0.2228,93,2.605,50,7.7236,4.012,-17.3057,0.6855,0.4705,0.3907,63
3.419,66,2.0735,1.6689,-18.5333,-0.0038,-0.4742,-0.5114,93,2.657,51,5.2889,2.7125,-16.2158,0.423,0.4276,0.6673,63
3.471,67,1.4337,0.2625,-15.134,0.2953,-0.8759,-0.97,93,2.709,52,5.2494,1.1539,-10.9207,0.8922,0.866,0.2589,63
3.523,68,2.4885,0.155,-12.8126,-0.1173,-1.088,-0.6577,93,2.761,53,4.903,1.7782,-10.2607,1.3259,1.317,-0.3406,63
3.574,69,3.3315,-1.1737,-12.9622,-0.1277,-0.4765,-0.3649,93,2.812,54,1.7276,1.0316,-13.3223,0.3674,1.3487,-0.22,63
3.626,70,1.9695,-0.3296,-15.5307,0.5755,0.3306,-0.32,93,2.864,55,-0.551,-4.5439,-17.7044,-0.02,0.6539,0.394,63
3.678,71,0.3484,2.3201,-19.3399,0.9148,0.9196,0.3028,93,2.916,56,1.9016,-3.9905,-17.745,0.075,-0.1895,0.0621,63
3.73,72,2.1818,4.5941,-22.12,-0.0076,0.2394,0.5525,93,2.968,57,3.2951,-2.7409,-18.1797,0.0759,-0.1313,0.1852,63
3.782,73,1.7269,4.6918,-22.0394,-0.3921,-0.4987,0.3809,93,3.02,58,7.5222,-0.8862,-16.789,-0.0756,0.5891,0.1796,63
3.834,74,1.258,2.5324,-19.9488,-0.4882,-1.0374,0.0772,93,3.071,59,7.264,1.2639,-13.6029,0.5849,0.9018,0.0573,63
3.886,75,1.3757,1.9078,-16.2839,0.0771,-1.3656,-0.4688,93,3.123,60,5.3034,1.4171,-13.8182,0.6623,0.4201,-0.1919,63
3.937,76,2.1575,1.1903,-14.3981,-0.0831,-1.3386,-0.3226,93,3.175,61,4.1434,0.1419,-11.2686,0.15,0.9915,-0.364,63
3.989,77,1.8096,0.7421,-13.8682,-0.0866,-0.844,-0.2198,93,3.227,62,3.0851,0.328,-12.7181,-0.1041,1.3991,-0.449,63
4.041,78,0.8481,1.4011,-13.1846,-0.148,-0.5007,-0.083,93,3.278,63,0.8638,0.8218,-17.2635,-0.2821,1.2092,-0.0815,63
4.093,79,-0.1179,2.5754,-17.6276,0.5345,0.3129,0.0514,93,3.33,64,-0.1702,0.5481,-15.5941,0.0063,0.2157,0.1183,63
4.145,80,-1.8775,5.5009,-20.8703,0.1648,0.9067,0.5872,93,3.382,65,1.7874,0.2384,-16.3604,0.0418,-0.3471,0.0702,63
4.196,81,-1.4195,6.13,-23.2369,-0.5549,0.3951,-0.0921,93,3.434,66,3.7045,0.2408,-16.737,0.1805,0.1911,0.1102,63
4.248,82,-1.3168,4.7283,-22.0669,-0.9976,-0.3539,0.0838,93,3.486,67,7.821,-0.3605,-13.3977,-0.2403,0.5219,-0.0692,63
4.3,83,-1.3027,2.4856,-19.3641,-1.1375,-0.5436,-0.5876,93,3.537,68,6.3408,2.0978,-12.2508,0.4055,0.3173,-0.2577,63
4.352,84,0.1969,1.8604,-16.38,-0.8187,-1.0093,-1.0956,93,3.589,69,7.852,3.9731,-8.7022,0.3905,-0.2472,-0.5571,63
4.404,85,1.537,0.9679,-14.2668,-0.825,-0.8625,-1.38,93,3.641,70,6.3375,1.8117,-7.7856,0.0748,0.3416,-0.4239,63
4.455,86,2.4809,0.2533,-13.408,-0.8529,-0.4958,-1.2446,93,3.693,71,4.4581,0.4969,-9.4145,-0.6008,0.9068,0.0028,63
4.507,87,1.8356,0.3184,-12.9879,-0.7523,0.3044,-0.8407,93,3.745,72,8.371,5.6548,-4.2633,-0.1096,0.4639,-0.4231,63
4.559,88,0.4401,3.0192,-17.4841,0.1275,0.9005,-0.035,93,3.796,73,6.827,4.6773,-8.5263,-0.3255,-0.3282,-0.1324,63
4.611,89,-4.98,7.5555,-20.5242,0.2995,1.3356,0.6522,93,3.848,74,6.4558,3.6349,-11.7713,-0.1372,-0.2819,-0.025,63
4.663,90,-3.4308,7.2114,-22.9844,-0.0164,0.4583,0.9558,93,3.9,75,9.829,2.2466,-15.9144,-0.2072,0.4792,-0.1184,63
4.714,91,-2.4603,6.7876,-20.8502,-0.2573,-0.3389,0.7916,93,3.952,76,8.0565,2.4256,-13.6086,0.5234,0.9932,-0.3262,63
4.766,92,-2.4947,4.7141,-17.5067,0.0735,-0.9111,-0.0143,93,4.004,77,4.7357,2.3868,-14.136,0.5369,0.3762,-0.1928,63
4.818,93,-0.6957,3.2869,-13.9442,0.1827,-1.3384,-0.2479,93,4.055,78,2.9016,1.1113,-11.3499,0.0863,0.7768,-0.0873,63
4.87,94,2.1234,2.2702,-13.2812,-0.4269,-1.4441,-0.2199,93,4.107,79,1.9787,-0.563,-12.4735,-0.296,1.2408,-0.0271,63
4.922,95,3.1929,0.7363,-12.8821,-0.3672,-0.5566,0.1051,93,4.159,80,-0.1091,-1.0267,-14.1653,-0.3232,1.0341,0.1742,63
4.973,96,1.3497,2.9958,-17.4068,0.4086,0.2721,0.583,93,4.211,81,-0.965,-1.0643,-15.2082,-0.3453,0.0879,0.2914,63
5.025,97,6.2508,7.5384,-20.7091,-0.3743,0.6941,0.2183,93,4.262,82,1.2545,-1.2669,-16.5452,-0.2648,-0.4155,0.291,63
5.077,98,4.6814,5.8631,-23.1193,-0.7417,0.1999,0.5637,93,4.314,83,3.4396,-0.8775,-17.2729,-0.1994,0.2831,0.0617,63
5.129,99,3.4088,4.6196,-21.6806,-1.2155,-0.3864,0.2953,93,4.366,84,7.6276,-1.4,-14.8687,-0.1646,0.7443,-0.183,63
5.181,100,1.7796,2.1555,-18.2116,-0.864,-0.5668,-0.4077,93,4.418,85,6.5455,-2.3996,-14.3196,-0.1054,0.6644,-0.0827,63
5.232,101,1.7217,1.7974,-14.8065,-0.3319,-0.9089,-0.6253,93,4.47,86,7.3459,-2.7823,-10.1491,-0.3645,0.7701,-0.1893,63
5.284,102,1.5944,1.3301,-13.199,-0.1046,-1.008,-0.512,93,4.521,87,6.7264,-1.0703,-9.4431,0.4087,1.247,-0.3604,63
5.336,103,2.0015,0.7827,-12.9611,-0.007,-0.8531,-0.4789,93,4.573,88,4.1417,-1.5984,-11.9881,0.0702,1.5678,-0.195,63
5.388,104,2.0549,0.9579,-16.255,0.6647,0.0557,-0.6488,93,4.625,89,8.1401,-6.4634,-6.1417,-0.1217,0.4823,0.2001,63
5.44,105,0.5429,3.5823,-19.8685,0.8639,0.719,0.1098,93,4.677,90,7.9473,-4.4529,-9.5062,-0.1522,-0.3148,0.0119,63
5.491,106,3.196,7.379,-22.5058,-0.0447,0.3643,0.1336,93,4.729,91,7.7856,-3.2987,-11.5702,-0.1948,-0.1026,-0.0237,63
5.543,107,1.7927,6.1742,-21.9958,-0.7079,0.0983,0.1903,93,4.78,92,10.7996,-2.1464,-11.9265,-0.2132,0.6101,-0.1565,63
5.595,108,0.3754,3.7913,-20.1673,-0.8173,-0.0255,-0.4211,93,4.832,93,8.1612,-0.8323,-10.3874,0.5191,1.0176,-0.3174,63
5.647,109,0.4189,2.8478,-17.2878,0.0341,-0.692,-0.5535,93,4.884,94,5.1629,-0.0349,-10.2967,0.6607,0.56,-0.1578,63
5.699,110,1.3531,2.4497,-15.7398,0.0121,-1.1785,-0.5067,93,4.936,95,3.6848,-1.2609,-9.2047,-0.1949,0.7545,0.0609,63
5.75,111,1.5715,1.8898,-14.9349,-0.0036,-1.0997,-0.3888,93,4.987,96,2.6767,-1.5481,-9.2695,-0.0235,1.0804,0.0137,63
5.802,112,1.173,1.5075,-14.0697,-0.0796,-1.056,-0.5485,93,5.039,97,0.9593,-0.9238,-14.7465,-0.1197,1.1692,-0.0042,63
5.854,113,-0.221,3.2595,-18.2736,0.6153,-0.0924,-0.4649,93,5.091,98,-1.011,1.2447,-16.0766,-0.4053,0.1865,0.5435,63
5.906,114,-0.5764,5.7476,-21.3022,0.4464,0.5777,0.1323,93,5.143,99,1.56,1.07,-17.4149,-0.1047,0.0262,0.5935,63
5.958,115,-0.2802,4.363,-23.5521,-0.3494,-0.2518,0.5758,93,5.195,100,6.2558,3.4768,-15.5592,-0.251,0.7041,0.5687,63
6.01,116,-0.2735,2.4091,-20.8688,0.0547,-0.513,0.3081,93,5.246,101,5.0056,3.0446,-13.014,0.491,1.1201,0.02,63
6.061,117,-0.3094,2.5297,-18.4151,0.563,-0.6249,-0.1809,93,5.298,102,2.1497,1.535,-14.4364,0.2976,0.6241,0.0919,63
6.113,118,-0.2733,2.1734,-15.9981,0.458,-0.8473,-0.2509,93,5.35,103,1.651,0.0155,-11.203,-0.3511,1.1262,0.0948,63
6.165,119,0.5459,2.107,-13.7647,0.2384,-1.0836,-0.179,93,5.402,104,1.088,-0.582,-11.8145,-0.0388,1.5069,-0.0613,63
6.217,120,1.474,0.5158,-14.6643,0.1128,-0.5824,-0.2161,93,5.454,105,5.9114,4.8674,-16.604,-0.53,0.6767,-0.1352,63
6.268,121,0.8861,3.899,-18.7075,0.6539,0.2533,-0.4995,93,5.506,106,5.8365,3.7434,-16.9924,-0.5182,-0.1729,-0.0286,63
6.32,122,4.4323,5.9116,-21.6459,-0.1238,0.4976,-0.3599,93,5.557,107,6.046,2.339,-17.7046,-0.4608,-0.6067,-0.0115,63
6.372,123,2.7263,5.1417,-23.5266,-0.7656,0.273,-0.3784,93,5.609,108,7.9043,1.7482,-17.3641,-0.2786,0.2422,-0.295,63
6.424,124,0.993,3.4477,-21.6122,-0.7783,0.1276,-0.9212,93,5.661,109,8.6031,1.0188,-14.122,0.4294,0.8617,-0.6908,63
6.476,125,0.2468,3.2486,-18.2806,0.0864,-0.4079,-1.3057,93,5.713,110,6.194,0.5426,-12.2793,0.8057,0.4866,-0.5429,63
6.527,126,1.0805,2.5026,-15.3787,0.3007,-0.9703,-1.1617,93,5.765,111,4.0054,-1.5568,-10.3429,0.0626,0.9099,-0.2803,63
6.579,127,1.7259,2.3255,-13.2429,0.1715,-1.1768,-1.0323,93,5.816,112,3.3386,-1.1464,-9.961,0.2989,1.349,-0.2486,63
6.631,128,1.9246,1.0919,-13.66,-0.2625,-0.8113,-0.977,93,5.868,113,1.6916,0.0724,-11.4259,-0.1252,1.4721,-0.0597,63
6.683,129,0.586,1.8531,-17.9745,0.4005,0.0863,-0.7709,93,5.92,114,-0.1697,-0.7742,-12.6828,-0.4571,0.4076,0.4292,63
6.735,130,5.6934,0.5396,-21.1235,0.8652,0.3448,-0.0457,93,5.972,115,2.0426,-1.1377,-14.6978,-0.2374,0.0765,0.4143,63
6.786,131,9.0536,2.3512,-23.4217,0.3763,-0.4217,0.4035,93,6.024,116,6.5795,-1.0773,-14.9559,0.1823,0.7408,0.5941,63
6.838,132,6.1032,1.7739,-21.3802,-0.0389,-0.6995,0.5424,93,6.075,117,6.3873,0.2281,-13.183,0.7822,1.2256,0.1696,63
6.89,133,3.6027,0.9922,-18.2499,-0.0113,-0.6796,-0.0135,93,6.127,118,4.231,0.9562,-12.4183,1.2369,0.4535,-0.1112,63
6.941,134,3.5628,1.3624,-14.5678,0.0017,-1.1694,0.3085,93,6.179,119,3.0711,0.3833,-10.125,0.2349,0.332,-0.1249,63
6.994,135,5.1119,1.0345,-14.2842,-0.3114,-1.5269,0.4361,93,6.231,120,2.0116,-2.1832,-9.9114,-0.5056,0.8834,-0.0709,63
7.045,136,3.5851,-0.062,-14.7462,0.0028,-0.6671,0.6079,93,6.283,121,1.9857,0.6859,-15.215,-0.7637,-0.0221,0.4899,63
7.097,137,1.2211,3.5613,-18.7673,0.6785,0.1914,1.0952,93,6.334,122,-0.7933,0.745,-17.6762,-0.8503,-0.6829,0.6953,63
7.149,138,1.6433,6.2427,-21.7021,-0.18,-0.3013,0.1887,93,6.386,123,1.6777,0.3245,-17.6719,-0.2393,0.0602,0.5665,63
7.201,139,0.4122,5.4464,-23.844,-0.3485,-0.1983,-0.0887,93,6.438,124,0.8089,-4.6735,-14.8783,0.034,0.7282,0.8346,63
7.253,140,-0.6135,3.8109,-21.3546,-0.6045,-0.4425,-0.6655,93,6.49,125,-2.0421,-3.2841,-12.4623,-0.1813,0.7366,0.7431,63
7.304,141,-0.5972,2.9545,-17.7478,-0.2728,-0.9964,-0.9374,93,6.542,126,-1.4632,-3.5575,-13.7794,-0.0009,0.1324,0.6367,63
7.356,142,0.8675,1.7115,-15.1698,-0.2193,-1.4006,-0.6838,93,6.593,127,-1.6384,-2.1079,-12.0784,0.3203,0.4901,0.0977,63
7.408,143,3.6702,0.3012,-14.5634,-0.2427,-1.3892,-0.6145,93,6.645,128,-4.1842,-2.6829,-11.3954,-0.1968,1.0427,0.0046,63
7.46,144,2.1953,0.4859,-17.4212,0.0716,-0.3356,-0.4546,93,6.697,129,-8.5264,2.9509,-13.7338,-0.1514,0.0942,0.6829,63
7.512,145,2.0188,3.8315,-20.7196,0.6776,0.4334,0.2651,93,6.749,130,-3.6738,1.6391,-15.0685,-0.1831,-0.5979,0.5695,63
7.563,146,0.7017,4.168,-23.127,-0.0572,0.2769,0.5715,93,6.801,131,-0.4773,0.4947,-15.8892,0.1312,0.2125,0.7438,63
7.615,147,-0.0441,3.966,-22.6148,-0.5645,0.0133,1.0213,93,6.853,132,4.6763,1.6176,-15.3414,-0.4571,-0.1184,-0.0505,63
7.667,148,-0.5179,4.3882,-19.3786,-0.9212,-0.1558,0.6896,93,6.904,133,3.9102,4.9801,-13.8761,0.3411,0.2853,-0.1356,63
7.719,149,-0.2718,3.2306,-16.0714,-0.1705,-0.7871,0.4037,93,6.956,134,2.7833,3.316,-15.7662,-0.0277,-0.3507,0.0515,63
7.771,150,1.5687,2.2043,-13.7201,0.0256,-1.2478,0.3638,93,7.008,135,-0.1897,0.2216,-12.646,-0.6973,0.429,-0.014,63
7.822,151,3.0675,1.7892,-13.2385,-0.0298,-1.2222,0.198,93,7.06,136,-0.1929,-0.0098,-12.7802,-0.5687,0.9981,-0.1258,63
7.874,152,2.1368,0.8508,-14.5724,0.4081,-0.3173,0.2903,93,7.112,137,-0.5366,2.8014,-6.7198,-0.4604,0.3984,0.5811,63
7.926,153,0.2519,4.1326,-18.6405,0.7624,0.4468,0.0554,93,7.163,138,1.1592,1.731,-10.0442,-0.4666,-0.376,0.5517,63
7.977,154,1.1774,6.2437,-21.6095,-0.1188,0.6805,0.5331,93,7.215,139,2.4933,0.5976,-12.5839,-0.2019,0.0141,0.45,63
8.029,155,0.6419,4.1127,-22.6995,-0.7319,0.0655,0.5375,93,7.267,140,6.937,-0.408,-9.6368,-0.5255,0.3361,-0.1036,63
8.081,156,-0.198,3.4381,-19.0954,-0.7715,-0.0935,-0.1685,93,7.319,141,6.5628,-0.7175,-8.0563,-0.7247,0.3401,0.0852,63
8.133,157,-0.9533,2.4773,-15.7076,-0.1235,-0.7088,-0.4127,93,7.371,142,5.8614,-0.4563,-8.7881,-1.2023,0.2125,0.4296,63
8.185,158,-0.0819,2.1081,-13.5887,-0.0508,-1.1907,-0.1092,93,7.422,143,4.4112,2.0013,-9.3223,-0.2028,0.6103,0.1227,63
8.237,159,2.1624,1.35,-12.4104,-0.2495,-1.3504,-0.1347,93,7.474,144,1.5553,2.2806,-11.2803,-0.0817,0.4515,0.0904,63
8.289,160,0.6322,0.9803,-17.0287,0.4832,-0.3073,-0.6567,93,7.526,145,6.2524,-3.6323,-13.0139,0.1953,-0.2518,0.3184,63
8.34,161,-0.3705,6.0674,-19.4534,0.7968,0.3335,0.1947,93,7.578,146,6.3109,-2.7186,-15.4994,0.1801,-0.3178,0.4341,63
8.392,162,-1.5582,6.919,-22.2028,-0.0936,0.3676,0.2931,93,7.629,147,9.7233,-1.7266,-13.2915,0.0172,0.4531,0.4841,63
8.444,163,-0.7681,4.7254,-21.9812,-0.199,-0.4051,0.2733,93,7.681,148,8.152,-0.6726,-10.5036,0.6763,1.0062,0.0347,63
8.496,164,-0.9374,3.8659,-18.7424,0.0485,-0.6687,-0.4018,93,7.733,149,7.7262,-0.8247,-9.3651,-0.1835,0.4098,0.5869,63
8.548,165,-1.1791,2.595,-16.0415,0.1767,-1.1316,-0.7625,93,7.785,150,5.0616,-1.3413,-8.3837,0.434,0.9757,0.3474,63
8.599,166,0.6985,1.9299,-14.038,-0.1697,-1.4993,-0.4311,93,7.837,151,2.2765,-0.3954,-11.0485,0.2903,1.3971,0.1365,63
8.651,167,2.9109,0.4187,-14.2669,-0.2962,-0.9781,-0.5104,93,7.888,152,6.7788,5.0035,-16.0449,0.0766,0.6892,-0.0988,63
8.703,168,1.6295,3.5367,-18.4175,0.2919,-0.0355,0.1745,93,7.94,153,5.0731,3.4169,-17.1096,-0.3449,-0.1638,0.0169,63
8.755,169,6.455,6.8423,-18.2566,0.8896,0.6524,0.8051,93,7.992,154,5.0858,2.6416,-18.2676,-0.349,-0.376,0.04,63
8.807,170,4.5847,8.3717,-21.3294,0.512,0.0634,0.9429,93,8.044,155,8.8291,3.4651,-16.8654,0.1399,0.4105,0.3223,63
8.858,171,-1.6662,8.8686,-19.4833,-0.0256,-0.1651,1.3659,93,8.096,156,7.9784,-0.5717,-13.5463,-0.0101,0.8188,0.0415,63
8.91,172,0.1572,7.0438,-16.9261,-0.3117,-0.7939,0.4639,93,8.147,157,7.3594,-0.5925,-11.9333,-0.6669,0.3719,0.4709,63
8.962,173,1.8332,4.9986,-15.0422,-0.536,-1.2528,-0.0805,93,8.199,158,5.5581,-0.2293,-10.3853,0.182,0.9564,0.3444,63
9.014,174,2.4463,1.9748,-13.9158,-0.4353,-1.2532,-0.3582,93,8.251,159,3.1324,1.4181,-13.3932,-0.5442,1.383,0.7903,63
9.066,175,1.3009,0.5153,-13.0201,0.1826,-0.3257,-0.9354,93,8.303,160,7.4035,6.3271,-7.1672,-0.0604,0.6188,0.1689,63
9.117,176,-0.0017,3.3653,-17.5075,0.0251,0.4406,-0.0611,93,8.355,161,6.7746,3.7672,-11.1943,-0.2793,-0.2151,-0.0578,63
9.169,177,5.2645,6.0164,-16.2162,0.6651,0.9269,0.6332,93,8.406,162,6.9869,2.6628,-13.0023,-0.1846,0.2815,-0.1268,63
9.221,178,3.6162,5.6714,-19.4861,0.231,0.1754,1.1398,93,8.458,163,9.5587,2.0927,-14.4834,-0.122,0.7486,0.1018,63
9.273,179,1.8348,5.7559,-17.0662,-0.4437,-0.1796,1.5096,93,8.51,164,7.355,-0.4444,-14.0644,-0.6341,0.8926,0.3801,63
9.325,180,1.7809,4.1644,-14.8875,-0.8742,-0.8045,1.737,93,8.562,165,6.8762,-2.0109,-10.1164,-1.1399,0.8046,0.7771,63
9.376,181,2.539,2.304,-13.36,-1.0845,-1.1098,1.7229,93,8.614,166,5.2868,1.8039,-10.7427,-1.2015,1.2624,1.1564,63
9.428,182,1.4874,0.8053,-13.4121,-0.4927,-0.7745,0.9615,93,8.665,167,8.2736,5.0736,-7.0981,-0.9793,0.2546,0.9445,63
9.48,183,2.4869,0.8616,-16.3553,0.313,0.1131,0.412,93,8.717,168,4.5388,3.5724,-10.1918,-1.3413,-0.481,1.3223,63
9.532,184,4.711,2.0544,-16.6164,-0.0278,0.7609,0.9784,93,8.769,169,6.2419,2.3025,-11.605,-0.8163,0.2105,0.8356,63
