right_leg_timestamp,right_leg_index,right_leg_accel_x,right_leg_accel_y,right_leg_accel_z,right_leg_gyro_x,right_leg_gyro_y,right_leg_gyro_z,right_leg_battery_percentage,left_leg_timestamp,left_leg_index,left_leg_accel_x,left_leg_accel_y,left_leg_accel_z,left_leg_gyro_x,left_leg_gyro_y,left_leg_gyro_z,left_leg_battery_percentage
0.137,2,9.5452,-0.7641,-11.1895,-0.0736,0.0015,-0.0937,93,0.541,10,8.859,0.7199,-11.141,0.0085,-0.0386,-0.1419,63
0.188,3,9.4624,-0.7556,-11.1699,-0.1082,-0.0443,-0.1141,93,0.593,11,8.8749,0.8052,-11.0873,0.0487,-0.06,-0.1421,63
0.24,4,9.5835,-0.4528,-11.3973,-0.2184,-0.1444,-0.1615,93,0.644,12,8.8712,0.8997,-11.2086,0.1172,-0.0791,-0.1523,63
0.292,5,9.8408,-0.4642,-12.5573,-0.2422,-0.3227,-0.1627,93,0.696,13,8.7795,1.081,-11.3225,0.1027,-0.107,-0.1283,63
0.344,6,10.8598,-0.4836,-14.2236,-0.6439,-0.8956,-0.2275,93,0.748,14,8.7666,1.0476,-11.4577,0.0627,-0.0964,-0.1084,63
0.396,7,11.7824,-0.4615,-16.0266,-0.8318,-1.3271,-0.3971,93,0.8,15,8.6318,1.3476,-11.4973,-0.0142,-0.0614,-0.0752,63
0.447,8,11.6161,-0.1646,-16.4985,-0.6269,-1.642,-0.5954,93,0.852,16,8.8683,1.185,-11.43,-0.053,-0.0685,-0.0631,63
0.499,9,10.6073,0.2241,-15.6965,-0.4809,-1.8718,-0.7224,93,0.904,17,8.9211,1.1452,-11.3608,0.0577,-0.0589,-0.0856,63
0.551,10,8.8775,0.5502,-14.9228,-0.3808,-2.0395,-0.8059,93,0.955,18,8.8174,1.2461,-11.4565,0.1119,-0.0791,-0.0824,63
0.603,11,7.1721,0.5957,-14.9461,-0.2871,-2.0996,-0.7979,93,1.007,19,8.7938,1.2546,-11.5742,0.0708,-0.0867,-0.057,63
0.655,12,5.6866,0.5796,-15.8045,-0.1394,-1.9306,-0.6954,93,1.059,20,8.7042,1.3927,-11.6369,0.0281,-0.0774,-0.0259,63
0.706,13,4.506,1.0472,-16.3538,-0.131,-1.6231,-0.549,93,1.111,21,8.9004,1.0162,-11.7107,-0.1136,-0.068,0.0069,63
0.758,14,3.7779,1.4695,-16.172,-0.2546,-1.3287,-0.4115,93,1.163,22,8.8004,1.405,-11.6932,-0.1385,-0.0511,0.0195,63
0.81,15,2.6922,1.8512,-16.7522,-0.119,-1.0742,-0.3495,93,1.214,23,8.7528,1.075,-11.6529,-0.2084,-0.0668,0.0429,63
0.862,16,1.8079,1.9565,-17.7362,-0.1072,-0.8577,-0.2987,93,1.266,24,8.8213,1.0533,-11.643,-0.2362,-0.0828,0.0378,63
0.914,17,1.18,1.9206,-18.4244,-0.0881,-0.702,-0.2536,93,1.318,25,8.8197,1.1179,-11.6246,-0.1887,-0.0945,0.0287,63
0.965,18,0.3862,1.5763,-19.0004,-0.033,-0.5323,-0.201,93,1.37,26,8.7409,0.9713,-11.6864,-0.1828,-0.1072,0.0224,63
1.017,19,0.2859,1.9326,-18.1888,-0.0068,-0.3662,-0.075,93,1.421,27,8.7326,1.3511,-11.6387,-0.193,-0.1545,0.0286,63
1.069,20,0.6496,2.6506,-18.0171,-0.263,-0.0777,-0.0529,93,1.473,28,8.7448,0.9968,-11.7751,-0.1726,-0.1674,0.0144,63
1.121,21,0.6294,2.4252,-18.6904,-0.0702,0.0271,-0.1349,93,1.525,29,8.6946,1.2183,-11.7991,-0.1332,-0.1427,-0.016,63
1.173,22,0.5798,2.3971,-19.3262,0.2902,0.029,-0.2046,93,1.577,30,8.5957,1.2597,-11.8112,-0.066,-0.131,-0.0424,63
1.224,23,0.373,2.2113,-19.5352,0.1701,0.0171,-0.2143,93,1.629,31,8.5407,1.4859,-12.0736,-0.1077,-0.1074,-0.0463,63
1.276,24,0.2794,2.1028,-19.5175,0.0934,-0.0342,-0.2278,93,1.68,32,8.7625,1.4875,-12.4617,-0.2382,-0.0311,0.003,63
1.328,25,0.0229,2.0342,-19.4509,0.0991,-0.0717,-0.2447,93,1.732,33,8.4283,3.1167,-12.2067,-0.8509,-0.0633,-0.0059,63
1.379,26,-0.2028,2.0052,-19.3919,0.0844,-0.0919,-0.278,93,1.784,34,8.4553,1.7491,-9.8107,-1.2981,-0.4493,-0.029,63
1.431,27,-0.285,2.1045,-19.3808,0.0563,-0.1015,-0.25,93,1.836,35,8.6257,1.0373,-9.0582,-0.3921,-0.4897,-0.1487,63
1.483,28,-0.2502,2.3599,-19.2303,0.0303,-0.0598,-0.1642,93,1.887,36,8.7046,0.9808,-10.3706,-0.2692,-0.3962,-0.1506,63
1.535,29,0.1976,1.7232,-19.3539,0.0163,-0.0291,-0.0724,93,1.939,37,8.5618,1.8698,-11.2925,0.1722,-0.2804,-0.1649,63
1.587,30,0.412,1.4284,-19.112,0.1945,-0.0779,-0.1769,93,1.991,38,8.22,2.4418,-11.6241,0.5529,-0.1605,-0.1643,63
1.638,31,0.5698,2.1375,-19.4552,0.1385,-0.0974,-0.0341,93,2.043,39,8.4238,2.12,-12.0349,0.5498,-0.06,-0.1074,63
1.69,32,1.7106,2.3138,-19.635,-0.0668,0.0165,0.1147,93,2.095,40,8.4066,2.3554,-12.1969,0.5609,0.0171,-0.0454,63
1.742,33,0.8091,2.3852,-20.0478,0.0889,0.1595,0.0029,93,2.146,41,8.0982,2.7964,-12.5954,0.531,0.0938,0.0376,63
1.794,34,-0.1672,3.0798,-19.8433,0.1894,0.2122,-0.158,93,2.198,42,8.3954,2.5977,-12.4614,0.6823,0.0976,-0.0448,63
1.846,35,-0.8324,2.7331,-19.7993,0.2128,0.2048,-0.2797,93,2.25,43,8.4449,0.7966,-12.3234,0.8532,0.1709,-0.1455,63
1.897,36,-0.7856,2.5338,-19.881,0.0672,0.1973,-0.2949,93,2.302,44,8.6585,2.19,-11.8868,0.3864,0.158,-0.0725,63
1.949,37,-0.1339,2.1147,-20.0447,0.1596,0.1281,-0.2981,93,2.354,45,8.2793,2.139,-11.8348,0.3879,0.0899,-0.0598,63
2.001,38,0.1612,1.7813,-19.8992,0.1679,0.0304,-0.2737,93,2.405,46,8.5032,1.91,-12.3274,0.1266,0.0226,-0.0426,63
2.053,39,0.3417,1.2748,-19.6244,0.1335,-0.0615,-0.2131,93,2.457,47,8.4695,2.4496,-12.2947,0.2647,0.0627,-0.0116,63
2.105,40,0.429,1.1704,-19.1329,-0.0524,-0.0907,-0.143,93,2.509,48,8.4851,1.9962,-12.3931,0.217,0.1037,0.0353,63
2.156,41,-0.2645,0.8351,-19.0036,-0.1276,-0.0327,-0.0598,93,2.561,49,8.1045,2.4068,-12.1901,0.0911,0.1406,0.0782,63
2.208,42,-0.1414,0.8662,-19.0771,0.0193,0.0487,0.0237,93,2.613,50,7.9015,1.9416,-12.2623,-0.1444,0.1953,0.1324,63
2.26,43,0.052,1.1907,-19.456,0.0249,0.1776,0.1667,93,2.664,51,8.3026,1.2638,-11.9102,-0.3014,0.1417,0.1588,63
2.312,44,0.0375,1.1497,-19.8847,0.0702,0.2159,0.2954,93,2.716,52,8.286,1.2614,-12.1669,-0.4257,0.0675,0.1344,63
2.364,45,0.1512,1.5177,-20.0287,0.028,0.1983,0.3451,93,2.768,53,8.2744,1.3149,-12.1656,-0.3769,0.07,0.0872,63
2.415,46,0.1891,1.2988,-19.8931,0.0257,0.0875,0.279,93,2.819,54,8.3054,1.3099,-12.1203,-0.2653,0.0826,0.0284,63
2.467,47,0.3813,1.2759,-19.7378,0.0808,-0.0132,0.2142,93,2.871,55,8.2635,1.2225,-12.2764,-0.0119,0.1437,-0.0574,63
2.519,48,0.8545,1.0977,-19.7304,0.075,-0.0379,0.1556,93,2.923,56,8.451,1.3288,-12.1634,0.1007,0.1116,-0.0905,63
2.571,49,1.2982,0.9695,-19.8295,0.025,-0.0183,0.1765,93,2.975,57,8.5113,1.5317,-12.1265,0.1517,0.0626,-0.0931,63
2.622,50,1.1001,0.9568,-19.7836,0.0305,0.0207,0.1624,93,3.027,58,8.5822,1.5934,-12.0983,0.171,0.0323,-0.0719,63
2.674,51,0.6987,1.0003,-19.6485,0.024,0.0301,0.1307,93,3.078,59,8.6048,1.6634,-12.2362,0.1257,0.0275,-0.0516,63
2.726,52,0.5148,1.1865,-19.4807,0.057,0.0013,0.0813,93,3.13,60,8.5761,1.8573,-12.1317,0.1746,0.071,-0.0372,63
2.778,53,0.7641,1.5234,-19.5046,0.1022,-0.0081,0.086,93,3.182,61,8.5603,1.7781,-12.0072,0.2267,0.0922,-0.0325,63
2.83,54,0.9614,1.5171,-19.7498,0.0274,0.0333,0.1002,93,3.234,62,8.5902,1.7381,-11.9668,0.1989,0.1256,-0.0293,63
2.881,55,0.8553,1.4431,-19.8275,-0.0178,0.0491,0.1124,93,3.286,63,8.6014,1.8168,-11.8046,0.2003,0.1213,-0.0181,63
2.933,56,0.5853,1.3086,-19.851,-0.0552,0.0445,0.1034,93,3.337,64,8.579,1.872,-11.8321,0.1758,0.113,-0.0093,63
2.985,57,0.4738,1.2879,-19.8142,-0.0134,0.0065,0.0717,93,3.389,65,8.255,2.3192,-11.8067,0.0349,0.1224,0.0277,63
3.037,58,0.5378,1.318,-19.8179,0.0368,-0.0427,0.039,93,3.441,66,8.9916,1.5004,-11.6098,-0.0983,0.0788,0.0521,63
3.089,59,0.6576,1.2827,-19.8062,0.0167,-0.0761,0.0374,93,3.493,67,9.0671,1.5361,-11.392,-0.1696,0.0296,0.0353,63
3.14,60,0.7809,1.2523,-19.7045,-0.0103,-0.0953,0.05,93,3.544,68,9.0397,1.3793,-11.5386,-0.0835,0.0596,0.0122,63
3.192,61,0.7568,1.181,-19.5867,-0.0289,-0.0941,0.0529,93,3.596,69,8.9756,1.4282,-11.526,0.026,0.101,-0.0042,63
3.244,62,0.6264,1.309,-19.4414,0.0125,-0.104,0.058,93,3.648,70,8.8662,1.5375,-11.5099,0.0969,0.11,-0.0058,63
3.296,63,0.6494,1.2594,-19.5547,-0.0318,-0.0841,0.0647,93,3.7,71,8.7465,1.7916,-11.3355,0.0874,0.0894,0.0173,63
3.347,64,0.8263,1.2381,-19.7243,-0.142,-0.0368,0.0594,93,3.752,72,8.7637,1.5873,-11.3554,-0.123,0.0456,0.0443,63
3.399,65,0.8374,1.4022,-19.7894,-0.1573,-0.019,0.0775,93,3.804,73,8.6153,1.8,-11.2176,-0.0959,0.0493,0.0333,63
3.451,66,0.7421,1.509,-19.7568,-0.1882,-0.0055,0.0677,93,3.855,74,8.6298,1.7599,-11.2127,-0.0569,0.024,0.0324,63
3.503,67,0.5989,1.5183,-19.5665,-0.1378,-0.0169,0.0297,93,3.907,75,8.6239,1.5791,-11.3557,-0.0606,0.0374,0.0201,63
3.555,68,0.4635,1.6916,-19.3614,-0.0892,-0.0214,-0.0234,93,3.959,76,8.6852,1.6418,-11.2329,0.0224,0.0588,-0.0015,63
3.607,69,0.2593,1.6211,-19.2873,-0.0679,-0.0226,-0.0625,93,4.011,77,8.8074,1.6653,-11.1208,0.0753,0.0374,-0.0173,63
3.658,70,0.3047,1.6241,-19.3588,-0.0572,0.0002,-0.1157,93,4.062,78,8.787,1.6749,-11.1546,0.0655,0.0048,-0.0215,63
3.71,71,0.4419,1.5908,-19.5216,-0.0245,0.0158,-0.1527,93,4.114,79,8.758,1.6424,-11.2308,0.0725,0.0032,-0.0209,63
3.762,72,0.5469,1.6862,-19.6562,0.0235,0.0132,-0.1657,93,4.166,80,8.7639,1.6359,-11.1882,0.0606,-0.0089,-0.0138,63
3.814,73,0.501,1.5522,-19.7061,0.0065,-0.0023,-0.1587,93,4.218,81,8.7087,1.6729,-11.2957,0.0486,-0.0155,-0.0073,63
3.866,74,0.4589,1.6668,-19.6292,-0.0266,-0.0163,-0.1405,93,4.27,82,8.7021,1.6818,-11.3085,0.0554,-0.01,-0.0001,63
3.917,75,0.4846,1.634,-19.5305,-0.0275,-0.0187,-0.0979,93,4.321,83,8.561,1.8929,-11.2205,-0.0181,-0.0159,0.0212,63
3.969,76,0.4966,1.6198,-19.4439,-0.0295,0.0076,-0.0607,93,4.373,84,8.3655,1.8965,-11.2813,-0.0908,0.0015,0.0519,63
4.021,77,0.5049,1.6579,-19.3756,-0.025,0.0495,-0.031,93,4.425,85,8.4661,1.6314,-11.2371,0.0088,0.0359,0.0432,63
4.073,78,0.5342,1.691,-19.4361,0.0157,0.0796,-0.0132,93,4.477,86,8.5246,1.3945,-11.3258,-0.0125,0.0242,0.0388,63
4.125,79,0.5544,1.7186,-19.4887,0.0222,0.096,-0.0078,93,4.528,87,8.5667,1.5451,-11.3261,-0.0026,0.0271,0.0321,63
4.176,80,0.5198,1.772,-19.4425,0.0261,0.0873,-0.0017,93,4.58,88,8.6053,1.524,-11.3675,0.0186,0.0387,0.0276,63
4.228,81,0.5022,1.8003,-19.5152,0.0202,0.0728,0.0139,93,4.632,89,8.7143,1.5686,-11.2992,0.0218,0.0365,0.0239,63
4.28,82,0.7113,1.7212,-19.6514,0.0181,0.0773,-0.0046,93,4.684,90,8.5844,1.6993,-11.2846,-0.0528,0.0236,0.0366,63
4.332,83,0.6961,1.7277,-19.7207,0.0461,0.0804,-0.0115,93,4.736,91,8.6052,1.7031,-11.2294,-0.258,-0.018,0.0755,63
4.383,84,0.6875,1.7219,-19.717,0.0449,0.0581,-0.0038,93,4.787,92,8.6969,1.5733,-11.3172,-0.3249,-0.0787,0.0727,63
4.435,85,0.5913,1.6668,-19.6684,0.0296,0.0264,0.0054,93,4.839,93,8.8405,1.2964,-11.4302,-0.2863,-0.0955,0.0499,63
4.487,86,0.559,1.5506,-19.5741,0.0384,0.007,0.0046,93,4.891,94,8.8816,0.9797,-11.556,-0.1023,-0.0573,-0.0067,63
4.539,87,0.5777,1.4726,-19.5038,0.0556,-0.0024,0.0288,93,4.943,95,8.6217,1.7574,-11.4695,0.0864,-0.0316,-0.0581,63
4.591,88,0.6145,1.3765,-19.574,0.0716,-0.0198,0.0817,93,4.994,96,8.6718,1.5738,-11.4118,0.1718,-0.0702,-0.0565,63
4.642,89,0.8118,1.3035,-19.6953,0.058,-0.0367,0.135,93,5.046,97,8.646,1.6033,-11.6232,0.1827,-0.0862,-0.0453,63
4.694,90,0.85,1.2438,-19.7404,0.0122,-0.0392,0.1902,93,5.098,98,8.6714,1.5625,-11.6854,0.1864,-0.08,-0.0287,63
4.746,91,0.8639,1.2524,-19.6829,0.0038,-0.0495,0.2134,93,5.15,99,8.6048,1.5396,-11.8259,0.1555,-0.0541,-0.0114,63
4.798,92,0.8105,1.4678,-19.6427,0.052,-0.0588,0.2236,93,5.202,100,8.6753,1.6165,-11.8665,0.0902,-0.0266,0.003,63
4.85,93,0.8249,1.7255,-19.5151,0.0197,-0.0509,0.2422,93,5.254,101,8.6468,1.7152,-11.7335,0.0809,0.0126,0.0112,63
4.901,94,0.8326,1.7189,-19.4819,-0.0238,-0.0192,0.2555,93,5.305,102,8.6349,1.7788,-11.6713,0.0526,0.0292,0.0214,63
4.953,95,0.7669,1.603,-19.5136,-0.0229,0.0241,0.2589,93,5.357,103,8.0059,2.1524,-11.7245,-0.2567,0.0477,0.0757,63
5.005,96,0.6987,1.6089,-19.5814,-0.0061,0.0432,0.2516,93,5.409,104,7.9255,2.274,-11.51,-0.098,0.0294,0.0687,63
5.057,97,0.6252,1.6069,-19.715,0.0665,0.0266,0.2143,93,5.461,105,8.2177,1.7611,-11.7138,-0.2727,-0.0024,0.0748,63
5.109,98,0.6315,1.644,-19.6658,0.037,0.0084,0.148,93,5.512,106,8.3187,1.8052,-11.7171,-0.0805,0.0601,0.0265,63
5.16,99,0.5628,1.7363,-19.4959,0.0587,-0.0218,0.0821,93,5.564,107,8.2624,1.8339,-11.6673,0.0767,0.1067,-0.0055,63
5.212,100,0.5368,1.5842,-19.4736,0.016,-0.0551,0.0755,93,5.616,108,8.391,1.6002,-11.4541,0.0901,0.0851,-0.0173,63
5.264,101,0.7975,1.4323,-19.6275,-0.0793,-0.0214,0.0119,93,5.668,109,8.4533,1.6018,-11.4472,0.0715,0.0446,-0.0144,63
5.316,102,0.9105,1.3523,-19.7664,0.0011,-0.0155,0.0188,93,5.72,110,8.4953,1.5213,-11.5196,0.0588,0.0524,-0.0026,63
5.367,103,0.9546,1.2529,-19.8871,0.0041,-0.0195,0.0117,93,5.771,111,8.2972,1.8397,-11.4608,-0.0601,0.0595,0.0272,63
5.419,104,0.8033,1.302,-19.7566,0.0442,-0.058,0.0167,93,5.823,112,8.4038,1.5765,-11.3459,0.0233,0.0717,0.0342,63
5.471,105,0.7804,1.4537,-19.5659,-0.0007,-0.0759,0.0358,93,5.875,113,8.539,1.3787,-11.4192,0.0256,0.0554,0.0179,63
5.523,106,0.8098,1.4155,-19.4125,-0.0011,-0.0543,0.0464,93,5.926,114,8.5308,1.5966,-11.4351,0.0463,0.0784,0.0088,63
5.575,107,0.7509,1.5117,-19.3259,0.0295,-0.0038,0.0364,93,5.978,115,8.6088,1.4635,-11.318,0.0609,0.0978,0.0049,63
5.626,108,0.6625,1.4099,-19.4363,0.0443,0.0218,0.033,93,6.03,116,8.6387,1.458,-11.271,0.0073,0.0614,0.0105,63
5.678,109,0.741,1.3919,-19.6082,0.0033,0.041,-0.0121,93,6.082,117,8.7168,1.4241,-11.2544,0.0199,0.046,0.0012,63
5.73,110,0.7902,1.3247,-19.7354,0.0338,0.0328,-0.037,93,6.134,118,8.6142,1.3779,-11.2834,0.0384,0.0471,-0.0067,63
5.782,111,0.7389,1.3301,-19.7476,0.0443,0.0162,-0.0649,93,6.185,119,8.6465,1.4332,-11.3546,0.0229,0.034,-0.0018,63
5.834,112,0.6287,1.2788,-19.6534,0.0342,-0.0048,-0.0798,93,6.237,120,8.6805,1.392,-11.3255,0.0185,0.052,0.0014,63
5.885,113,0.6709,1.2802,-19.5908,0.007,-0.0144,-0.0882,93,6.289,121,8.6894,1.3858,-11.2304,0.0346,0.0497,-0.0001,63
5.937,114,0.7192,1.1805,-19.5898,0.0089,-0.0078,-0.0884,93,6.341,122,8.6915,1.4448,-11.1545,0.0022,0.0374,0.0092,63
5.989,115,0.7622,1.1555,-19.6344,0.0032,0.0022,-0.0766,93,6.392,123,8.7337,1.4001,-11.1653,-0.0631,0.0367,0.0214,63
6.04,116,0.7695,1.1508,-19.6896,0.0095,0.0022,-0.0617,93,6.444,124,8.7856,1.4214,-11.0884,0.0078,0.0352,0.0068,63
6.092,117,0.6992,1.1557,-19.6476,0.006,0.0047,-0.0505,93,6.496,125,8.7969,1.3879,-11.1081,0.0147,0.0252,0.0049,63
6.144,118,0.6464,1.1655,-19.5679,0.0145,0.0051,-0.0466,93,6.548,126,8.7843,1.4673,-11.142,-0.0142,0.0263,0.0101,63
6.196,119,0.6701,1.1826,-19.5152,0.025,0.0185,-0.0321,93,6.6,127,8.8183,1.4078,-11.052,-0.0233,0.0291,0.0174,63
6.248,120,0.6824,1.1187,-19.5877,0.015,0.0358,-0.0131,93,6.652,128,8.7626,1.5008,-11.0227,-0.1048,-0.0061,0.0328,63
6.3,121,0.7631,1.1186,-19.6779,0.0265,0.0366,-0.0094,93,6.703,129,8.8096,1.3519,-10.9974,-0.1868,-0.0511,0.0414,63
6.352,122,0.7362,1.167,-19.7247,0.0363,0.0213,0.0032,93,6.755,130,8.839,1.3564,-11.0814,-0.2374,-0.0795,0.0414,63
6.403,123,0.73,1.154,-19.6882,0.0239,0.0077,0.009,93,6.807,131,8.8514,1.3286,-11.1542,-0.2053,-0.0759,0.0398,63
6.455,124,0.7458,1.1539,-19.6183,0.0283,-0.0032,0.0066,93,6.859,132,8.8462,1.2843,-11.1933,-0.1558,-0.0599,0.0291,63
6.507,125,0.8207,1.1667,-19.5876,0.0363,-0.0106,0.0123,93,6.91,133,8.8572,1.2474,-11.2297,-0.1223,-0.0463,0.0146,63
6.559,126,0.894,1.0725,-19.6233,0.0173,0.0011,0.0277,93,6.962,134,8.844,1.2971,-11.2312,-0.0863,-0.0315,0.0079,63
6.61,127,0.8995,1.0194,-19.6452,0.0097,0.0174,0.0563,93,7.014,135,8.8025,1.3847,-11.2224,-0.0542,-0.0218,0.0052,63
6.662,128,0.7055,1.0075,-19.6824,0.0314,0.0228,0.0794,93,7.066,136,8.7663,1.3955,-11.2542,-0.0457,-0.0146,0.0047,63
6.714,129,0.5833,0.9713,-19.708,0.0277,0.0142,0.0909,93,7.118,137,8.7819,1.3292,-11.2337,-0.0585,-0.0071,0.0028,63
6.766,130,0.6071,1.0196,-19.7293,0.0168,-0.0134,0.1027,93,7.169,138,8.7656,1.3717,-11.2224,-0.0994,-0.0072,0.0107,63
6.817,131,0.6657,1.0632,-19.7694,0.0205,-0.0394,0.1133,93,7.221,139,8.7726,1.4262,-11.1823,-0.1081,-0.0171,0.0158,63
6.869,132,0.7229,1.1311,-19.7641,-0.0087,-0.0555,0.1207,93,7.273,140,8.812,1.3474,-11.1491,-0.1015,-0.0144,0.0102,63
6.921,133,0.7896,1.1598,-19.7582,-0.0417,-0.0694,0.124,93,7.325,141,8.8217,1.1962,-11.1802,-0.0557,-0.0014,-0.0153,63
6.973,134,0.7921,1.176,-19.6846,-0.0671,-0.0744,0.1144,93,7.376,142,8.7855,1.2392,-11.1595,0.333,0.0576,-0.0805,63
7.025,135,0.7445,1.2113,-19.6363,-0.0757,-0.0713,0.1086,93,7.428,143,8.8162,1.0889,-11.1272,0.2385,0.0181,-0.0733,63
7.076,136,0.7675,1.2387,-19.6409,-0.0917,-0.0606,0.1011,93,7.48,144,8.8072,1.3524,-11.2359,0.2668,-0.0065,-0.0667,63
7.128,137,0.786,1.224,-19.671,-0.1254,-0.0515,0.1014,93,7.532,145,8.8057,1.3688,-11.3496,0.2668,0.0089,-0.054,63
7.18,138,0.7641,1.2899,-19.6494,-0.1504,-0.0531,0.1028,93,7.583,146,8.5619,1.7154,-11.3126,0.149,0.039,-0.0231,63
7.232,139,0.7049,1.3292,-19.6392,-0.1771,-0.0606,0.092,93,7.635,147,8.7937,1.4174,-11.1786,-0.0853,-0.0128,0.0268,63
7.283,140,0.7049,1.5869,-19.6281,-0.1403,-0.0648,0.0773,93,7.687,148,9.1047,1.4452,-11.2743,-0.1488,-0.1523,0.0286,63
7.335,141,0.649,1.6886,-19.6425,-0.1595,-0.0555,0.0552,93,7.739,149,9.1426,1.3571,-11.4537,0.188,-0.1228,-0.0289,63
7.387,142,0.6321,1.6674,-19.7,-0.1512,-0.0572,0.0301,93,7.791,150,9.0171,1.6383,-11.4595,0.1679,-0.0907,-0.033,63
7.439,143,0.6375,1.7023,-19.7489,-0.1008,-0.0824,-0.0135,93,7.842,151,9.0457,1.5436,-11.5189,0.1822,-0.0687,-0.0279,63
7.491,144,0.5668,1.2166,-20.0436,0.0604,-0.1383,-0.0389,93,7.894,152,8.9475,1.6183,-11.4984,0.2071,-0.0213,-0.0365,63
7.542,145,0.8034,2.0576,-19.8732,0.0096,-0.1787,-0.0309,93,7.946,153,8.8818,1.6001,-11.4587,0.2096,0.0096,-0.0367,63
7.594,146,0.4374,1.3557,-19.9921,0.0018,-0.1993,-0.0096,93,7.998,154,8.7666,1.6005,-11.5225,0.1611,0.0232,-0.0293,63
7.646,147,0.1554,1.3996,-19.8673,0.0857,-0.2111,0.002,93,8.05,155,8.8196,1.4669,-11.4297,0.1183,0.0305,-0.0215,63
7.698,148,-0.2059,1.4342,-19.8136,0.0685,-0.2178,-0.0071,93,8.102,156,8.7734,1.5032,-11.3751,0.1045,0.0214,-0.0176,63
7.75,149,-0.4683,1.4721,-19.6626,0.0451,-0.2413,0.0146,93,8.153,157,8.5354,1.6403,-11.419,0.0318,0.0205,0.006,63
7.802,150,-0.7123,1.4525,-19.4322,0.0159,-0.2501,0.0242,93,8.205,158,9.1721,0.9146,-11.3726,-0.1123,-0.0239,0.0274,63
7.853,151,-0.8505,1.4469,-19.2212,0.011,-0.2355,0.012,93,8.257,159,9.0832,1.5167,-11.3895,-0.1687,-0.0391,0.0238,63
7.905,152,-0.9201,1.4538,-19.1063,0.0051,-0.1967,0.0067,93,8.309,160,9.1088,1.0589,-11.3767,-0.2186,-0.0437,0.0326,63
7.957,153,-0.8312,1.43,-19.1262,0.0234,-0.1455,-0.0104,93,8.361,161,9.0083,1.2969,-11.3495,-0.0952,-0.0171,0.0014,63
8.009,154,-0.7144,1.4252,-19.178,0.0082,-0.1017,-0.0293,93,8.412,162,8.9678,1.3647,-11.3268,-0.0111,-0.0106,-0.006,63
8.06,155,-0.7694,1.3812,-19.3536,0.0501,-0.0554,-0.0278,93,8.464,163,8.8865,1.3117,-11.3708,-0.0263,0.0013,-0.0001,63
8.112,156,-0.6362,1.2703,-19.5392,0.0046,-0.0112,-0.0381,93,8.516,164,8.7338,1.5105,-11.3198,-0.0736,0.0102,0.0148,63
8.164,157,-0.5796,1.2444,-19.6978,-0.0052,0.018,-0.0428,93,8.568,165,8.8236,1.3765,-11.2868,-0.1368,-0.0016,0.04,63
8.216,158,-0.541,1.3477,-19.7085,-0.0151,0.0248,-0.0617,93,8.62,166,8.8069,1.3533,-11.2834,-0.2874,-0.0304,0.0582,63
8.268,159,-0.6387,1.259,-19.5959,-0.0187,0.033,-0.0874,93,8.671,167,8.8488,1.3682,-11.3568,-0.211,-0.0425,0.0454,63
8.319,160,-0.6943,1.2876,-19.4923,-0.0046,0.0553,-0.1032,93,8.723,168,8.8395,1.121,-11.4381,-0.0074,0.0008,-0.0144,63
8.371,161,-0.6974,1.2014,-19.4973,0.0082,0.0726,-0.0972,93,8.775,169,8.8402,1.4896,-11.2595,0.1425,-0.0241,-0.0313,63
8.423,162,-0.6127,1.1563,-19.5547,0.0382,0.076,-0.0725,93,8.827,170,8.9006,1.4903,-11.356,0.1582,-0.0382,-0.0217,63
8.475,163,-0.4875,1.096,-19.7327,0.0373,0.0883,-0.0468,93,8.879,171,8.8038,1.6631,-11.396,0.1236,-0.0068,-0.0062,63
8.527,164,-0.376,1.1102,-19.8667,0.0388,0.0892,-0.0059,93,8.93,172,8.7205,1.6482,-11.2152,-0.0744,-0.007,0.0449,63
8.578,165,-0.3371,1.1066,-19.8554,0.0155,0.0673,0.0419,93,8.982,173,8.7297,1.6825,-11.183,-0.2377,-0.0664,0.0705,63
8.63,166,-0.3408,1.1299,-19.7715,0.0289,0.0553,0.0541,93,9.034,174,8.845,1.3194,-11.3588,-0.2923,-0.0853,0.0692,63
8.682,167,-0.3536,1.1832,-19.6522,0.0435,0.0671,0.0397,93,9.086,175,8.7918,1.3976,-11.3859,-0.2527,-0.0514,0.052,63
8.734,168,-0.3795,1.2599,-19.6109,0.0527,0.0763,0.02,93,9.138,176,8.8273,1.2157,-11.3393,-0.1583,-0.0295,0.0325,63
8.785,169,-0.5662,1.1844,-19.6076,0.0393,0.0687,-0.0003,93,9.189,177,8.8424,1.0134,-11.3361,-0.0152,-0.018,-0.0078,63
8.837,170,-0.4197,1.1079,-19.6716,0.0256,0.0503,-0.0332,93,9.241,178,8.8153,1.2611,-11.4033,-0.0568,-0.0171,-0.0006,63
8.889,171,-0.319,1.0318,-19.8122,0.0384,0.0506,-0.0399,93,9.293,179,8.842,1.2819,-11.3733,-0.0084,-0.0046,-0.0115,63
8.941,172,-0.2501,1.0148,-19.9412,0.0215,0.0349,-0.0372,93,9.345,180,8.8045,1.3421,-11.4084,0.055,0.0069,-0.0245,63
8.993,173,-0.2345,0.9973,-19.9149,-0.004,-0.0041,-0.0185,93,9.397,181,8.8139,1.3216,-11.3851,0.1108,0.0264,-0.0378,63
9.044,174,-0.2503,0.9347,-19.724,-0.0131,-0.0293,-0.008,93,9.448,182,8.7875,1.4189,-11.3477,0.1479,0.0322,-0.0453,63
9.096,175,-0.3415,0.9815,-19.5464,0.0331,-0.0179,0.0025,93,9.5,183,8.7061,1.3744,-11.4061,0.1953,0.0475,-0.0492,63
9.148,176,-0.3442,0.9968,-19.5701,0.0316,0.0143,0.0163,93,9.552,184,8.7112,1.3363,-11.3944,0.1966,0.0183,-0.0388,63
9.2,177,-0.2707,1.0424,-19.6877,0.0431,0.0316,0.0263,93,9.604,185,8.7325,1.3665,-11.4808,0.1537,0.0157,-0.0202,63
9.252,178,-0.238,1.0584,-19.8266,0.035,0.0279,0.0172,93,9.656,186,8.6429,1.5522,-11.4458,0.078,0.0294,0.0018,63
9.303,179,-0.2066,1.1025,-19.8584,0.0141,0.0096,0.0031,93,9.707,187,8.7269,1.4375,-11.2988,-0.0746,0.0207,0.0444,63
9.355,180,-0.1738,1.1476,-19.7427,0.0053,-0.0062,-0.0135,93,9.759,188,8.8189,1.345,-11.1852,-0.2184,-0.0302,0.0611,63
9.407,181,-0.1388,1.1349,-19.6078,-0.0083,-0.001,-0.0235,93,9.811,189,8.8658,1.3549,-11.3224,-0.219,-0.0409,0.0631,63
9.459,182,-0.1426,1.0788,-19.5513,-0.009,0.0325,-0.0393,93,9.863,190,8.8283,1.1792,-11.3474,-0.2271,-0.0119,0.0565,63
9.511,183,-0.1823,1.0536,-19.5564,0.0019,0.0582,-0.0553,93,9.915,191,8.764,1.2563,-11.2417,-0.216,-0.0163,0.0526,63
9.562,184,-0.3019,1.0337,-19.6388,0.0191,0.0595,-0.0623,93,9.966,192,8.7789,1.2315,-11.2435,-0.1784,-0.0219,0.0432,63
9.614,185,-0.2668,1.0121,-19.7386,-0.0036,0.0418,-0.0506,93,10.018,193,8.7994,1.2341,-11.3084,-0.173,-0.0308,0.0354,63
9.666,186,-0.1995,0.9034,-19.9025,-0.0021,0.0126,-0.0409,93,10.07,194,8.7876,1.2668,-11.3089,-0.1508,-0.0271,0.0294,63
9.718,187,-0.2068,0.8467,-19.9268,-0.0226,-0.029,-0.0318,93,10.122,195,8.8088,1.1645,-11.3047,-0.1223,-0.0372,0.0216,63
9.77,188,-0.1609,0.8761,-19.7585,-0.0251,-0.0694,-0.0162,93,10.173,196,8.8369,1.1941,-11.3388,-0.0835,-0.0323,0.0067,63
9.821,189,-0.0867,0.8679,-19.5726,-0.0069,-0.0692,0.0079,93,10.225,197,8.8544,1.1649,-11.3014,-0.0776,-0.0312,-0.0076,63
9.873,190,-0.0661,0.8935,-19.4804,0.0249,-0.0287,0.0234,93,10.277,198,8.7835,1.2797,-11.3247,-0.0534,-0.0326,-0.0124,63
9.925,191,-0.0324,0.9679,-19.5678,0.0319,0.0192,0.0321,93,10.329,199,8.8513,1.1211,-11.3745,0.0225,-0.0143,-0.0278,63
9.977,192,-0.0451,1.0528,-19.703,0.0397,0.0454,0.0139,93,10.381,200,8.708,0.9445,-11.3749,0.1106,0.0198,-0.0472,63
10.028,193,-0.0974,1.0851,-19.744,0.0112,0.0532,-0.0232,93,10.432,201,8.6491,1.2902,-11.3836,0.1278,0.0051,-0.0613,63
10.08,194,-0.0186,1.196,-19.6802,-0.0087,0.0534,-0.0645,93,10.484,202,8.7206,1.642,-11.3877,0.0648,-0.0436,-0.0349,63
10.132,195,0.0241,1.2666,-19.6646,-0.0395,0.0819,-0.1158,93,10.536,203,8.7382,1.7418,-11.6188,-0.1194,-0.0751,0.0095,63
10.184,196,-0.036,1.3377,-19.625,-0.0994,0.1267,-0.143,93,10.587,204,8.996,2.3814,-11.9109,-0.3762,-0.058,0.0625,63
10.236,197,-0.3603,1.579,-19.4471,-0.2588,0.1633,-0.1412,93,10.639,205,9.0371,1.2674,-11.6662,-0.8692,-0.0854,0.0556,63
10.287,198,-0.4137,1.0195,-19.5965,-0.4408,0.1802,-0.1188,93,10.691,206,8.9118,0.6227,-10.7999,-0.9118,-0.1874,0.0278,63
10.339,199,-0.3035,1.4911,-19.635,-0.2999,0.1604,-0.0313,93,10.743,207,9.0164,0.9338,-11.1301,-0.3794,-0.216,-0.0283,63
10.391,200,0.0526,1.615,-19.738,-0.3185,0.1266,0.0255,93,10.795,208,9.0807,0.6863,-11.1086,-0.229,-0.1993,-0.05,63
10.442,201,0.3975,1.2384,-19.6171,-0.2178,0.0648,-0.0206,93,10.846,209,9.2611,0.9902,-11.3845,0.0119,-0.1439,-0.0783,63
10.494,202,0.6145,1.3126,-19.3945,-0.1601,0.0563,-0.1638,93,10.898,210,8.6783,1.6934,-11.9318,0.4766,-0.0057,-0.0918,63
10.546,203,0.7757,1.6447,-19.2685,0.0132,0.0272,-0.2524,93,10.95,211,8.5208,2.0883,-11.6884,0.8979,0.0493,-0.2111,63
10.598,204,1.274,2.2146,-19.549,0.1099,0.0664,-0.31,93,11.002,212,7.6563,1.0516,-12.0349,1.2469,0.1328,-0.2942,63
10.65,205,1.2999,2.1938,-19.9154,0.0135,0.1834,-0.4181,93,11.054,213,8.5542,2.219,-11.1555,0.3033,0.1165,-0.2503,63
10.702,206,1.0387,2.2612,-19.9672,0.0408,0.2635,-0.544,93,11.105,214,8.8288,2.2683,-11.6894,0.0629,-0.0011,-0.1203,63
10.754,207,0.4313,2.1079,-19.6498,-0.0326,0.3514,-0.6381,93,11.157,215,9.0178,1.7776,-11.8822,-0.207,0.0221,-0.0781,63
10.805,208,0.0217,1.6615,-19.2029,-0.0414,0.3432,-0.6482,93,11.209,216,9.0333,2.4317,-11.9697,-0.4042,0.078,-0.0294,63
10.857,209,-0.3886,1.4902,-18.9329,-0.0881,0.3115,-0.5125,93,11.261,217,9.1017,1.0093,-10.4261,-0.426,0.009,-0.0567,63
10.909,210,-0.4118,1.3677,-19.2408,0.0494,0.2497,-0.3024,93,11.313,218,8.9218,1.7056,-11.2712,0.0489,-0.0294,-0.1348,63
10.961,211,0.2139,1.8044,-19.9589,0.03,0.2249,-0.0817,93,11.364,219,9.062,1.5424,-11.4672,0.106,-0.0453,-0.1172,63
11.013,212,1.1552,1.5342,-20.1696,-0.1074,0.1577,0.0901,93,11.416,220,9.0957,1.3959,-11.6415,0.1864,0.0098,-0.1413,63
11.064,213,1.1877,1.372,-19.9229,-0.002,0.0448,0.1783,93,11.468,221,9.0921,1.8373,-11.5683,0.4037,0.0762,-0.1516,63
11.116,214,1.3584,1.3654,-19.2829,0.0027,-0.0522,0.1728,93,11.52,222,8.9093,1.9506,-11.5162,0.3245,0.1176,-0.0999,63
11.168,215,1.292,1.3482,-19.0423,0.0811,-0.0459,0.1586,93,11.571,223,8.8529,1.9045,-11.5236,0.3165,0.1538,-0.055,63
11.219,216,1.4802,1.8582,-19.0657,0.1706,0.0956,0.1984,93,11.623,224,8.6612,1.8475,-11.555,0.3089,0.1865,-0.0183,63
11.271,217,1.5195,1.7048,-19.3133,0.0713,0.2513,0.209,93,11.675,225,8.6147,1.783,-11.5373,0.2916,0.2181,0.0201,63
11.323,218,1.531,1.9751,-18.9127,-0.0006,0.3866,0.2567,93,11.727,226,8.5784,1.8341,-11.3704,0.2499,0.2528,0.0525,63
11.375,219,1.7855,2.026,-18.2258,-0.0588,0.5563,0.3336,93,11.779,227,8.6742,1.6521,-11.1471,0.1775,0.2547,0.0764,63
11.427,220,1.9954,1.3019,-17.166,-0.5873,0.921,0.4126,93,11.83,228,8.643,1.6781,-11.0194,0.1366,0.2293,0.0864,63
11.478,221,2.4853,1.17,-16.1143,-0.4359,1.3247,0.5928,93,11.882,229,8.7675,1.518,-10.8357,0.0823,0.1493,0.0966,63
