right_leg_timestamp,right_leg_index,right_leg_accel_x,right_leg_accel_y,right_leg_accel_z,right_leg_gyro_x,right_leg_gyro_y,right_leg_gyro_z,right_leg_battery_percentage,left_leg_timestamp,left_leg_index,left_leg_accel_x,left_leg_accel_y,left_leg_accel_z,left_leg_gyro_x,left_leg_gyro_y,left_leg_gyro_z,left_leg_battery_percentage
0.569,10,6.0777,-0.1187,-11.5022,0.3589,0.5813,-0.6598,72,0.036,0,-4.5825,3.1201,-18.0683,0.0415,-0.9014,-0.0646,39
0.62,11,9.7015,5.2653,-7.0391,-0.4036,0.7647,-0.6095,72,0.088,1,0.8014,1.2637,-17.071,-0.1266,-1.3247,-0.294,39
0.672,12,6.6881,8.4993,-8.7283,0.0727,0.1763,-0.3132,72,0.14,2,2.7517,1.5397,-18.5836,-0.5636,-0.6278,-0.3915,39
0.724,13,10.147,7.8397,-9.7162,-0.0496,-0.3347,-0.0622,72,0.191,3,2.534,-1.3827,-21.5443,-0.1936,0.2268,-0.2193,39
0.776,14,11.6118,5.3249,-6.7976,-0.3214,-0.802,0.2484,72,0.243,4,0.357,-2.6752,-23.7052,-0.0019,0.8505,-0.1889,39
0.827,15,11.267,7.9016,-2.3771,0.3754,-1.0139,0.1977,72,0.295,5,-5.212,-0.5757,-23.3163,0.4104,0.7865,-0.0478,39
0.879,16,6.7257,7.7047,-0.0738,-0.4012,-0.0616,-0.2696,72,0.347,6,-7.8037,0.1702,-20.6641,0.0111,-0.0928,0.2342,39
0.931,17,8.1492,0.3862,-8.0588,0.3837,0.6334,-0.8606,72,0.399,7,-3.9013,-0.0263,-18.9476,-0.0936,-0.7345,0.3491,39
0.983,18,11.2134,-4.5027,-12.3087,0.6457,0.232,-0.2164,72,0.45,8,1.4842,0.8191,-17.9019,0.159,-0.8692,0.1177,39
1.035,19,13.4498,-7.6301,-11.8823,0.2675,-0.379,0.049,72,0.502,9,1.6692,-0.0601,-18.5975,-0.3711,0.0463,0.3887,39
1.086,20,15.082,-5.2308,-8.2245,-0.1247,-0.3293,0.4217,72,0.554,10,-0.6623,-0.473,-21.5544,-0.0111,0.7187,0.3878,39
1.138,21,14.5786,-1.7156,-7.7771,0.3096,-0.9137,0.3974,72,0.606,11,-4.3084,-0.8977,-22.789,0.5486,0.8449,-0.0726,39
1.19,22,9.3169,-0.6395,-3.092,-0.4493,0.0115,0.0536,72,0.658,12,-6.6642,-1.2766,-21.3688,0.3547,0.1221,-0.0133,39
1.242,23,11.6886,-5.7038,-10.2616,0.3486,0.6867,-0.6307,72,0.709,13,-6.0745,-1.8803,-19.4659,0.2781,-0.5777,-0.0263,39
1.294,24,13.7966,-9.3999,-4.9053,0.0281,-0.1722,-0.7292,72,0.761,14,0.6839,-1.667,-18.651,0.6154,-1.0884,0.121,39
1.345,25,15.3351,-9.8993,-10.4993,0.2431,-0.1808,-0.0415,72,0.813,15,3.4974,-2.2886,-19.4423,0.2131,-0.541,0.6457,39
1.397,26,16.458,-6.4467,-5.0788,-0.0642,-0.8054,0.3136,72,0.865,16,3.0551,-2.0455,-21.8984,-0.0927,0.2901,0.4687,39
1.449,27,15.3896,0.6468,-1.1227,0.1575,-0.427,0.2865,72,0.917,17,-3.1994,-2.5473,-22.7149,0.1189,0.862,-0.1135,39
1.501,28,16.4977,1.5778,-1.3563,-0.5603,0.3667,-0.1949,72,0.968,18,-7.8077,-3.6448,-21.0891,-0.2977,0.365,0.0431,39
1.553,29,9.8213,-4.0855,-8.9948,0.2676,0.946,-0.7672,72,1.02,19,-7.8878,-3.5256,-19.2005,-0.2922,-0.3845,0.1366,39
1.605,30,1.8438,-8.2188,-14.5697,0.5339,0.3549,-0.3057,72,1.072,20,-0.8424,-2.894,-19.665,0.0949,-0.9474,0.0657,39
1.656,31,6.6115,-6.4805,-15.4923,0.0361,-0.4143,-0.1559,72,1.124,21,4.5025,-1.3548,-21.0617,-0.1355,-0.774,0.3124,39
1.708,32,10.0911,-4.8396,-10.8244,0.1908,-0.9526,0.035,72,1.175,22,3.6964,-1.7507,-23.1755,-0.3343,0.12,0.1612,39
1.76,33,12.1481,-4.3645,-10.3334,0.4921,-1.3687,0.2017,72,1.227,23,-1.9189,-3.6686,-24.8957,-0.1019,0.7726,-0.4131,39
1.812,34,10.3128,2.1665,-4.9577,-0.162,-0.3206,-0.1547,72,1.279,24,-6.7445,-3.6925,-24.0407,0.0138,0.5374,-0.2821,39
1.864,35,12.7925,-0.1442,-11.6233,0.0027,0.4444,-0.494,72,1.331,25,-7.6391,-2.5473,-21.0556,-0.1943,-0.2741,-0.0134,39
1.915,36,14.6023,5.2466,-5.8991,-0.6733,-0.3491,0.1898,72,1.383,26,-2.4796,-2.0807,-18.7855,-0.1301,-0.8668,0.025,39
1.967,37,11.8165,9.1811,-7.1713,-0.3994,0.3283,0.384,72,1.434,27,0.8512,0.3028,-19.9351,-0.1152,-0.7065,0.0175,39
2.019,38,13.8899,9.3272,-6.5172,-0.6804,0.0692,0.4105,72,1.486,28,1.9164,0.5694,-22.4066,-0.3793,0.1693,0.3731,39
2.071,39,15.4032,4.5241,-5.7589,-0.3433,-0.6229,0.4506,72,1.538,29,-2.173,-0.7209,-24.3345,-0.0904,0.8086,0.0851,39
2.122,40,14.6959,6.0678,-1.619,0.2478,-0.4869,0.5394,72,1.59,30,-5.4934,-1.3445,-24.236,0.1995,0.6,-0.2093,39
2.174,41,12.5322,4.8991,-0.171,-0.4415,0.323,0.2207,72,1.641,31,-7.9002,-1.9456,-21.6348,0.1932,-0.1989,-0.1886,39
2.226,42,13.6035,-0.6799,-8.1297,0.3543,0.9141,-0.4943,72,1.693,32,-5.0632,-1.0146,-19.109,0.4911,-0.8119,-0.0252,39
2.278,43,4.6042,-2.7073,-13.9383,-0.226,1.0162,-0.0209,72,1.745,33,1.1969,-0.2026,-18.0086,0.3873,-1.2594,0.1986,39
2.33,44,2.3883,1.1246,-14.2346,-0.2248,0.8675,0.2472,72,1.797,34,2.2764,3.5219,-19.8494,-0.1141,-0.6896,0.5307,39
2.382,45,7.0089,0.2913,-11.9982,0.2093,0.2881,0.2784,72,1.849,35,-0.2568,2.7228,-22.4682,0.0661,0.1817,0.6073,39
2.433,46,8.6715,-1.033,-10.2335,-0.1782,-0.3843,0.5561,72,1.9,36,-2.8749,-0.2324,-24.3794,0.3352,0.8175,0.1693,39
2.485,47,7.8181,2.7556,-4.8848,0.2274,-0.033,0.4468,72,1.952,37,-6.4213,-1.2376,-25.2199,0.5114,0.3743,0.0563,39
2.537,48,6.2649,3.94,-5.1067,0.0902,0.6543,-0.3111,72,2.004,38,-6.4295,-0.7433,-21.8251,0.4441,-0.3936,0.2368,39
2.589,49,6.5693,-2.3614,-11.7319,0.7424,1.1559,-0.8916,72,2.056,39,-2.901,-0.8921,-18.6201,0.1672,-0.9541,0.3565,39
2.64,50,6.505,-6.9605,-5.9784,0.7693,0.5081,-0.7331,72,2.108,40,2.6134,-0.999,-16.3455,0.2933,-1.3601,0.4481,39
2.692,51,10.0134,-7.5339,-9.2886,0.2651,-0.3026,-0.4145,72,2.159,41,3.9763,0.0755,-16.03,0.0981,-0.3077,0.9984,39
2.744,52,12.574,-3.0126,-6.9249,-0.2425,-0.5646,0.0368,72,2.211,42,2.9039,1.2009,-19.6806,0.1788,0.4604,1.3621,39
2.796,53,14.4428,-4.3586,-6.6753,-0.0681,-1.0855,0.2852,72,2.263,43,0.8454,0.8127,-22.345,0.7552,1.021,0.9605,39
2.848,54,9.7739,2.1708,-2.2878,-0.5591,-0.1291,-0.1149,72,2.315,44,-4.3056,1.6006,-22.6122,0.5971,0.5019,0.6691,39
2.899,55,9.81,2.5604,-4.1229,-0.7204,0.5841,-0.732,72,2.366,45,-6.3112,0.8135,-20.2637,0.2996,-0.3005,0.3986,39
2.951,56,7.8927,-3.3684,-11.014,0.1508,1.1047,-1.1948,72,2.418,46,-2.8937,0.2509,-18.5787,-0.0684,-0.8861,0.1091,39
3.003,57,6.4672,-7.6954,-5.4544,0.467,0.2284,-1.2081,72,2.47,47,3.0054,-0.0581,-17.5952,-0.1867,-1.3135,-0.1179,39
3.055,58,9.9858,-10.8535,-7.1569,-0.2854,0.1427,-0.6626,72,2.522,48,4.2463,-0.8333,-18.8492,-0.8133,-0.323,0.4722,39
3.107,59,12.5538,-4.7998,-5.8727,-0.0207,-0.4046,-0.3944,72,2.574,49,2.0538,-1.9716,-21.5872,0.0811,0.4492,0.3217,39
3.158,60,11.6691,-3.5512,-7.797,0.4447,-0.9687,-0.4275,72,2.625,50,-0.5327,-3.7794,-23.7365,0.4483,1.0128,-0.4041,39
3.21,61,9.375,0.8175,-3.1065,-0.0462,-0.1341,-0.5449,72,2.677,51,-5.1649,-3.1087,-23.5202,0.396,0.5148,-0.6265,39
3.262,62,10.3193,-3.6586,-7.0398,0.6428,0.5805,-1.0717,72,2.729,52,-6.7212,-3.2664,-21.7315,0.4479,-0.2911,-0.5619,39
3.314,63,12.7972,-7.9072,-2.5539,0.1318,-0.0672,-0.2656,72,2.78,53,-2.5756,-2.6859,-19.7986,0.7143,-0.8792,-0.2584,39
3.366,64,14.2303,-1.7791,-6.1659,0.7287,0.2914,-0.355,72,2.832,54,1.1112,0.9074,-19.9559,0.8382,-1.2283,0.0237,39
3.417,65,15.6517,-4.9779,-8.7303,-0.1278,0.6078,0.2809,72,2.884,55,4.4869,0.2984,-20.5554,0.0966,-0.4035,0.3952,39
3.469,66,16.4296,-0.382,-6.1975,-0.0059,0.6265,0.4185,72,2.936,56,1.4715,0.7989,-22.9834,0.4157,0.3905,-0.3809,39
3.521,67,14.5528,1.324,-3.3639,0.6291,-0.1778,0.0069,72,2.988,57,-0.8418,-0.1526,-23.5806,0.758,0.815,-0.9494,39
3.573,68,10.8278,4.289,0.1289,-0.2156,0.5486,-0.669,72,3.039,58,-2.8678,-1.5858,-21.9441,0.3592,0.3913,-1.3643,39
3.625,69,12.5194,-0.2951,-6.1016,0.5192,1.0787,-1.1623,72,3.091,59,-3.0475,-3.9342,-19.9134,0.4997,-0.278,-1.6671,39
3.676,70,12.9599,-5.4524,-2.5194,1.0554,0.264,-0.4246,72,3.143,60,-0.5062,-3.8521,-18.0058,0.8159,-0.8697,-1.5968,39
3.728,71,13.4264,-8.5926,-9.6624,1.3516,-0.3707,0.0301,72,3.195,61,0.5374,0.6143,-17.5601,0.6035,-1.214,-1.148,39
3.78,72,15.0649,-6.2843,-11.2631,0.358,0.2237,-0.1744,72,3.247,62,0.618,2.1537,-19.5777,-0.2366,-0.4723,-0.7099,39
3.832,73,15.2378,-3.2207,-10.9152,0.7453,0.0825,-0.4364,72,3.298,63,0.642,2.5113,-22.2699,-0.4604,0.3403,-1.1895,39
3.884,74,13.6545,-3.9882,-14.1682,1.1707,-0.6132,-0.5028,72,3.35,64,0.0519,-0.2534,-23.3517,-0.6188,0.7959,-1.5396,39
3.935,75,4.6415,2.4412,-12.5295,1.5309,-0.6654,-0.6267,72,3.402,65,1.4428,0.1017,-21.4278,-0.0052,0.4123,-1.7951,39
3.987,76,2.8032,2.6675,-7.0028,0.769,-0.9489,-0.0964,72,3.454,66,3.2384,1.3037,-19.5533,0.0227,-0.219,-1.9815,39
4.039,77,-1.7014,5.0151,-7.0759,0.6027,-0.192,-0.0098,72,3.506,67,4.4348,-1.5778,-19.0153,0.3632,-0.6316,-2.1176,39
4.09,78,0.6055,3.3676,-11.1447,-0.0502,0.0259,0.0453,72,3.557,68,5.1396,-1.3302,-20.412,0.0004,-0.6112,-1.967,39
4.142,79,5.7076,4.7345,-11.8235,0.041,-0.4871,-0.2114,72,3.609,69,3.8406,-1.0244,-22.3114,-0.093,-0.1562,-1.287,39
4.194,80,6.7617,-0.7186,-10.7403,0.0715,-0.4644,-0.3493,72,3.661,70,1.2641,-0.5096,-22.7865,0.3623,0.4238,-1.107,39
4.246,81,6.6687,-2.2153,-5.5167,0.7287,-0.499,-0.5609,72,3.713,71,-1.3089,0.8796,-21.4701,0.0362,0.4952,-1.139,39
4.298,82,6.9665,-0.4485,-1.4715,1.2084,0.3142,-1.0752,72,3.765,72,-3.9563,0.7544,-19.9005,-0.0859,0.1127,-1.1524,39
4.349,83,6.7148,-5.5644,-9.0789,1.5585,0.9077,-1.4588,72,3.816,73,-5.4309,-0.2481,-18.1222,0.0548,-0.5596,-1.1223,39
4.402,84,-0.4234,1.2908,-14.3363,0.8886,1.1125,-0.8448,72,3.868,74,-4.2935,-0.2537,-17.4312,0.119,-1.0752,-1.1769,39
4.453,85,2.422,1.8145,-15.4583,0.9699,0.4006,-0.7154,72,3.92,75,-3.242,1.2251,-18.5115,0.1191,-1.1888,-1.1915,39
4.505,86,5.7719,-0.0092,-14.7085,0.5472,0.3131,-0.6659,72,3.972,76,-1.4948,0.0804,-20.7721,-0.2666,-0.4721,-0.8891,39
4.557,87,5.7365,-0.9804,-13.9579,0.1299,0.0092,-0.6394,72,4.023,77,-0.9715,-0.5086,-22.0407,0.2653,0.1344,-1.3203,39
4.609,88,5.017,-1.9477,-7.6031,0.6658,-0.0165,-0.5886,72,4.075,78,-1.139,-0.71,-21.0567,0.0281,0.2733,-1.635,39
4.661,89,5.0078,-6.2321,-13.5539,1.1625,0.6663,-1.0221,72,4.127,79,-1.8136,0.2413,-18.9259,0.1469,0.1604,-1.8615,39
4.712,90,7.908,-4.9015,-13.4949,0.7588,0.7591,-1.003,72,4.179,80,-2.0456,-0.5672,-17.1994,-0.1574,-0.0855,-1.7669,39
4.764,91,6.9244,-4.0926,-13.5545,0.0599,0.4105,-0.4761,72,4.231,81,-1.2514,-1.2208,-16.6692,-0.1515,-0.0036,-1.6893,39
4.816,92,7.8737,-3.8132,-13.7422,0.2771,0.0437,-0.4808,72,4.282,82,-2.0059,-1.0593,-18.3693,-0.7873,0.4776,-1.4417,39
4.868,93,7.9935,-2.7316,-13.4554,0.2059,0.2086,-0.4779,72,4.334,83,-1.7255,-3.1986,-20.6935,-0.4688,0.924,-1.4004,39
4.919,94,8.2742,-1.8847,-12.885,0.0244,0.3089,-0.3446,72,4.386,84,-1.7531,-3.9469,-22.2561,-0.2461,1.0103,-1.2766,39
4.971,95,8.1692,-2.0466,-12.5007,-0.0094,0.2832,-0.2763,72,4.438,85,-1.8607,-3.7461,-22.2965,-0.3756,0.6537,-0.9404,39
5.023,96,8.2942,-1.9643,-12.2556,-0.0388,0.1581,-0.2322,72,4.489,86,-1.5229,-3.5267,-20.5819,0.0249,0.2165,-0.4726,39
5.075,97,8.699,-1.7642,-12.7388,-0.0953,0.1532,-0.1902,72,4.541,87,-1.6364,-2.7186,-18.788,0.0597,0.0023,0.0566,39
5.126,98,9.1521,-1.6852,-12.9616,-0.1403,0.3035,-0.1967,72,4.593,88,-1.622,-2.5214,-17.3619,-0.1053,0.1624,0.4704,39
