right_leg_timestamp,right_leg_index,right_leg_accel_x,right_leg_accel_y,right_leg_accel_z,right_leg_gyro_x,right_leg_gyro_y,right_leg_gyro_z,right_leg_battery_percentage,left_leg_timestamp,left_leg_index,left_leg_accel_x,left_leg_accel_y,left_leg_accel_z,left_leg_gyro_x,left_leg_gyro_y,left_leg_gyro_z,left_leg_battery_percentage
0.223,4,9.2562,0.859,-12.5641,0.099,0.0483,-0.0112,89,0.042,0,8.7931,1.7383,-9.7165,-0.0209,0.0126,0.0273,51
0.274,5,9.2998,-0.0384,-12.6737,-0.1026,0.0527,0.0418,89,0.094,1,8.8054,1.7387,-9.712,0.0036,0.021,0.0211,51
0.326,6,9.1911,0.292,-12.6891,-0.1701,0.0411,0.0515,89,0.146,2,8.8237,1.7838,-9.6859,0.0044,0.0444,0.0145,51
0.378,7,9.3732,0.2497,-12.6737,-0.1467,0.0609,0.0802,89,0.198,3,8.8103,1.7909,-9.6478,0.0144,0.0591,0.0223,51
0.43,8,9.3758,0.2266,-12.6786,-0.1131,0.1057,0.0945,89,0.25,4,8.7993,1.8216,-9.6066,0.0084,0.0572,0.0252,51
0.482,9,9.3821,0.3885,-12.5527,-0.0877,0.1586,0.1016,89,0.302,5,8.8203,1.7822,-9.6066,0.0046,0.0621,0.0265,51
0.533,10,9.4315,0.3615,-12.3844,-0.0807,0.1597,0.1108,89,0.353,6,8.814,1.728,-9.5794,-0.0105,0.0749,0.0278,51
0.585,11,9.4653,0.287,-12.2754,-0.0942,0.1296,0.0929,89,0.405,7,8.8125,1.7149,-9.4912,-0.0099,0.0665,0.0204,51
0.637,12,9.4442,0.2488,-12.2412,-0.0776,0.0988,0.0723,89,0.457,8,8.8119,1.7278,-9.4509,-0.0068,0.0443,0.0094,51
0.689,13,9.4791,0.2476,-12.2197,-0.0592,0.0979,0.0594,89,0.509,9,8.8232,1.7227,-9.4252,-0.005,0.0228,0.0025,51
0.74,14,9.4833,0.2467,-12.1574,-0.0679,0.099,0.0495,89,0.561,10,8.8271,1.7073,-9.4226,-0.0052,0.0058,0.0003,51
0.792,15,9.4847,0.226,-12.0639,-0.0711,0.0951,0.043,89,0.613,11,8.8285,1.6875,-9.4507,-0.0118,-0.0131,-0.001,51
0.844,16,9.5038,0.1791,-12.0494,-0.0702,0.0841,0.0351,89,0.664,12,8.8308,1.6842,-9.4923,-0.0033,-0.0262,-0.0143,51
0.896,17,9.5132,0.2423,-12.061,-0.0709,0.0849,0.0278,89,0.716,13,8.8118,1.6784,-9.5645,0.0074,-0.0102,-0.0244,51
0.947,18,9.4961,0.2273,-12.0184,-0.0514,0.1099,0.0273,89,0.768,14,8.819,1.6938,-9.5629,0.0108,0.013,-0.0288,51
0.999,19,9.4895,0.235,-11.8847,-0.0414,0.1279,0.0255,89,0.82,15,8.8785,1.7321,-9.4231,0.0055,0.0218,-0.0251,51
1.051,20,9.4835,0.2284,-11.7968,-0.0395,0.1078,0.0174,89,0.871,16,8.7455,1.666,-9.387,-0.0564,0.0628,-0.0064,51
1.103,21,9.4155,0.2663,-11.7573,-0.056,0.1403,0.0213,89,0.923,17,8.6139,1.6495,-9.2451,-0.021,-0.0355,-0.0157,51
1.155,22,9.5119,0.2762,-11.6175,-0.0592,0.2276,0.0211,89,0.975,18,8.6715,1.4478,-9.6983,0.101,-0.2973,-0.0694,51
1.207,23,9.4844,0.1491,-11.5845,-0.0176,0.2238,-0.0025,89,1.027,19,8.4984,1.5209,-9.9661,0.1517,-0.385,-0.1253,51
1.258,24,9.7118,0.5629,-11.2828,0.0809,0.1563,-0.0606,89,1.079,20,8.5296,1.7923,-10.1158,0.1458,-0.3798,-0.1028,51
1.31,25,9.8388,0.6104,-11.3648,0.1406,0.0226,-0.1251,89,1.13,21,8.3693,2.2137,-10.489,-0.0951,-0.4474,-0.139,51
1.362,26,9.7719,0.5805,-11.1851,0.1425,-0.1795,-0.2235,89,1.182,22,8.0661,2.6319,-10.697,-0.679,-0.7131,-0.2335,51
1.414,27,10.0621,1.0618,-11.772,0.174,-0.5387,-0.2521,89,1.234,23,7.4101,3.0524,-11.3387,-0.346,-1.011,-0.3481,51
1.466,28,10.3165,1.169,-11.7191,0.103,-1.0665,-0.3112,89,1.286,24,7.2843,2.9385,-11.8808,-0.2796,-1.3969,-0.8415,51
1.517,29,12.5545,0.812,-11.8036,-0.3072,-1.4518,-0.4616,89,1.338,25,8.0757,3.4748,-12.7876,-0.2236,-1.3082,-1.1364,51
1.569,30,12.28,1.4279,-15.3656,-0.3522,-1.733,-0.7134,89,1.389,26,9.2835,3.8331,-13.0551,-0.2928,-0.6197,-0.8909,51
1.621,31,12.2081,1.156,-16.8673,-0.0168,-1.9382,-1.1651,89,1.441,27,11.8359,3.9072,-12.8029,0.4078,0.1634,-0.0415,51
1.673,32,10.3534,1.1329,-16.2658,0.489,-2.0802,-1.3479,89,1.493,28,9.6469,4.6511,-10.7459,0.3416,-0.5476,-0.1779,51
1.725,33,7.3253,1.1042,-14.5116,0.4291,-1.8945,-1.4559,89,1.545,29,7.4757,1.0691,-5.8319,0.924,0.2853,0.2792,51
1.776,34,4.9861,0.3924,-12.7804,0.3103,-1.7301,-1.4638,89,1.596,30,6.3108,2.6341,-12.2375,-0.0027,0.8932,0.7,51
1.828,35,6.861,0.3319,-11.9127,0.3686,-1.6818,-1.2179,89,1.648,31,9.7232,-3.3743,-6.3238,0.348,-0.0149,0.1663,51
1.88,36,6.6729,0.1072,-12.797,0.2654,-1.0798,-0.7384,89,1.7,32,10.4265,-2.2142,-10.2222,0.4024,-0.6776,-0.411,51
1.931,37,6.2245,1.7592,-16.0339,0.2032,-0.1097,-0.6059,89,1.752,33,11.4824,-0.7488,-11.8171,-0.0244,-0.0273,-0.8192,51
1.983,38,6.1013,3.0972,-19.7071,0.1435,0.5564,-0.2412,89,1.804,34,12.1415,0.5138,-10.6248,0.5776,0.4808,-0.6381,51
2.035,39,3.9417,2.1036,-20.36,0.1352,0.5685,-0.2791,89,1.856,35,13.325,1.9369,-8.8728,1.0819,-0.3022,-0.7696,51
2.087,40,1.5687,1.0118,-19.7386,0.6145,0.4903,-0.4717,89,1.907,36,9.8862,-3.5916,-3.868,1.4643,0.4305,-1.0381,51
2.139,41,0.1602,1.5223,-18.3176,0.3837,0.3104,-0.5928,89,1.959,37,8.7603,-3.241,-10.8042,0.3916,0.9992,-0.3866,51
2.19,42,2.1924,2.3555,-16.987,0.1532,-0.2586,-0.6968,89,2.011,38,1.241,2.9267,-5.2776,0.1288,0.2421,-0.1458,51
2.242,43,4.9042,1.9773,-16.2596,0.2015,-0.7147,-0.8465,89,2.063,39,5.4282,0.6395,-9.3981,-0.0259,-0.4901,-0.7384,51
2.294,44,6.0694,2.4862,-17.4868,0.6664,-0.1294,-0.8704,89,2.115,40,7.4674,2.2618,-10.6758,0.1317,-0.2406,-0.6072,51
2.346,45,6.2983,3.2127,-20.7675,-0.134,0.2469,-0.2717,89,2.166,41,10.5674,-1.9942,-5.236,0.7343,0.2569,-0.0612,51
2.398,46,5.5432,4.3227,-21.8198,-0.3023,0.1166,0.0629,89,2.218,42,10.4656,-1.6693,-8.3423,1.2106,-0.3738,-0.1335,51
2.449,47,3.0378,2.3959,-20.7026,0.1685,0.1759,0.0917,89,2.27,43,5.4394,-6.3875,-3.4975,0.7579,0.4121,0.5196,51
2.502,48,0.7612,1.8634,-18.584,0.3375,0.0207,-0.4113,89,2.322,44,5.6785,0.134,-10.531,-0.1239,0.9858,0.7323,51
2.553,49,1.119,1.4929,-16.635,0.016,-0.4267,-0.8761,89,2.373,45,0.675,1.2177,-15.6672,-0.7675,0.3581,0.3809,51
2.605,50,4.0337,1.7967,-15.006,0.0639,-0.8851,-0.7079,89,2.425,46,0.9852,4.4974,-16.0605,-0.2523,-0.4054,-0.3759,51
2.657,51,3.5578,1.3075,-16.0189,0.6489,-0.3043,-0.2162,89,2.477,47,4.3432,4.1041,-15.7919,-0.1405,-0.3206,-0.5822,51
2.708,52,3.3021,3.0885,-19.6962,0.8696,0.3458,0.4497,89,2.529,48,8.2871,7.9122,-12.5006,-0.0132,0.1407,-0.8274,51
2.76,53,1.5469,2.3837,-21.028,0.6627,0.4309,0.5369,89,2.581,49,9.4765,6.3113,-11.7769,0.3571,-0.5361,-0.6643,51
2.812,54,0.4665,1.2889,-21.5692,0.4229,0.1629,0.2556,89,2.632,50,6.005,-0.4809,-5.9876,0.4911,0.2725,-0.4288,51
2.864,55,0.0767,0.8486,-20.2238,0.2183,-0.3508,0.1072,89,2.684,51,7.7984,2.4265,-12.0103,-0.0595,0.8839,-0.2625,51
2.916,56,2.1216,0.2826,-18.2417,0.1033,-0.9294,0.4605,89,2.736,52,3.4604,2.7445,-16.7469,-0.7205,0.2102,0.0169,51
2.967,57,5.7671,0.5181,-16.3309,0.1266,-1.3517,0.6968,89,2.787,53,2.7346,2.9151,-16.6689,-0.1453,-0.5134,-0.5016,51
3.019,58,6.7065,1.0574,-15.7886,0.6156,-0.8749,0.4331,89,2.839,54,4.8353,3.3868,-16.369,-0.1929,-0.6605,-0.8807,51
3.071,59,4.6992,2.7105,-19.179,-0.1964,0.0398,0.5835,89,2.891,55,8.3261,3.0172,-15.5801,-0.1283,-0.2017,-0.3906,51
3.123,60,3.2086,4.8506,-22.0026,-0.2892,0.5704,0.5693,89,2.943,56,5.3029,0.0332,-10.3171,0.581,-0.0666,-0.2594,51
3.175,61,-0.644,3.6184,-22.9547,-0.8863,0.1022,0.3445,89,2.995,57,7.8172,1.4121,-9.8635,1.0152,-0.5947,-0.4601,51
3.226,62,-1.0184,2.3129,-19.8477,0.0242,-0.5474,-0.2751,89,3.046,58,5.6626,-0.1629,-7.0805,1.4156,0.2509,-0.0835,51
3.278,63,-0.0772,2.1144,-16.7936,0.0188,-0.9536,-0.5562,89,3.098,59,5.0077,2.5487,-13.1489,0.3561,0.8681,0.4916,51
3.33,64,1.3033,1.0681,-14.6168,0.2209,-1.0809,-0.6518,89,3.15,60,2.7183,6.9862,-14.8765,-0.4172,0.0706,0.2888,51
3.382,65,3.5514,1.103,-12.7956,0.2242,-0.9452,-0.5033,89,3.202,61,5.1676,4.3492,-16.8349,-0.3717,-0.6153,-0.2738,51
3.434,66,5.121,2.2319,-13.9046,0.4194,-0.0115,-0.0904,89,3.254,62,7.2241,4.4593,-16.5158,-0.2279,-0.1723,-0.1865,51
3.485,67,3.6665,4.7964,-18.1531,-0.2584,0.67,0.6118,89,3.306,63,10.3897,3.3056,-13.2146,0.0796,0.5125,-0.0115,51
3.537,68,3.4692,5.755,-21.2538,0.0126,0.9558,0.9937,89,3.358,64,11.7452,4.8373,-10.6629,0.5239,-0.2927,-0.1552,51
3.589,69,1.8143,4.8359,-22.1661,-0.039,0.5859,0.7371,89,3.409,65,8.0582,-0.7784,-5.1745,1.0571,0.2917,-0.5629,51
3.641,70,0.0838,3.9999,-20.4893,0.1965,-0.0723,0.3368,89,3.461,66,7.7811,0.7901,-6.0785,0.1731,0.8978,-0.3417,51
3.692,71,1.9249,3.027,-18.605,0.292,-0.7261,0.1393,89,3.513,67,6.2442,5.681,-12.4176,-0.5507,0.6649,0.0864,51
3.744,72,5.1646,3.1814,-16.2969,0.5444,-1.2034,-0.111,89,3.564,68,-0.9153,9.4384,-7.4317,0.2727,-0.1815,-0.6083,51
3.796,73,8.1913,1.7562,-16.8088,0.6367,-0.5954,0.3525,89,3.616,69,3.2286,7.5057,-10.4258,0.6061,-0.5771,-0.3954,51
3.848,74,5.002,3.3549,-18.7615,0.2197,0.2438,0.9293,89,3.668,70,7.454,6.0827,-5.0014,0.5245,-0.5477,-0.132,51
3.9,75,4.0806,6.5336,-21.6978,0.2934,0.8563,1.3082,89,3.72,71,9.0476,7.7892,-2.9421,1.0575,-0.7282,0.1966,51
3.952,76,2.8023,3.9108,-21.9755,-0.4365,0.2085,0.8723,89,3.772,72,5.7086,4.8676,-3.3483,0.2026,-0.7443,0.1713,51
4.003,77,2.0482,2.3599,-19.5099,-0.5547,-0.4147,0.3349,89,3.823,73,4.9712,2.0253,-2.567,0.6582,0.1417,0.1029,51
4.055,78,1.2206,1.7462,-17.6529,0.2629,-0.8734,-0.1198,89,3.875,74,4.0252,2.6077,-6.831,0.0172,0.5628,0.2207,51
4.107,79,1.0763,1.4166,-14.833,0.1666,-1.1789,-0.4475,89,3.927,75,8.0551,-0.5625,-2.3778,-0.6641,0.5722,0.734,51
4.159,80,3.3004,1.3407,-13.2757,-0.1445,-1.4143,-0.8596,89,3.979,76,9.1885,1.4174,-6.0969,-0.5859,0.0085,-0.1357,51
4.211,81,3.8705,2.3781,-16.4248,-0.226,-0.378,-0.9121,89,4.03,77,11.8234,1.2332,-6.0132,-0.21,0.4344,-0.0853,51
4.262,82,5.0776,3.4938,-19.9924,-0.8402,0.3848,-0.2217,89,4.082,78,12.8983,4.7054,-8.4313,0.5214,-0.2619,-0.6243,51
4.314,83,-1.0115,1.3148,-22.1025,-0.0194,0.9592,-0.4926,89,4.134,79,11.7596,-1.8626,-3.5458,1.054,-0.1874,-0.9254,51
4.366,84,-0.8708,2.7595,-21.4666,-0.0336,0.6457,-0.6457,89,4.186,80,6.9129,-1.5843,-5.4026,1.1096,0.5482,0.005,51
4.418,85,1.0348,0.9111,-20.3616,0.0677,-0.2022,-0.3494,89,4.238,81,5.9588,4.1359,-11.9242,0.1328,0.7545,0.684,51
4.47,86,6.021,2.2486,-18.1099,0.6046,-0.8209,-0.4278,89,4.289,82,7.8822,2.2266,-13.6429,-0.4117,-0.1161,0.0519,51
4.521,87,8.952,3.6043,-17.581,0.6822,-0.1914,-0.4014,89,4.341,83,8.0385,3.4118,-13.7789,-0.2154,-0.1519,-0.1781,51
4.573,88,7.2621,4.7113,-20.6703,0.3563,0.5387,0.2759,89,4.393,84,10.9842,1.638,-13.0366,-0.0929,0.3261,0.5297,51
4.625,89,5.6325,5.5788,-23.091,0.4435,1.0715,0.6179,89,4.445,85,10.5859,2.5064,-11.3413,0.5443,-0.4123,0.1693,51
4.677,90,-0.6554,4.1223,-22.5325,0.5667,1.4521,0.6744,89,4.497,86,8.5262,-3.4675,-5.6697,1.0458,0.0985,0.103,51
4.728,91,-2.2407,4.2885,-20.3071,0.2762,0.8683,0.2136,89,4.548,87,7.1376,-0.5642,-6.5994,0.5381,0.7569,0.4575,51
4.78,92,-0.4596,4.5381,-18.2494,0.0762,0.1214,-0.499,89,4.6,88,3.2338,4.8804,-12.7977,-0.2459,0.9022,0.7894,51
4.832,93,3.3632,4.4163,-16.2551,0.1106,-0.3783,-0.9922,89,4.652,89,-2.2687,6.0073,-12.1113,0.4375,-0.0083,-0.0952,51
4.884,94,4.4625,2.9881,-16.2285,0.1262,0.3158,-0.9223,89,4.704,90,0.211,6.6682,-13.334,0.5056,-0.2538,-0.4286,51
4.936,95,4.0892,3.4625,-18.2124,-0.437,0.9089,-0.082,89,4.756,91,5.1032,5.7746,-12.7977,0.4664,0.4475,0.3676,51
4.987,96,5.6868,4.7483,-20.4511,-0.1401,1.3402,0.4786,89,4.807,92,8.8419,7.5698,-7.1481,1.0151,-0.247,-0.0498,51
5.039,97,4.8012,4.2665,-21.8487,0.1316,1.3681,0.7044,89,4.859,93,9.0694,5.163,-2.6093,1.4155,-0.018,-0.5241,51
5.091,98,1.7691,4.2006,-21.7276,0.0035,0.9309,0.5941,89,4.911,94,7.1322,2.6303,-3.0815,0.3561,0.6718,-0.1266,51
5.143,99,0.543,2.5288,-20.7597,-0.0398,0.0698,0.343,89,4.963,95,4.2285,7.2118,-10.2302,-0.4172,0.481,0.588,51
5.195,100,2.2674,3.4745,-18.0339,-0.6632,-0.6225,0.2224,89,5.015,96,8.1359,5.83,-9.1969,-0.0108,-0.3157,-0.2423,51
5.246,101,6.6258,3.8067,-17.6622,-0.1066,-1.1277,0.2564,89,5.066,97,8.8014,5.904,-10.5962,0.1738,-0.5446,-0.5056,51
5.298,102,8.5091,4.9841,-18.4222,-0.6936,-0.2179,0.7852,89,5.118,98,11.541,5.3125,-10.9186,-0.268,-0.1181,0.0796,51
5.35,103,8.5513,3.4614,-21.3573,-0.6419,0.4365,1.2508,89,5.17,99,13.5404,3.0952,-5.3611,0.4791,-0.5198,-0.4608,51
5.402,104,5.1798,7.8782,-21.8541,-0.6031,0.757,1.3526,89,5.222,100,14.1196,-3.0378,-1.8409,0.6013,-0.6236,-0.2918,51
5.454,105,1.8305,6.3863,-20.5896,-0.9132,0.3385,1.0879,89,5.273,101,10.0636,-1.4514,0.2433,1.1135,0.2298,0.3541,51
5.506,106,0.1479,4.8576,-18.7881,-0.3941,-0.4263,0.7798,89,5.325,102,9.0502,4.0827,-6.1693,0.1356,0.8527,0.807,51
5.557,107,1.3291,3.5555,-17.0715,-0.5217,-0.9846,0.4182,89,5.377,103,7.4818,8.2719,-3.4733,0.436,-0.0301,-0.0824,51
5.609,108,1.6732,1.6086,-17.0932,0.05,-0.8508,-0.0914,89,5.429,104,8.1762,7.3213,-7.0147,0.2388,-0.4758,-0.5964,51
5.661,109,3.5795,1.992,-19.3379,0.0088,0.0157,0.1698,89,5.481,105,10.1158,5.7607,-8.8654,-0.0465,0.2681,-0.1518,51
5.713,110,4.8555,1.707,-22.1185,0.0437,0.5424,0.8017,89,5.532,106,8.8807,0.8843,-7.982,0.4638,0.2325,-0.1776,51
5.765,111,2.8223,4.7277,-21.5024,-0.0691,0.851,1.2628,89,5.584,107,8.1554,-2.2008,-7.6607,-0.3386,-0.4971,0.3993,51
5.816,112,1.4784,4.2227,-19.7933,-0.7256,0.5458,1.5109,89,5.636,108,5.3272,-1.7913,-6.0901,0.0086,0.0607,0.9718,51
5.868,113,0.7559,2.7745,-17.9154,-0.3151,-0.1026,1.5382,89,5.688,109,4.3972,3.9848,-12.426,-0.6708,-0.4947,1.1571,51
5.92,114,0.5666,2.5405,-16.0958,0.4466,-0.5572,1.3904,89,5.74,110,8.3265,-2.3885,-17.0503,-0.0362,-0.7243,0.4673,51
5.972,115,-0.3808,1.7418,-15.7659,0.581,-0.4811,1.1161,89,5.791,111,7.7385,-1.5882,-18.0643,-0.1091,-1.0912,0.1182,51
6.023,116,1.0519,0.8411,-17.5751,0.3915,-0.2435,1.1699,89,5.843,112,7.9723,-0.9539,-17.4877,0.0427,-0.3489,-0.5665,51
6.075,117,4.6415,-0.2661,-18.451,-0.2462,-0.0812,1.4976,89,5.895,113,6.5785,0.7055,-16.5299,-0.1154,0.3473,-0.4922,51
