right_leg_timestamp,right_leg_index,right_leg_accel_x,right_leg_accel_y,right_leg_accel_z,right_leg_gyro_x,right_leg_gyro_y,right_leg_gyro_z,right_leg_battery_percentage,left_leg_timestamp,left_leg_index,left_leg_accel_x,left_leg_accel_y,left_leg_accel_z,left_leg_gyro_x,left_leg_gyro_y,left_leg_gyro_z,left_leg_battery_percentage
0.003,0,9.375,-1.1598,-13.531,0.0285,0.0221,0.0867,88,0.054,1,8.9618,0.2575,-18.7746,0.8396,-1.1463,0.0823,52
0.054,1,9.4363,-0.9954,-13.4853,-0.023,0.1392,-0.0971,88,0.106,2,8.1297,0.5804,-19.3377,0.709,-1.1712,0.2056,52
0.106,2,8.7764,-1.2353,-13.1707,-0.0201,0.4272,-0.1358,88,0.158,3,6.0103,1.1518,-17.3216,-0.0169,-1.1841,0.269,52
0.158,3,9.2527,-0.7504,-12.5153,-0.0768,0.8958,-0.396,88,0.209,4,3.8768,0.7143,-15.0632,-0.6894,-0.9827,0.4162,52
0.21,4,9.3065,0.1345,-11.71,-0.1585,0.8487,-0.5138,88,0.261,5,2.3658,-0.5267,-13.0823,-0.9501,-0.7465,0.5092,52
0.262,5,9.2299,0.3204,-11.2146,-0.2218,0.393,-0.5399,88,0.313,6,4.6281,-1.2942,-11.9155,-0.0317,-0.5256,0.6455,52
0.313,6,9.6004,0.6803,-11.6258,-0.0319,-0.23,-0.64,88,0.365,7,8.4951,-1.2796,-15.2607,0.4312,0.2729,0.5366,52
0.365,7,10.098,0.86,-11.3921,-0.1959,-0.7409,-0.3909,88,0.417,8,11.3174,-1.9639,-19.1191,-0.1527,0.8841,0.4006,52
0.417,8,12.6357,-1.5084,-13.2722,-0.6165,-1.0407,-0.5407,88,0.468,9,9.8137,-1.2343,-21.5879,0.4511,1.0157,0.1173,52
0.469,9,12.1904,-2.5078,-14.4296,-0.88,-0.7277,-1.0276,88,0.52,10,3.6379,0.4747,-20.4555,0.1474,1.0205,0.0329,52
0.52,10,9.0621,-3.8631,-12.8473,-0.9154,0.0216,-0.7538,88,0.572,11,-0.5744,0.8694,-17.9168,-0.3929,0.7504,0.2001,52
0.572,11,2.4126,-4.3705,-13.2702,-0.7287,-0.1295,0.1276,88,0.624,12,-1.8409,0.0985,-15.5237,-0.6682,0.6377,0.5191,52
0.624,12,7.0266,2.1621,-7.1726,-0.0311,-0.7679,0.5553,88,0.675,13,0.2657,-0.7873,-13.0969,-0.3453,0.7256,0.6233,52
0.676,13,7.0972,6.9299,-7.9868,0.0246,-1.2339,0.236,88,0.727,14,4.8669,-1.2091,-11.5133,-0.142,0.8577,0.3794,52
0.728,14,8.1881,5.5591,-9.1247,-0.1104,-0.9956,0.1526,88,0.779,15,8.6694,-1.5463,-12.9252,0.5707,1.2859,0.0372,52
0.779,15,11.2418,2.9526,-10.5251,-0.3666,-0.7347,-0.2136,88,0.831,16,11.006,-6.4253,-17.4146,-0.0478,1.0243,0.2854,52
0.831,16,11.6495,-2.1286,-12.8013,-0.5114,-0.3119,-0.8036,88,0.883,17,10.1248,-5.4643,-17.4079,0.4095,0.6768,0.3193,52
0.883,17,8.7247,-6.7184,-12.4105,-0.0325,-0.238,-0.406,88,0.934,18,5.482,-0.2083,-17.8988,0.2318,0.3909,0.3664,52
0.935,18,1.794,-8.863,-11.0564,-0.5474,0.4763,0.3814,88,0.986,19,1.0448,0.331,-17.2498,-0.2823,-0.1371,0.2564,52
0.987,19,6.5751,-2.4812,-10.6399,0.277,-0.3258,0.9516,88,1.038,20,1.3469,-0.308,-15.1665,-0.6706,-0.5998,0.0836,52
1.038,20,2.817,-7.0479,-8.0414,-0.4693,-0.3917,0.2599,88,1.09,21,6.1003,-1.7095,-11.142,-0.7191,-0.7991,0.0042,52
1.09,21,4.6243,-2.2913,-12.7258,-0.0955,-0.9592,0.0321,88,1.142,22,9.5696,-0.9481,-9.4474,0.1115,-0.467,-0.4479,52
1.142,22,6.0948,0.2729,-13.061,-0.2459,-0.7377,-0.25,88,1.193,23,12.1016,-0.7483,-10.7802,0.5398,0.3442,-0.9635,52
1.194,23,9.714,-0.4171,-13.3097,-0.471,-0.3119,-0.7002,88,1.245,24,13.9496,-2.0724,-15.6454,0.7117,0.9361,-1.3191,52
1.246,24,8.9452,-3.5928,-13.1862,0.1297,-0.0166,-1.185,88,1.297,25,11.761,-2.6153,-18.8021,0.4096,0.7906,-0.9084,52
1.297,25,4.5216,-5.6384,-12.3535,-0.576,0.6662,-0.2849,88,1.349,26,3.6121,-1.763,-19.6113,0.0466,0.1401,-0.2406,52
1.349,26,5.7902,-3.3492,-10.1161,0.0989,-0.1872,0.4698,88,1.401,27,-0.9641,-1.2388,-16.8018,-0.6384,-0.2666,0.1706,52
1.401,27,5.3288,2.9075,-14.1854,0.7487,-0.0593,0.1517,88,1.452,28,-0.1223,-1.2371,-14.3788,-0.787,-0.1057,0.2607,52
1.453,28,2.6329,-0.7303,-15.6021,0.3029,-0.3788,-0.5633,88,1.504,29,5.0281,-2.1981,-12.3678,-0.4305,-0.0701,0.1298,52
1.505,29,7.1873,0.1527,-14.5667,-0.0465,-0.2357,-0.8093,88,1.556,30,8.787,-2.3841,-10.7853,-0.2647,-0.4881,0.1618,52
1.557,30,9.1592,-1.1799,-13.4315,0.0839,-0.8455,-0.5377,88,1.608,31,11.5304,-3.1664,-10.9623,0.3977,-0.2277,-0.205,52
1.608,31,8.5288,-4.8819,-12.2638,-0.2142,-0.3463,-0.9072,88,1.66,32,12.2019,-3.9263,-13.3169,0.7703,0.14,-0.5845,52
1.66,32,8.4643,-6.3399,-13.699,-0.0988,-0.1198,-1.3362,88,1.711,33,8.3351,-3.0685,-15.8234,0.5758,0.2011,-0.4578,52
1.712,33,3.509,-9.8642,-10.9896,-0.7473,0.591,-0.3103,88,1.763,34,2.2349,-1.7889,-16.4641,0.291,0.0348,-0.0223,52
1.764,34,1.2954,-7.0548,-10.0399,-0.0184,-0.2421,0.4513,88,1.815,35,0.3818,-1.6012,-16.0124,-0.3183,-0.1275,0.2989,52
1.816,35,6.2112,0.203,-15.3325,0.662,-0.8501,0.3168,88,1.867,36,2.5895,-1.905,-14.4606,-0.4351,-0.1666,0.6157,52
1.867,36,0.609,5.5001,-18.9751,1.1398,-1.0817,-0.366,88,1.918,37,5.1632,-2.1236,-12.7702,-0.8462,-0.5778,0.7585,52
1.919,37,2.9396,4.6263,-17.1309,0.691,-1.1281,-0.7205,88,1.97,38,8.8856,-1.3614,-11.6689,-0.3805,-0.7421,0.3913,52
1.971,38,7.4112,1.2809,-15.4712,0.885,-0.9964,-1.0734,88,2.022,39,11.6024,-1.6666,-12.9749,0.397,-0.4774,-0.368,52
2.023,39,7.9892,-4.3022,-14.8797,1.3145,-0.6124,-1.4574,88,2.074,40,11.6807,-3.498,-14.2774,0.4925,-0.2415,-0.9184,52
2.075,40,5.3018,-7.5406,-14.7214,0.847,0.1156,-0.5564,88,2.126,41,7.1417,-3.4749,-14.2752,0.294,-0.193,-0.8761,52
2.126,41,3.2895,-8.5672,-12.9643,-0.057,-0.3541,0.2716,88,2.177,42,1.9781,-4.4246,-14.5688,-0.2445,0.0681,-0.4467,52
2.178,42,6.9401,-2.333,-9.1323,0.3119,-0.9169,0.876,88,2.229,43,1.3582,-4.4276,-13.9803,-0.2507,0.2224,0.3414,52
2.23,43,10.331,-6.8669,-4.0811,0.2106,-0.0633,1.0271,88,2.281,44,4.1977,-2.8666,-13.2242,-0.8601,-0.1068,0.8545,52
2.282,44,6.4883,-1.2211,-7.2504,0.6037,0.2955,0.077,88,2.333,45,8.1809,-3.1516,-10.3137,-0.8695,-0.7053,0.5572,52
2.333,45,7.9252,-0.1638,-7.9312,0.4711,0.5199,-0.4534,88,2.384,46,11.0881,-2.9607,-9.7348,0.0401,-0.3355,-0.1449,52
2.385,46,11.0499,-5.3532,-12.9559,0.798,-0.2756,-0.9435,88,2.436,47,13.2099,-3.4915,-13.3139,0.5358,0.1433,-0.7362,52
2.437,47,10.2073,-5.6395,-15.7439,0.677,0.2871,-1.3626,88,2.488,48,11.2119,-2.7749,-15.6603,0.9715,-0.0738,-0.8118,52
2.489,48,6.3997,-9.353,-16.2572,0.0088,-0.1534,-0.6285,88,2.54,49,4.4282,-1.6274,-16.5818,0.5587,-0.2794,-0.4403,52
2.541,49,3.8779,-8.467,-12.6492,-0.0227,-0.7349,0.219,88,2.592,50,0.6062,-1.373,-15.6735,-0.2693,-0.5782,0.0044,52
2.592,50,6.2923,-2.3649,-10.4386,0.66,-1.1331,0.8224,88,2.643,51,0.3407,-1.9902,-14.4964,-0.8288,-0.7436,0.4301,52
2.644,51,2.2926,-6.9631,-15.6234,0.8203,-0.4104,-0.0738,88,2.695,52,3.5716,-3.059,-13.1341,-1.0011,-0.7841,0.8403,52
2.696,52,6.939,-3.2743,-11.0826,0.2304,-0.9701,-0.4061,88,2.747,53,7.724,-2.7039,-13.7579,-0.8282,-0.7287,0.9094,52
2.748,53,10.2805,-3.7583,-9.3217,0.5347,-1.3721,-0.6166,88,2.799,54,10.7546,-2.4835,-14.8212,0.0528,-0.2647,0.3641,52
2.8,54,10.7247,-4.9762,-10.3354,0.3502,-0.5104,-0.9799,88,2.851,55,12.9665,-3.2086,-17.435,0.7132,0.0961,-0.4057,52
2.851,55,8.8145,-5.5753,-11.3927,0.7297,0.266,-1.3892,88,2.902,56,11.4774,-4.3532,-18.4829,1.1548,-0.3568,-0.7621,52
2.903,56,5.4544,-8.5387,-11.5392,-0.1427,0.6491,-0.3463,88,2.954,57,4.6852,-3.531,-17.881,0.788,-0.8093,-0.1732,52
2.955,57,6.4324,-8.9598,-8.4033,-0.2385,-0.1997,0.425,88,3.006,58,-0.0322,-2.3469,-16.2499,-0.1013,-1.1215,0.5539,52
3.007,58,6.9064,-1.2019,-11.6334,0.5024,-0.7591,0.9464,88,3.058,59,-0.431,-1.9474,-14.7366,-0.751,-1.2499,1.0385,52
3.059,59,4.5339,-6.1142,-13.2406,0.3133,-0.4821,0.0167,88,3.11,60,4.2003,-2.2194,-13.9727,-1.2252,-0.987,1.2029,52
3.111,60,8.5748,-3.4455,-13.0015,-0.065,0.3265,-0.473,88,3.161,61,8.1828,-1.8312,-14.6473,-0.5288,-1.2334,0.6678,52
3.162,61,11.524,-3.2747,-11.4981,0.0119,-0.4351,-0.8099,88,3.213,62,10.4613,-1.2938,-18.2663,-0.0436,-0.6523,-0.0592,52
3.214,62,13.6765,-4.9445,-12.3963,0.0197,-0.2021,-0.8982,88,3.265,63,10.4999,-1.3986,-21.3127,0.4337,0.0788,-0.7146,52
3.266,63,13.077,-6.3833,-14.342,0.3267,0.3657,-1.3224,88,3.317,64,7.425,-3.1654,-21.7436,0.6246,0.3061,-1.193,52
3.318,64,8.8782,-8.891,-16.4225,-0.4368,0.1843,-0.2927,88,3.368,65,1.9262,-4.1517,-19.4204,0.2612,0.2647,-0.7204,52
3.369,65,2.1745,-11.7261,-14.5106,-0.994,-0.5389,0.4641,88,3.42,66,-0.3512,-3.9566,-16.7321,0.3301,0.1575,0.1361,52
3.421,66,5.1544,-3.2063,-18.5953,-0.0489,-1.0667,0.688,88,3.472,67,0.0418,-2.5259,-14.9398,-0.0899,0.1816,0.7797,52
3.473,67,0.8755,-4.9406,-20.4967,-0.7109,-0.1002,0.0309,88,3.524,68,3.8622,-1.8774,-14.079,-0.7427,0.0752,1.0735,52
3.525,68,5.9047,-3.0038,-19.0428,-0.823,0.3898,0.0961,88,3.575,69,7.9361,0.3215,-15.7352,-0.0443,-0.0557,0.7289,52
3.577,69,9.5753,-3.3824,-17.5645,-0.1859,-0.1263,-0.4894,88,3.627,70,10.9094,1.2572,-17.6259,0.0503,0.6126,0.3574,52
3.628,70,10.9135,-5.0134,-18.9932,-0.3795,0.4179,-0.9357,88,3.679,71,11.99,0.0267,-20.8107,0.3876,1.1321,-0.0785,52
3.68,71,2.641,0.1783,-19.3927,0.3995,0.9833,-0.1617,88,3.731,72,9.0617,-0.2601,-20.9931,0.6726,1.1898,-0.3833,52
3.732,72,0.4595,-2.8956,-18.9107,-0.2947,0.1548,0.5243,88,3.782,73,3.566,0.0609,-19.3989,0.6288,1.0643,-0.408,52
3.784,73,0.3726,-2.7941,-16.0703,-0.2175,-0.5605,1.0604,88,3.834,74,0.2956,-0.0951,-17.4507,0.0912,0.8199,-0.09,52
3.836,74,0.6608,3.3126,-14.6273,0.124,-1.0824,1.4508,88,3.886,75,0.0954,-0.3539,-15.631,-0.1873,0.5959,0.1992,52
3.887,75,-3.0713,0.2451,-11.8656,0.2825,-0.1117,0.3849,88,3.938,76,2.5382,-0.6653,-14.4938,-0.0382,0.4637,0.3439,52
3.939,76,1.2447,1.5083,-10.5654,0.0497,0.5759,0.3001,88,3.99,77,6.9698,0.6894,-14.7485,-0.5064,0.0969,0.4203,52
3.991,77,6.1742,-0.1556,-10.4939,0.2968,0.0526,0.2598,88,4.041,78,10.2041,1.0825,-14.1562,-0.414,0.1085,0.317,52
4.043,78,7.7706,-2.5451,-13.3549,-0.227,0.1147,0.0131,88,4.093,79,12.5647,1.0962,-14.8987,0.3699,0.4727,-0.1788,52
4.095,79,8.3697,-4.2048,-12.8155,-0.6691,0.3623,-0.4934,88,4.145,80,10.7789,1.0313,-16.4437,0.3905,0.4783,-0.5134,52
4.146,80,0.7844,-8.3059,-13.7403,-1.1635,-0.1801,-0.3529,88,4.197,81,4.9432,-0.3077,-17.5316,-0.0538,0.1283,-0.2393,52
4.198,81,1.569,-7.6546,-14.4642,-1.3854,-0.8048,0.4202,88,4.248,82,1.2028,-2.0285,-17.0109,-0.7164,-0.4773,0.5032,52
4.25,82,5.2425,-0.2348,-7.9725,-0.6724,0.0879,-0.0824,88,4.508,87,9.0928,-5.0374,-17.4675,0.3914,0.3949,-0.6068,52
4.302,83,4.57,-0.2752,-5.0721,-0.6676,0.7425,-0.7342,88,4.559,88,4.6176,-5.3962,-16.7684,0.0415,0.9732,-0.2264,52
4.354,84,8.6011,-0.4497,-5.1,-0.9551,-0.1315,-0.5831,88,4.611,89,1.2886,-3.9272,-15.1128,-0.5013,1.369,0.5151,52
4.405,85,11.5432,-1.4078,-6.9435,-0.5608,-0.658,-1.0661,88,4.663,90,3.43,-1.2494,-14.8902,-0.7458,1.6841,1.0453,52
4.457,86,12.7853,-3.0122,-11.4249,-0.5194,0.0128,-1.3635,88,4.715,91,3.249,-0.8772,-14.2723,-1.2214,1.6156,1.0029,52
4.509,87,8.9312,-5.4926,-13.4533,-0.2541,0.6877,-1.1197,88,4.766,92,3.0827,4.652,-7.8088,-0.2196,0.8654,0.8457,52
4.561,88,1.3393,-8.8371,-13.6438,-0.8607,0.0303,-0.2194,88,4.818,93,7.3672,-1.0582,-7.5344,0.0104,-0.0352,0.0137,52
4.613,89,-1.9828,-2.8824,-10.0539,0.0484,-0.6513,0.5176,88,4.87,94,0.4177,-1.0644,-9.5496,0.4954,0.3059,-0.2141,52
4.664,90,3.8186,-7.3408,-15.3427,0.7118,-1.0424,0.7176,88,4.922,95,1.0595,-2.0887,-9.7788,-0.3155,0.9065,0.0638,52
4.872,94,6.3714,0.4285,-20.5034,-0.4232,0.2827,-0.7719,88,4.974,96,1.4008,-2.4136,-11.5715,-0.9074,1.3465,0.6792,52
4.975,96,0.8566,-4.4719,-20.1642,-0.0417,-0.4716,-0.1192,88,5.025,97,2.7158,-0.3642,-12.5884,-1.3393,1.6677,1.1647,52
5.027,97,5.8909,2.0881,-12.1327,-0.4543,0.3307,-0.4231,88,5.077,98,3.9301,-0.0475,-12.591,-1.6546,1.5535,1.5304,52
5.079,98,3.666,2.3473,-15.464,0.2109,0.9127,-0.9828,88,5.129,99,5.8728,1.8729,-12.3945,-1.8846,1.3559,1.6179,52
5.131,99,7.9413,1.9356,-13.0667,-0.0289,1.1074,-0.9108,88,5.181,100,5.5365,2.6179,-14.1218,-1.4564,1.0024,0.9124,52
5.182,100,7.5141,3.8734,-13.1386,0.3022,0.1414,-0.6555,88,5.232,101,6.8343,0.0891,-13.4429,-0.8974,0.8628,0.4647,52
5.234,101,7.1959,1.7203,-13.0873,0.2634,0.1153,-0.2157,88,5.284,102,7.2157,-0.831,-13.3152,-0.7183,0.8982,0.0558,52
5.286,102,7.8023,2.0474,-13.773,-0.1459,0.1269,-0.0407,88,5.336,103,7.8842,0.061,-12.2801,-0.5572,0.8828,-0.1595,52
5.338,103,8.4512,1.4268,-13.641,-0.1027,0.2055,-0.1273,88,5.388,104,8.0988,-0.1163,-12.0281,-0.4205,0.8606,-0.2542,52
5.39,104,8.6766,1.1104,-13.7563,-0.2982,0.2602,-0.3261,88,5.44,105,8.1449,-0.0446,-11.4843,-0.5048,0.7144,-0.2945,52
5.441,105,8.7146,1.7236,-13.5603,-0.4244,0.2819,-0.3612,88,5.491,106,8.3928,0.1342,-11.3322,-0.504,0.4918,-0.3148,52
5.493,106,9.0181,1.7821,-13.6976,-0.5556,0.3609,-0.2617,88,5.543,107,8.5833,0.1784,-11.4067,-0.5096,0.2481,-0.2506,52
5.545,107,8.9406,1.8755,-13.3045,-0.5968,0.4503,-0.1819,88,5.595,108,9.1553,0.6099,-10.2597,-0.5081,0.0268,-0.1385,52
5.597,108,7.8395,3.3719,-15.7861,-1.0702,0.4063,-0.0298,88,5.647,109,8.9568,1.15,-10.6198,-0.356,-0.0364,-0.0594,52
5.649,109,7.9412,3.3059,-16.986,-1.4563,0.2924,0.1041,88,5.698,110,9.4686,0.6531,-11.0917,-0.3536,0.0359,0.0066,52
5.7,110,7.8762,3.2775,-17.8555,-1.7381,0.0744,0.2482,88,5.75,111,9.5744,0.4968,-11.146,-0.349,0.2082,0.0414,52
5.752,111,7.0506,2.2342,-18.3096,-1.9438,-0.2542,0.6202,88,5.802,112,9.3147,0.4826,-10.9389,-0.2479,0.342,0.0415,52
5.804,112,7.3804,-0.3217,-18.6963,-2.0939,-0.5877,1.0777,88,5.854,113,9.0952,0.3939,-10.6843,-0.1591,0.3483,0.0515,52
5.856,113,9.5519,-5.0096,-16.8041,-2.2034,-0.3315,1.4581,88,5.906,114,9.0547,0.4563,-10.4353,-0.0509,0.2092,0.0849,52
5.908,114,9.0408,-3.1743,-14.1167,-0.9316,-0.9153,0.633,88,5.957,115,8.9251,0.4129,-10.2794,0.0071,-0.0346,0.1179,52
5.959,115,8.4686,-1.7481,-14.0886,-0.9185,-0.4489,0.6123,88,6.009,116,9.2186,0.3228,-10.4265,0.0389,-0.3169,0.1986,52
6.011,116,9.4741,-2.3958,-12.4211,-0.6168,-0.494,0.6613,88,6.061,117,8.9463,-0.4022,-11.1333,-0.4178,-0.4255,0.333,52
6.063,117,9.827,-1.5679,-11.9179,-0.3182,-0.4855,0.5308,88,6.113,118,8.8108,-0.4932,-11.8597,-0.982,-0.511,0.5491,52
