right_leg_timestamp,right_leg_index,right_leg_accel_x,right_leg_accel_y,right_leg_accel_z,right_leg_gyro_x,right_leg_gyro_y,right_leg_gyro_z,right_leg_battery_percentage,left_leg_timestamp,left_leg_index,left_leg_accel_x,left_leg_accel_y,left_leg_accel_z,left_leg_gyro_x,left_leg_gyro_y,left_leg_gyro_z,left_leg_battery_percentage
0.108,2,2.9763,-4.2875,-18.5072,-0.1316,-0.3935,-0.2067,91,0.075,1,12.3613,-4.4349,-10.5252,0.6771,0.4579,-0.5381,61
0.159,3,7.438,-2.3659,-11.4607,-0.4689,-0.9595,0.1388,91,0.126,2,5.64,-6.6785,-15.6629,0.4483,0.6783,-0.1927,61
0.211,4,3.941,-1.562,-13.6658,-0.8968,-0.088,0.5261,91,0.178,3,7.501,-3.2072,-13.0589,0.6642,-0.1717,0.5397,61
0.263,5,8.1421,0.3053,-13.3991,-1.2393,0.6141,0.3617,91,0.23,4,3.8151,-1.9631,-9.4847,0.2065,-0.3042,0.6338,61
0.315,6,4.0439,-2.9241,-17.7842,-0.5423,0.6276,-0.3064,91,0.282,5,3.9471,-0.0191,-7.3065,0.3565,-0.075,0.2685,61
0.367,7,3.5661,-2.9859,-18.9276,-0.0394,-0.2154,-0.5044,91,0.334,6,1.0529,-5.3107,-12.8343,-0.0569,-0.3836,0.3908,61
0.418,8,1.1385,-2.7101,-12.2441,0.597,-0.8306,-0.4149,91,0.386,7,5.8858,-1.8614,-12.8922,-0.2707,-0.2375,0.3421,61
0.47,9,3.7248,-2.204,-6.3522,0.4663,-0.1849,-0.284,91,0.437,8,9.413,-2.1334,-9.6581,0.2981,-0.5907,0.2021,61
0.522,10,7.9842,-2.7829,-9.5405,-0.3349,-0.7052,0.2767,91,0.489,9,9.3668,0.545,-8.935,0.1502,-0.6374,0.3591,61
0.573,11,11.093,-1.2406,-10.7597,0.4321,-0.7593,0.0261,91,0.541,10,7.4035,5.6845,-6.3709,-0.5674,0.1796,-0.1472,61
0.626,12,13.3619,0.6155,-10.8962,-0.2472,0.0397,-0.1765,91,0.593,11,8.6182,4.1638,-9.1216,-0.6291,0.816,-0.7765,61
0.677,13,12.8017,-1.0036,-12.3078,0.0405,0.0186,-0.3854,91,0.644,12,6.6191,2.2048,-12.3075,-1.058,1.2006,-1.2373,61
0.729,14,9.7116,-1.7668,-8.5714,-0.5145,0.692,-0.2077,91,0.696,13,3.9848,-3.6668,-16.1382,-1.4492,0.901,-0.7423,61
0.781,15,8.7154,-2.0309,-8.5239,-0.5477,1.1834,-0.0063,91,0.748,14,8.0256,2.616,-12.313,-1.0234,0.0073,-0.6081,61
0.833,16,8.4182,-3.6822,-13.0847,0.2768,1.2984,0.2,91,0.8,15,10.9747,1.0472,-12.8978,-0.7108,-0.0653,-0.2366,61
0.885,17,4.8982,-5.3027,-17.5547,0.8746,0.5826,0.0386,91,0.852,16,13.1271,0.2007,-11.096,-0.4084,0.6373,-0.8441,61
0.936,18,8.8407,-7.3615,-15.956,0.1531,-0.078,0.231,91,0.904,17,10.3461,-5.1503,-16.0796,0.3766,0.8792,-0.7924,61
0.988,19,11.0556,-3.6795,-15.7804,0.1244,0.4424,0.2492,91,0.955,18,11.2327,-4.5475,-18.4869,0.4759,-0.0251,0.102,61
1.04,20,13.3346,-2.6915,-13.4312,-0.399,1.0012,0.2132,91,1.007,19,10.7318,-2.5082,-13.5612,0.9815,-0.6851,0.7548,61
1.091,21,8.9583,-3.7546,-17.8076,-0.1875,0.8264,-0.3499,91,1.059,20,9.1427,0.4609,-8.7186,0.3536,-0.8671,0.5681,61
1.143,22,7.141,-2.854,-19.8751,-0.2586,-0.0703,-0.4593,91,1.111,21,10.697,-2.7602,-12.4879,0.331,-0.6721,0.2667,61
1.195,23,7.5309,-3.2971,-16.0084,-0.4495,-0.7247,-0.4207,91,1.162,22,12.9245,-1.4884,-13.2061,-0.2467,-0.6068,0.4991,61
1.247,24,8.2333,-0.7328,-9.0996,0.3485,-0.8907,-0.3338,91,1.214,23,14.5501,-2.3516,-12.0788,0.4302,-0.1297,0.1739,61
1.299,25,8.2482,1.7617,-9.3486,-0.0459,-0.1672,-0.3151,91,1.266,24,13.0515,-1.3077,-13.1157,0.0941,0.1935,0.1307,61
1.351,26,11.2856,-0.6887,-9.6081,0.5981,-0.4603,-0.1808,91,1.318,25,9.8149,1.5397,-9.8688,0.1928,0.6506,-0.3518,61
1.403,27,13.5025,-1.0978,-11.5694,0.1654,-0.4925,-0.2413,91,1.37,26,9.3517,2.6341,-10.3388,0.2827,1.1598,-0.9111,61
1.454,28,12.7896,-1.7222,-13.5632,-0.4968,0.1395,-0.4271,91,1.421,27,7.8941,1.4266,-12.6846,-0.1082,1.5096,-1.3364,61
1.506,29,8.5775,-0.6565,-8.549,0.2846,0.7216,-0.5609,91,1.473,28,5.9041,-3.7617,-15.7869,-0.756,1.0921,-0.9052,61
1.558,30,9.288,0.0901,-6.8659,-0.2593,1.205,-0.5139,91,1.525,29,7.4307,-1.0003,-8.9142,-1.2289,0.1302,0.0197,61
1.61,31,9.3319,-3.2355,-8.1916,-0.0461,1.5578,-0.1189,91,1.577,30,10.5405,2.8472,-10.8374,-0.4633,-0.2992,-0.4765,61
1.662,32,7.0142,-1.5932,-12.3317,0.6176,1.765,0.0566,91,1.629,31,9.312,0.9724,-12.4388,0.3366,0.3759,-1.0069,61
1.713,33,1.961,-0.26,-14.4255,0.5328,1.9662,-0.0168,91,1.68,32,11.9136,-0.3468,-10.3543,0.2261,0.9593,-1.3338,61
1.765,34,6.697,-1.8182,-7.9443,0.0197,1.9116,0.3813,91,1.732,33,7.4154,-5.5499,-15.5382,0.1575,1.3851,-0.672,61
1.817,35,8.5028,-1.9346,-11.2345,-0.4634,2.0571,0.5962,91,1.784,34,8.2097,-5.4573,-14.6457,0.6653,0.3441,0.1899,61
1.869,36,11.4715,-2.2573,-14.0553,-0.8149,2.0735,0.1182,91,1.835,35,5.2255,-1.5865,-11.6672,0.1356,-0.4156,0.819,61
1.921,37,6.6733,-4.6137,-15.9367,-1.27,0.8399,0.0749,91,1.887,36,4.1221,0.0712,-7.1505,-0.5781,-0.6392,0.7787,61
1.972,38,10.1362,-2.8373,-14.6903,-0.9742,-0.0604,-0.1218,91,1.939,37,8.1258,5.3441,-6.5159,0.2079,-0.4578,-0.0978,61
2.024,39,5.3089,-0.8996,-9.5836,-0.0345,-0.6394,-0.0714,91,1.991,38,11.0479,0.5167,-9.3021,-0.1564,-0.4191,0.139,61
2.076,40,5.7518,1.9674,-6.0481,-0.577,-0.3753,-0.0645,91,2.043,39,13.1805,0.2056,-9.3026,0.1657,0.0586,-0.1891,61
2.128,41,9.4637,-3.8011,-8.3252,-0.3711,0.3947,0.3941,91,2.094,40,10.6742,-1.4123,-11.1603,0.3742,0.103,-0.2141,61
2.18,42,12.1728,2.5777,-10.0401,0.0213,-0.2207,-0.0758,91,2.146,41,10.5108,2.1943,-7.3642,0.2833,-0.1989,-0.221,61
2.231,43,13.973,1.8986,-7.8354,-0.3131,0.4481,0.1039,91,2.198,42,8.7654,3.4993,-6.6365,0.1659,0.2861,-0.6066,61
2.283,44,11.2177,-0.1715,-7.833,0.0998,0.2983,-0.0745,91,2.25,43,7.2755,2.3283,-8.7839,-0.2154,0.7512,-1.1142,61
2.335,45,10.6708,-0.8071,-5.7273,0.6943,0.7196,-0.3325,91,2.302,44,7.8577,-3.5975,-14.3921,0.2076,1.2134,-1.3934,61
2.387,46,9.9697,-1.5599,-5.6378,1.0039,1.2035,-0.5153,91,2.353,45,10.8522,2.6665,-14.1492,0.4932,0.8263,-1.442,61
2.438,47,8.9138,-2.3256,-10.8014,1.0261,1.5567,-0.2627,91,2.405,46,11.089,0.1682,-14.3336,0.6216,0.9438,-1.464,61
2.49,48,4.2181,-2.4564,-15.8882,1.381,1.4376,-0.3794,91,2.457,47,12.8578,-0.1921,-13.0126,0.8424,1.3738,-1.712,61
2.542,49,8.3443,2.2873,-18.4944,0.3382,1.4005,-0.228,91,2.509,48,9.8702,-5.437,-17.4784,1.0759,1.6876,-1.0788,61
2.594,50,0.7659,2.1096,-18.8648,0.0758,1.7005,0.2657,91,2.561,49,11.3905,-3.8425,-18.1424,0.9434,0.5649,-0.107,61
2.645,51,5.8027,-0.7817,-20.1247,-0.6199,1.9195,0.2717,91,2.612,50,8.4263,-0.2029,-10.7148,0.0897,-0.2545,0.5921,61
2.697,52,6.1709,-3.154,-21.0209,-1.1267,0.7295,0.0909,91,2.664,51,9.2786,2.4043,-7.9253,0.3422,-0.1352,0.2582,61
2.749,53,9.5118,-2.9219,-18.103,-0.9804,-0.141,-0.1668,91,2.716,52,11.8892,4.0048,-3.8223,0.9245,-0.0496,-0.1316,61
2.801,54,4.6431,-1.6813,-12.5419,-0.039,-0.7763,-0.2088,91,2.768,53,13.7946,0.8959,-5.9557,0.6653,-0.3785,0.2641,61
2.853,55,7.0631,0.5922,-7.5838,-0.0498,-0.4221,-0.1375,91,2.819,54,15.1852,0.1864,-5.8765,0.7651,-0.3045,-0.0936,61
2.905,56,10.4207,1.1447,-2.951,-0.7116,-0.2795,0.5376,91,2.871,55,10.2547,0.585,-8.27,0.8792,-0.0527,-0.0192,61
2.957,57,12.8713,1.2944,-7.3958,-0.7496,-0.4952,0.3797,91,2.923,56,9.6236,4.7793,-5.6686,0.1506,0.4606,-0.4688,61
3.008,58,10.2123,-0.8183,-7.0133,-1.0596,0.294,0.27,91,2.975,57,9.1746,3.8284,-6.332,-0.2772,1.0211,-0.9384,61
3.06,59,5.8955,-2.1399,-7.5064,-0.268,0.8214,0.0742,91,3.027,58,6.6132,1.7595,-11.513,-0.8189,1.3428,-1.1189,61
3.112,60,6.3684,-1.2938,-5.71,0.1403,1.2779,-0.129,91,3.078,59,6.8749,-4.0126,-16.3839,-0.3467,1.1239,-0.9418,61
3.164,61,7.0663,-1.7626,-7.4346,-0.1525,1.611,-0.0064,91,3.13,60,9.3298,0.2001,-18.5694,0.4217,0.84,-0.7277,61
3.215,62,6.0604,-0.2134,-10.4352,0.1298,1.8541,0.1254,91,3.182,61,6.2641,-1.825,-18.4689,0.4782,1.1674,-1.0477,61
3.267,63,4.2942,0.0106,-14.4428,-0.1103,1.3944,0.048,91,3.234,62,9.6891,-0.7457,-14.2549,0.6675,1.537,-1.4361,61
3.319,64,4.16,-3.8413,-10.0779,-0.6701,1.5365,0.3495,91,3.286,63,4.3495,-5.8411,-18.3851,0.7078,1.6691,-0.8919,61
3.371,65,8.3019,-1.1311,-10.9657,-0.8074,1.734,0.6398,91,3.337,64,5.5454,-5.1405,-18.398,-0.07,0.5514,0.0294,61
3.422,66,11.3249,-0.2933,-14.3214,-1.2645,1.9439,0.3831,91,3.389,65,4.0,-2.6168,-12.9907,-0.3735,-0.2643,0.7018,61
3.474,67,9.7514,-3.1506,-17.5618,-1.5981,0.7661,-0.0332,91,3.441,66,4.4368,-1.3233,-8.3101,-0.1459,-0.2737,0.6019,61
3.526,68,11.2134,-2.2189,-16.1464,-1.1581,-0.1143,-0.2542,91,3.493,67,8.3555,4.3263,-3.4573,-0.267,-0.8652,-0.0438,61
3.578,69,6.5652,-2.6594,-11.4241,-0.1687,-0.7568,-0.4537,91,3.544,68,11.2155,0.131,-5.6787,-0.221,-0.6823,0.036,61
3.63,70,6.6136,-2.9019,-12.5298,0.372,-0.6614,-0.4481,91,3.596,69,13.3029,1.1984,-5.2789,0.2655,-0.7379,0.0345,61
3.681,71,10.0926,-1.1434,-10.0793,-0.4037,-0.9544,0.1511,91,3.648,70,10.172,0.642,-8.8233,0.7253,-0.3678,0.0884,61
3.733,72,12.6318,-0.3777,-12.885,-0.2148,-1.2209,0.0534,91,3.7,71,10.6808,4.0677,-6.0117,-0.0041,-0.2416,-0.0512,61
3.785,73,13.4462,1.392,-11.3184,-0.76,-0.2127,0.0779,91,3.752,72,9.3819,3.9424,-5.9553,0.0531,0.4286,-0.5398,61
3.837,74,9.0391,0.6791,-9.5118,-0.0065,0.4541,-0.0328,91,3.803,73,7.9412,2.6724,-9.9084,0.2084,0.9279,-1.0654,61
3.889,75,9.1753,-0.292,-6.7995,-0.6767,0.9535,0.0077,91,3.855,74,5.5864,-1.1336,-14.6458,-0.525,0.7339,-1.0679,61
3.94,76,9.3512,-2.0384,-7.0661,-0.0574,1.3147,0.1966,91,3.907,75,9.1945,4.4648,-8.0814,-0.0464,0.1085,-0.4618,61
3.992,77,8.5983,-1.7385,-8.5483,0.6347,1.6379,0.1143,91,3.959,76,5.3961,-0.2427,-11.6096,-0.2488,0.6658,-0.6342,61
4.044,78,5.1388,-1.9967,-14.2438,0.3182,1.5467,-0.02,91,4.011,77,9.0556,-0.0306,-10.6953,0.355,1.1709,-1.1224,61
4.096,79,9.0163,3.8947,-15.9259,0.8487,0.4555,0.2653,91,4.062,78,8.4701,-5.3192,-15.7871,0.9087,1.3671,-0.8924,61
4.148,80,11.8398,3.6281,-18.6347,0.8005,0.6617,-0.02,91,4.114,79,10.8809,-4.9899,-18.0583,0.4124,0.331,0.0291,61
4.199,81,13.9069,5.5284,-15.5633,0.3973,1.1601,0.0846,91,4.166,80,8.1593,-2.5675,-12.8134,-0.1902,-0.4252,0.7015,61
4.252,82,8.6651,0.1408,-19.3636,-0.3852,0.6033,-0.4357,91,4.218,81,7.4928,-1.0688,-9.5079,-0.1359,-0.7611,0.5917,61
4.303,83,7.1789,-1.2474,-21.3252,-0.6882,-0.2331,-0.7294,91,4.27,82,7.1182,-0.8891,-8.7077,0.4736,-0.4598,0.4039,61
4.355,84,7.5373,-2.4259,-15.7423,-0.2598,-0.8435,-0.8093,91,4.321,83,10.3125,1.2699,-12.7207,-0.1204,-0.4265,0.2817,61
4.407,85,7.4005,-1.3684,-11.0269,0.4869,-0.8719,-0.7749,91,4.373,84,12.6438,2.217,-14.8672,0.561,-0.6179,0.2536,61
4.459,86,5.799,-0.598,-13.4892,1.0319,-0.9004,-0.6286,91,4.425,85,12.1204,1.8065,-13.8358,0.9129,-0.0521,-0.0453,61
4.511,87,9.4981,-3.1739,-13.123,0.4093,-1.1633,0.0314,91,4.477,86,8.4512,4.2593,-12.6079,0.9756,0.1078,-0.1193,61
4.562,88,12.1979,-3.2429,-14.4313,0.4155,-1.1257,-0.1598,91,4.528,87,7.3779,4.4721,-10.2852,0.2786,0.6753,-0.5046,61
4.614,89,13.8357,-1.4016,-13.1135,-0.3719,-0.1532,-0.3111,91,4.58,88,8.5377,3.9998,-10.6266,0.137,1.1778,-0.9894,61
4.666,90,10.9322,-1.8647,-13.7186,-0.1862,0.2406,-0.3569,91,4.632,89,7.1143,1.1237,-15.548,-0.1331,1.5446,-1.2877,61
4.718,91,9.1484,-2.9038,-10.6838,-0.6689,0.7828,-0.2168,91,4.684,90,3.4335,-4.4767,-19.3288,-0.7735,1.7251,-1.3033,61
4.77,92,9.1224,-1.9355,-9.148,-0.5921,1.2497,-0.094,91,4.736,91,7.6232,2.0249,-17.0927,-0.2073,1.2585,-0.9802,61
4.821,93,8.1079,-3.45,-12.413,-0.041,1.5904,0.3988,91,4.787,92,0.1416,-1.2726,-17.2189,0.0513,1.5983,-1.2028,61
4.873,94,4.1245,-1.9008,-15.9362,0.6466,1.5382,0.3857,91,4.839,93,5.2206,-1.2833,-15.1992,0.4667,1.8514,-1.5492,61
4.925,95,8.276,3.9646,-9.0469,1.069,0.4492,0.195,91,4.891,94,2.1183,-6.2334,-19.0742,0.3291,2.0362,-1.0925,61
4.977,96,11.3059,2.8797,-13.8365,1.4021,0.5917,-0.0044,91,4.943,95,6.6633,-5.7213,-21.3036,0.3372,0.8193,-0.117,61
5.029,97,13.5173,2.7354,-13.4415,0.4096,1.1088,-0.0698,91,4.995,96,7.1764,-4.2402,-16.9221,-0.0793,-0.0688,0.595,61
5.08,98,8.3282,-0.4008,-17.8151,-0.3116,1.1045,-0.5681,91,5.046,97,5.1991,-2.1978,-10.7915,0.4585,-0.3767,0.4526,61
5.132,99,4.7087,-2.4121,-19.5264,-0.544,0.1327,-0.7808,91,5.098,98,6.98,-5.5909,-15.8573,0.6659,0.3181,0.1297,61
5.184,100,5.8926,-2.3939,-16.92,0.2453,-0.5766,-0.6386,91,5.15,99,10.2116,-1.4943,-13.291,0.2141,0.1908,-0.0619,61
5.236,101,4.451,0.2786,-10.9446,0.8556,-1.0942,-0.3594,91,5.202,100,12.5702,-0.152,-12.3559,0.8309,-0.225,0.0898,61
5.288,102,1.0218,-1.9966,-15.9928,0.4193,-0.22,-0.6897,91,5.254,101,10.9134,0.1316,-12.9768,0.9895,0.1991,-0.0125,61
5.339,103,6.0115,-3.273,-14.6798,0.9826,-0.5149,-0.482,91,5.305,102,8.7592,2.6209,-11.2623,0.6002,0.2244,-0.1393,61
5.391,104,9.6532,-0.5822,-16.5095,0.3017,-0.1056,-0.3372,91,5.357,103,8.5516,1.1415,-10.4518,0.507,0.8319,-0.5255,61
5.443,105,7.8744,-1.5306,-14.6227,-0.455,0.6012,-0.4425,91,5.409,104,6.855,0.196,-11.2445,0.8559,1.2921,-0.8864,61
5.494,106,6.2977,-0.6122,-13.4742,-0.614,0.4016,-0.4308,91,5.461,105,4.4402,-0.0828,-14.1738,-0.0524,1.5422,-0.8348,61
5.546,107,6.6274,-2.5389,-11.2922,-1.1233,0.7854,-0.184,91,5.513,106,6.3107,-5.3572,-18.3259,-0.7153,0.4587,0.0711,61
5.598,108,6.121,-2.0715,-10.5862,-1.288,1.2516,0.1051,91,5.564,107,9.7231,-7.7881,-16.9013,-0.5339,0.0434,0.4542,61
5.65,109,5.6913,-2.2975,-13.4316,-0.7511,1.5384,0.427,91,5.616,108,8.042,-5.5887,-16.8655,-0.141,0.7167,-0.1475,61
5.702,110,4.653,-2.1333,-17.8079,0.0179,1.6689,0.4146,91,5.668,109,10.9867,-2.5808,-17.9107,0.551,1.208,-0.7791,61
5.754,111,8.6617,-6.794,-17.541,-0.6622,1.1942,0.8101,91,5.719,110,6.5695,-1.1026,-19.6936,0.927,0.356,0.1117,61
5.806,112,4.1896,-6.028,-17.6426,-1.0768,1.3433,0.7959,91,5.772,111,6.9147,-0.3673,-16.9064,0.0026,-0.407,0.7619,61
5.857,113,8.3235,-2.9645,-15.5795,-1.2286,1.6587,0.1498,91,5.823,112,4.2078,0.3985,-12.6804,-0.6752,-0.9638,0.8156,61
5.909,114,5.6533,0.2628,-19.3755,-0.5668,0.741,-0.3058,91,5.875,113,5.6635,-0.5342,-10.745,-0.0414,-0.8787,0.467,61
5.961,115,5.3108,-1.2775,-20.3692,-0.5825,-0.1326,-0.5032,91,5.927,114,6.3124,1.236,-9.791,0.6445,-0.9706,0.2131,61
6.013,116,5.1877,-1.1747,-14.9742,0.2514,-0.7702,-0.4576,91,5.979,115,9.7244,-0.9104,-11.6473,0.0414,-0.5004,0.2079,61
6.065,117,5.3325,0.6836,-8.5146,0.7342,-0.7549,-0.3243,91,6.03,116,12.2146,-0.5272,-9.0246,0.4867,-0.6881,0.1793,61
6.116,118,9.1577,5.8509,-3.6303,-0.1394,-0.4118,0.3517,91,6.082,117,10.2698,1.7688,-10.2775,0.1408,-0.4461,0.3855,61
6.168,119,11.9494,2.1087,-6.9638,0.5517,-0.5618,0.4555,91,6.134,118,9.2222,3.5885,-7.4166,-0.5359,-0.0465,0.2167,61
6.22,120,13.987,3.1048,-8.5684,-0.0702,-0.2205,0.3027,91,6.186,119,8.3315,3.3438,-7.6932,-0.0943,0.6454,-0.1019,61
6.272,121,11.8328,1.3691,-9.4277,-0.3888,0.1475,0.1561,91,6.238,120,7.2916,2.9137,-9.6053,0.5277,1.156,-0.653,61
6.324,122,10.7429,2.1909,-4.4381,-0.0931,0.7161,0.0577,91,6.29,121,3.788,1.615,-13.6454,-0.2919,1.4096,-0.8708,61
6.375,123,10.8193,1.66,-4.7519,-0.0453,1.201,-0.0347,91,6.341,122,7.8819,-3.1922,-15.5686,-0.8901,0.362,0.0438,61
6.427,124,9.1641,0.6762,-8.239,-0.2049,1.5549,-0.0052,91,6.393,123,10.4272,-3.653,-15.2596,-0.913,0.1172,0.5714,61
6.479,125,5.6131,0.3412,-13.1811,0.479,1.4799,-0.1081,91,6.445,124,9.9406,-3.389,-15.4225,-0.6015,0.7505,0.0086,61
6.531,126,9.3624,4.6072,-17.6251,1.0261,0.4067,-0.0575,91,6.497,125,12.3724,-0.6364,-13.4801,0.1456,1.2327,-0.6622,61
6.583,127,11.3768,4.8279,-20.3285,1.0088,0.0803,-0.1976,91,6.549,126,4.834,-0.3861,-17.4774,0.0676,0.9455,-0.1835,61
6.634,128,13.569,2.4515,-20.0972,0.5682,0.1583,-0.05,91,6.601,127,6.0816,-0.8258,-16.501,-0.1813,0.0233,0.5464,61
6.686,129,12.5518,1.2242,-15.2476,-0.2605,0.7939,0.0003,91,6.652,128,3.7984,0.5365,-12.5605,0.0059,-0.6498,0.7735,61
6.738,130,7.8326,-0.3945,-18.5267,-0.6651,0.9009,-0.007,91,6.704,129,5.6122,4.2028,-7.8942,-0.2036,-0.8823,0.8932,61
6.789,131,10.9823,0.5651,-17.4262,-0.5588,-0.0159,-0.0767,91,6.756,130,9.2133,3.5392,-6.352,-0.2683,-1.2351,0.7069,61
6.841,132,7.795,-0.3062,-11.6447,-0.5223,-0.685,-0.108,91,6.808,131,11.8416,3.1937,-10.5613,-0.234,-0.9661,0.4983,61
6.893,133,6.7002,-1.8009,-14.4107,-0.1809,-0.1082,-0.2512,91,6.86,132,12.6861,3.2273,-9.714,0.5039,-0.2614,0.2919,61
6.945,134,10.1558,-0.6997,-12.5736,-0.144,-0.1985,0.4215,91,6.911,133,10.6632,2.2345,-10.3034,0.6222,-0.2396,0.347,61
6.997,135,12.6779,-0.2252,-13.8556,-0.3038,-0.7058,0.3507,91,6.963,134,10.2852,5.0212,-6.7378,0.1543,-0.0273,0.0179,61
7.048,136,13.9576,0.5314,-12.9258,-0.3979,0.1127,-0.0457,91,7.015,135,9.5834,3.7569,-6.9362,-0.1267,0.6335,-0.2077,61
7.101,137,13.0469,-0.8179,-13.3044,-0.0009,0.3486,-0.0084,91,7.067,136,8.0676,3.2623,-9.2478,-0.3074,1.1191,-0.5307,61
7.153,138,11.0536,-0.3578,-7.6623,-0.2332,0.8324,0.2157,91,7.119,137,4.0045,0.9249,-13.8866,-0.9015,1.4904,-0.7243,61
7.204,139,9.9596,-0.6795,-7.462,0.1651,1.2424,0.1079,91,7.17,138,4.8538,3.5361,-7.7592,-0.1774,0.4805,-0.4495,61
7.256,140,8.8676,-0.7457,-8.2241,0.6203,1.5851,-0.0515,91,7.222,139,8.4239,2.4193,-10.4007,-0.1629,0.4951,-0.2721,61
7.308,141,6.9517,-1.0547,-11.8862,1.1292,1.7652,-0.352,91,7.274,140,7.3478,1.4122,-12.7265,-0.2097,1.0463,-0.6041,61
7.36,142,10.3394,-4.7319,-16.68,1.3592,0.615,-0.3033,91,7.326,141,10.4801,1.2073,-15.2523,0.5216,1.4486,-0.9277,61
7.412,143,11.8952,-3.9978,-20.1787,1.3815,-0.1723,-0.6409,91,7.377,142,7.2965,0.8146,-16.7931,0.829,0.4209,-0.0675,61
7.463,144,13.9474,-1.0089,-18.1122,0.698,0.5526,-0.4095,91,7.429,143,8.1872,0.8403,-14.8065,0.8266,-0.3596,0.6311,61
7.515,145,10.0541,-4.0034,-18.3677,-0.1658,1.0817,-0.0344,91,7.481,144,7.1579,2.3667,-10.2923,0.5527,-0.9293,0.9895,61
7.567,146,6.318,-5.9594,-18.7321,-0.4156,0.1161,-0.219,91,7.533,145,5.3684,-0.3283,-14.8923,0.4983,-0.3383,0.9737,61
7.619,147,9.8769,-4.0276,-16.0682,0.3732,-0.5887,-0.1527,91,7.585,146,9.0354,2.2571,-16.9694,-0.306,-0.1612,0.5743,61
7.671,148,7.2688,-1.9186,-12.831,0.9489,-1.103,-0.0818,91,7.636,147,11.7117,0.6731,-18.2723,0.3666,-0.6982,0.3388,61
7.722,149,8.2609,0.5611,-10.0887,1.3691,-1.1023,0.0276,91,7.688,148,10.6203,0.5626,-15.6524,0.8013,0.1754,-0.1244,61
7.774,150,11.2949,-0.2,-10.2436,0.324,-0.5072,0.5752,91,7.74,149,8.159,0.9313,-14.9522,0.9944,0.3293,0.0164,61
7.826,151,13.5093,0.1713,-13.0512,0.4625,-0.9725,0.4504,91,7.791,150,8.3522,3.7439,-9.8639,0.8031,0.6469,-0.344,61
7.878,152,11.0346,-0.6112,-12.194,-0.3088,-0.0314,0.111,91,7.843,151,8.229,3.3467,-8.6742,0.8729,1.1396,-0.7985,61
7.929,153,10.8011,0.0561,-8.4355,-0.1547,0.6554,0.043,91,7.895,152,7.0358,2.0089,-9.2917,0.4721,1.5167,-1.2539,61
7.981,154,10.2737,-0.2341,-6.9295,-0.7881,1.1567,0.0905,91,7.947,153,9.6737,-3.8306,-13.4481,-0.3276,0.5009,-0.7393,61
8.033,155,10.0116,-0.8877,-7.7289,-0.403,1.5226,0.3273,91,7.999,154,9.1568,-8.0926,-13.0664,-0.0134,-0.1829,0.0619,61
8.085,156,9.5976,0.7558,-9.5892,0.2079,1.7259,0.1215,91,8.051,155,10.2739,-6.7317,-14.486,-0.0591,0.0662,-0.2426,61
8.137,157,5.1443,0.9972,-12.8772,-0.0638,1.938,0.1254,91,8.103,156,12.6157,-3.8271,-13.4546,0.2298,0.7333,-0.5845,61
8.188,158,9.0203,1.9079,-16.9205,0.63,0.741,-0.2681,91,8.154,157,13.8611,-3.8049,-15.8407,0.2188,1.2201,-0.877,61
8.24,159,11.8492,4.6228,-20.3542,0.626,-0.1326,-0.7328,91,8.206,158,10.5967,-0.3211,-17.0297,0.6436,0.2237,0.0403,61
8.292,160,13.9138,5.0442,-15.3458,-0.2184,0.5816,-0.6038,91,8.258,159,10.7018,-2.5637,-15.0249,-0.1663,-0.5035,0.7097,61
8.344,161,9.4828,1.846,-19.2049,-0.8346,-0.0841,-0.593,91,8.31,160,4.1248,0.8659,-8.637,0.5525,-0.7657,0.8358,61
8.396,162,12.1537,1.6875,-19.3053,-0.264,-0.7348,-0.9077,91,8.362,161,4.4689,1.9695,-12.5242,0.0433,-0.0343,1.0321,61
8.447,163,8.286,1.7156,-15.7747,0.4838,-1.2097,-0.9181,91,8.413,162,8.3789,0.3273,-11.6267,-0.0718,-0.0585,0.9586,61
8.499,164,8.7293,0.4843,-12.236,0.5034,-1.4427,-0.7437,91,8.465,163,11.2326,0.0143,-14.1676,0.5316,-0.1542,0.625,61
8.551,165,8.5912,1.3224,-9.169,-0.3078,-1.5331,-0.08,91,8.517,164,9.9935,0.3381,-11.8019,0.2993,0.5544,0.2118,61
8.603,166,11.536,-0.6677,-11.2096,-0.6187,-1.6663,0.0379,91,8.568,165,7.4594,3.091,-10.3763,-0.1344,0.2518,0.5007,61
8.655,167,13.6852,4.164,-11.2805,-0.4813,-0.7939,0.0988,91,8.62,166,6.2556,3.7363,-8.0498,-0.0642,0.6629,0.025,61
8.707,168,13.6219,1.5014,-10.4904,-0.1941,-0.1728,-0.0022,91,8.672,167,5.9976,2.9544,-7.6292,0.4979,1.1688,-0.6071,61
8.758,169,9.5348,0.9831,-10.7626,0.5349,0.4162,-0.1635,91,8.724,168,5.6195,4.323,-13.1682,-0.3137,1.1795,-0.8908,61
8.81,170,9.8907,-0.6183,-9.1391,0.4216,0.8408,-0.0877,91,8.776,169,9.2187,-0.0611,-7.003,-0.906,0.194,0.0301,61
8.862,171,9.2993,0.6238,-10.2385,0.8366,1.292,-0.475,91,8.827,170,5.9597,1.0712,-7.3938,-1.1256,0.4361,0.2152,61
8.914,172,5.6023,-1.0672,-12.7989,0.4525,1.6213,-0.5616,91,8.879,171,9.0248,0.2627,-10.0883,-0.3388,0.8708,-0.1985,61
8.966,173,2.6772,1.2418,-17.3461,1.0068,0.8478,-0.2651,91,8.931,172,10.5926,2.5541,-9.3351,0.0437,1.3205,-0.5704,61
9.017,174,7.2197,4.3701,-10.0759,0.0596,0.9052,0.0165,91,8.983,173,8.2391,-3.4327,-14.7944,0.7065,1.6487,-0.7395,61
9.069,175,5.0907,2.9611,-12.6976,-0.5049,1.3253,0.3214,91,9.035,174,8.2969,-3.147,-16.6984,0.4156,0.5365,0.1406,61
9.121,176,8.9812,4.291,-12.4648,-1.0295,1.6456,0.0658,91,9.086,175,7.5235,-3.0988,-15.229,-0.0462,-0.2752,0.783,61
9.173,177,5.5612,3.9803,-17.1022,-1.4266,0.5326,0.0037,91,9.138,176,5.4755,-0.7889,-8.7221,0.0923,-0.8677,1.1362,61
9.225,178,7.834,2.4204,-17.2757,-1.3064,-0.2847,-0.3501,91,9.19,177,9.1136,1.6697,-4.3794,-0.4892,-1.1748,1.3001,61
9.276,179,5.6795,2.2241,-12.5162,-0.277,-0.6494,-0.1488,91,9.242,178,11.7688,-1.4865,-7.3028,-0.6143,-0.7579,1.2047,61
9.328,180,5.8204,1.643,-11.459,-0.8595,-0.8955,-0.156,91,9.293,179,13.7067,-1.6076,-10.2268,-0.1182,-0.55,0.4327,61
9.38,181,7.2168,0.8438,-5.7792,-1.3025,-0.8815,0.0561,91,9.345,180,12.1166,-0.6861,-9.9365,0.2165,0.1084,0.0437,61
9.432,182,10.5329,1.9175,-8.0441,-0.4275,-0.5043,-0.28,91,9.397,181,9.5998,0.9795,-9.7701,-0.0725,-0.2872,0.24,61
9.484,183,12.9531,2.1918,-8.9799,-0.8047,-0.507,-0.1016,91,9.449,182,7.5755,2.3515,-7.6937,-0.3414,0.0402,0.0228,61
9.535,184,12.0276,-0.6055,-8.8707,-0.5201,-0.2493,-0.1015,91,9.501,183,6.3104,1.5104,-7.3581,-0.0876,0.7119,-0.4547,61
9.587,185,11.1743,-1.3779,-4.8346,0.2904,0.0785,0.0382,91,9.553,184,6.0379,2.6394,-10.3439,-0.6949,1.2045,-0.7946,61
9.639,186,10.5661,-1.9807,-5.0807,0.8885,0.7356,-0.0072,91,9.604,185,6.3767,-3.3705,-15.5306,-1.1842,0.2123,-0.0325,61
9.691,187,10.1353,-1.377,-6.4861,0.8142,1.2152,-0.1598,91,9.656,186,8.7847,-1.9003,-14.8276,-1.04,-0.385,0.0857,61
9.742,188,8.029,-1.9528,-10.7991,1.2591,1.5653,-0.0992,91,9.708,187,10.79,-1.6123,-14.9808,-0.5927,0.1785,-0.3715,61
9.794,189,7.1982,-2.1033,-15.8865,1.3334,1.0071,-0.1267,91,9.76,188,12.9923,0.8555,-12.4204,0.008,0.8153,-0.8235,61
9.846,190,10.5193,-4.2171,-9.0106,0.4601,1.0735,0.5347,91,9.811,189,4.0597,-0.7764,-17.0462,0.2448,0.7014,-0.2036,61
9.898,191,12.9432,-2.164,-10.8201,-0.2499,1.3614,0.5958,91,9.863,190,4.8338,-1.2054,-17.3137,-0.185,-0.1549,0.5318,61
9.95,192,14.7123,-2.811,-13.0991,-0.6672,1.5261,0.3221,91,9.915,191,5.6771,-0.2914,-12.0684,0.0185,-0.7798,0.9039,61
10.001,193,10.6129,-7.0441,-16.1535,-1.1622,0.5824,0.2022,91,9.967,192,6.2216,-1.8385,-10.8614,0.4226,-0.3034,0.5576,61
10.053,194,13.0115,-4.6908,-16.4438,-0.172,-0.2483,-0.0204,91,10.019,193,9.6581,3.9503,-12.6167,-0.1229,-0.1135,-0.0298,61
10.105,195,6.9925,-1.6387,-11.1173,0.551,-0.8546,-0.0477,91,10.07,194,12.1662,0.0641,-12.377,0.218,-0.3932,0.063,61
10.157,196,8.7089,-1.144,-8.1476,0.3637,-0.4616,0.0338,91,10.122,195,13.4305,0.0823,-10.3625,0.2067,0.0956,-0.1221,61
10.209,197,11.6219,-0.5222,-3.3996,0.2491,-0.312,0.4682,91,10.174,196,9.9128,0.0556,-12.1892,0.8255,0.2637,-0.1315,61
10.261,198,13.7479,-0.5711,-7.1047,-0.2264,-0.7401,0.485,91,10.226,197,10.1101,2.8803,-9.7104,0.2912,-0.1038,-0.1306,61
10.312,199,13.2625,-0.3405,-8.1669,-0.7778,0.138,0.3051,91,10.278,198,8.8568,1.2963,-7.9663,0.0589,0.3289,-0.2496,61
10.364,200,10.6006,-0.4191,-7.4219,-0.2042,0.58,0.0775,91,10.329,199,7.6679,1.1864,-8.1827,0.2202,0.925,-0.6046,61
10.416,201,8.6866,0.4875,-6.0595,-0.8243,1.1017,0.0404,91,10.381,200,5.2807,-0.6449,-13.9533,-0.5164,1.3601,-0.7339,61
10.468,202,9.3243,0.3586,-6.5631,-0.8391,1.4824,0.0459,91,10.433,201,7.7228,-5.0073,-15.3479,0.2583,0.6786,0.0803,61
10.52,203,7.1229,0.0638,-10.0917,-0.6145,1.7603,0.0095,91,10.485,202,9.098,-4.2327,-16.8886,-0.0273,0.7018,-0.1583,61
10.571,204,4.5668,0.1767,-13.732,0.2279,1.8642,-0.1532,91,10.536,203,11.2327,-3.6565,-16.0774,0.237,1.1822,-0.5002,61
10.623,205,8.5988,-5.108,-7.4382,-0.0045,0.6872,0.3951,91,10.588,204,10.2466,0.3787,-18.7708,0.3796,1.5478,-0.9151,61
10.675,206,0.9516,-3.3712,-6.5621,-0.3192,1.1614,0.4592,91,10.64,205,6.9257,0.9616,-18.9859,0.6078,0.5147,-0.1636,61
10.727,207,5.9603,-0.689,-8.2347,-0.8827,1.526,0.2704,91,10.692,206,7.2633,0.3574,-17.229,0.1561,-0.2911,0.5609,61
10.779,208,2.8577,-1.3626,-14.015,-1.085,1.1379,0.2003,91,10.744,207,4.5912,0.0652,-12.5409,0.0634,-0.8793,0.8751,61
10.83,209,1.3208,-2.8933,-18.2336,-0.1428,0.1571,-0.4154,91,10.795,208,5.4353,0.0018,-6.5451,0.2664,-0.9248,0.9411,61
10.882,210,5.2376,-2.3021,-14.1155,0.5718,-0.5588,-0.2001,91,10.847,209,9.0842,5.2935,-2.1692,-0.4826,-1.3417,0.4433,61
10.934,211,4.6862,-0.1919,-8.7585,0.9864,-0.9747,-0.0127,91,10.899,210,11.7473,-1.0226,-6.472,0.2166,-1.3052,0.0541,61
10.986,212,4.5246,-0.2218,-10.076,1.1549,-0.9134,0.1584,91,10.951,211,10.3321,1.5756,-7.7108,0.7131,-0.2676,-0.5513,61
11.037,213,8.568,-2.9369,-11.4897,0.6782,-0.6488,0.0817,91,11.003,212,6.7961,1.1945,-10.1414,0.5145,0.0403,-0.3611,61
11.089,214,11.5191,-1.7456,-14.8942,0.3254,-0.8265,-0.059,91,11.054,213,6.4632,2.5672,-8.4036,0.5956,0.1542,-0.7701,61
11.141,215,11.1346,-3.2047,-12.6133,-0.4377,-0.1326,-0.1842,91,11.106,214,6.6197,2.9683,-8.6641,0.609,0.431,-1.041,61
11.193,216,5.908,-2.7716,-13.1879,-0.1107,0.0423,-0.2499,91,11.158,215,3.4017,0.6204,-9.5831,-0.2323,0.9843,-1.3537,61
11.245,217,6.0459,-2.7184,-11.5635,0.5957,0.6697,-0.2066,91,11.21,216,7.6,-4.844,-8.594,-0.8466,0.0516,-0.3582,61
11.296,218,5.5025,-1.7389,-10.4563,0.8255,1.1671,-0.0762,91,11.262,217,9.4944,-6.4683,-9.1848,-0.4113,-0.5177,0.1537,61
11.348,219,4.5349,-1.0428,-15.4424,0.0826,1.5049,0.2006,91,11.313,218,11.2846,-6.6061,-10.934,-0.2746,0.0586,-0.5132,61
11.4,220,4.1874,-0.2822,-17.5492,0.669,0.8408,0.1737,91,11.365,219,13.3533,-4.9826,-8.2081,0.1144,0.7277,-1.046,61
11.452,221,8.3219,5.1459,-20.813,0.9348,0.015,-0.3717,91,11.417,220,4.2732,-8.6006,-13.0465,-0.5763,0.5715,-0.3314,61
11.504,222,9.3877,2.268,-18.726,0.072,-0.558,-0.412,91,11.469,221,5.3932,-7.6282,-13.9298,-0.1101,-0.2497,0.4385,61
11.556,223,12.1173,-0.3732,-20.6852,-0.2063,0.2711,-0.3077,91,11.52,222,2.6182,-3.3831,-9.1516,-0.0228,-0.5864,0.7853,61
11.607,224,6.8154,-0.5344,-22.085,-0.8258,-0.4756,-0.4266,91,11.572,223,4.4011,-1.9509,-5.4859,0.6581,0.0954,0.5418,61
11.659,225,10.2399,-1.6208,-21.9282,-0.8455,-1.0205,-0.451,91,11.624,224,8.3294,3.8683,-1.3961,-0.1968,-0.5972,0.1593,61
11.711,226,5.0419,-0.2665,-13.4201,0.0594,-1.4182,-0.579,91,11.676,225,11.1964,0.2499,-2.8181,0.1391,-0.4858,0.4913,61
11.763,227,3.7202,-4.5747,-13.932,0.3956,-0.7387,-0.4422,91,11.728,226,13.2889,-0.3567,-3.9153,0.2179,-0.5973,0.1609,61
11.815,228,7.9809,1.0305,-13.4833,0.2545,-0.5839,-0.4083,91,11.779,227,8.6411,0.765,-7.7929,0.7614,-0.0713,0.0862,61
11.866,229,11.0906,1.3718,-14.1239,-0.394,-0.7095,-0.0222,91,11.831,228,9.1685,3.8278,-5.5812,0.3236,-0.0736,-0.27,61
11.918,230,10.0126,0.1104,-12.3145,-0.7572,-0.0379,-0.0473,91,11.883,229,8.7299,4.3121,-6.21,0.3279,0.5837,-0.7359,61
11.97,231,8.1866,1.0472,-9.018,-0.9894,0.62,-0.0751,91,11.934,230,7.3647,4.0418,-10.2627,-0.4378,1.0762,-1.0418,61
12.022,232,8.1053,-0.6141,-8.6229,-1.1842,1.1309,0.113,91,11.986,231,10.3042,-2.3469,-15.4713,-0.9966,0.1186,-0.1363,61
12.073,233,8.181,-0.1174,-9.322,-1.0794,1.5037,0.3127,91,12.038,232,10.9525,-1.2632,-14.7887,-0.8069,-0.5802,0.3209,61
12.125,234,6.5278,0.8372,-12.8026,-1.1811,1.7718,0.5002,91,12.09,233,11.7925,-1.104,-14.821,-0.5907,-0.1057,-0.2925,61
12.177,235,4.1356,-2.3507,-17.3488,-0.1855,1.2744,0.3983,91,12.142,234,13.724,1.1014,-12.5643,0.0984,0.6078,-0.635,61
12.229,236,5.4007,3.1118,-18.0895,-0.8106,1.1378,0.6066,91,12.193,235,9.1273,-4.493,-17.1512,0.7318,0.9686,-0.6474,61
12.281,237,1.7986,2.7004,-18.1059,-0.8598,1.5088,0.6329,91,12.245,236,10.0323,-3.8195,-16.7415,0.1307,0.0401,0.2079,61
12.332,238,6.5785,5.9519,-16.168,-1.1788,1.7795,0.3109,91,12.297,237,8.4296,-2.6649,-11.8721,-0.5652,-0.6375,0.784,61
12.384,239,4.3948,4.004,-19.805,-1.2416,0.6527,-0.0868,91,12.349,238,7.4198,-2.4041,-7.6581,-0.1883,-0.5974,0.6563,61
12.436,240,8.4733,3.3561,-20.0418,-0.7673,-0.197,-0.2289,91,12.401,239,7.1572,3.1608,-12.6753,-0.5325,-0.8999,0.6558,61
12.488,241,6.575,2.3648,-14.2738,0.1165,-0.8172,-0.2826,91,12.453,240,10.3409,-1.1582,-13.632,-0.5374,-0.9313,0.651,61
12.54,242,7.8519,2.0033,-9.4958,0.117,-0.7804,-0.2066,91,12.505,241,12.6646,0.2883,-14.1514,0.1681,-0.6667,0.1854,61
12.592,243,10.9964,4.5075,-4.3464,-0.5898,-0.3645,0.447,91,12.556,242,10.6543,1.0858,-13.5845,0.787,0.1049,-0.1385,61
12.643,244,13.2914,4.2736,-6.4954,-0.0577,-0.5012,0.2977,91,12.608,243,9.1929,3.485,-10.4298,1.2211,-0.0156,-0.4822,61
12.695,245,14.9664,4.6636,-6.9787,-0.5513,0.2416,0.2194,91,12.66,244,8.4431,3.3389,-9.3911,0.8462,0.2253,-0.7584,61
12.747,246,14.8483,1.9776,-7.3472,-0.3014,0.0044,0.0923,91,12.712,245,7.5566,3.6624,-10.0322,0.0399,0.5719,-0.9849,61
12.799,247,11.2456,2.5792,-6.4427,-0.5702,0.6816,0.0676,91,12.764,246,3.2296,-0.7276,-12.8846,-0.648,1.0063,-1.1708,61
12.851,248,9.6342,0.9506,-7.8559,-0.8108,1.1758,0.203,91,12.815,247,7.4744,4.7611,-6.796,-0.7571,0.0677,-0.3545,61
12.903,249,6.7442,0.2514,-11.5897,-0.0991,1.5365,0.2546,91,12.867,248,7.6499,2.3969,-9.5323,-0.7923,-0.077,-0.082,61
12.954,250,4.787,3.5789,-16.4636,0.6042,0.6923,0.2583,91,12.919,249,9.4272,1.0944,-11.1805,-0.4588,0.6288,-0.5698,61
13.006,251,8.7595,5.1817,-11.5497,0.3967,0.4239,0.1908,91,12.971,250,11.4893,3.0798,-9.1024,-0.025,1.1439,-0.9943,61
13.058,252,1.0689,5.0106,-12.8222,0.7284,0.9877,0.5908,91,13.023,251,4.4553,-1.9371,-14.6245,0.2545,1.3614,-0.5608,61
13.11,253,3.5938,3.8139,-12.4824,0.4467,1.3992,0.4047,91,13.074,252,3.9252,-0.5325,-12.1584,0.126,0.3268,0.271,61
13.161,254,3.8869,1.8167,-10.8469,0.177,1.478,0.3454,91,13.126,253,1.6761,1.7009,-9.3351,0.1504,0.3236,0.2827,61
13.213,255,5.9924,0.5939,-10.2538,0.0203,1.2628,0.3121,91,13.178,254,1.864,-1.7093,-14.7944,-0.0606,0.6349,0.0005,61
13.265,256,6.9689,0.6093,-9.4567,0.0693,0.9784,0.1803,91,13.23,255,6.4777,-1.4624,-12.4713,-0.5716,0.1364,0.6352,61
