right_leg_timestamp,right_leg_index,right_leg_accel_x,right_leg_accel_y,right_leg_accel_z,right_leg_gyro_x,right_leg_gyro_y,right_leg_gyro_z,right_leg_battery_percentage,left_leg_timestamp,left_leg_index,left_leg_accel_x,left_leg_accel_y,left_leg_accel_z,left_leg_gyro_x,left_leg_gyro_y,left_leg_gyro_z,left_leg_battery_percentage
0.02,0,9.223,-4.1134,-5.3937,0.7442,-0.4663,-0.2362,89,0.154,2,3.2203,6.5303,-15.4803,-0.5838,0.6395,0.5401,51
0.072,1,9.9808,-2.8314,-8.7928,0.4163,0.338,-0.0401,89,0.206,3,7.4676,-0.5307,-18.7354,-0.0485,-0.2001,0.2616,51
0.124,2,12.5502,-2.6432,-9.7091,-0.1769,0.6792,-0.0608,89,0.258,4,8.685,0.3085,-17.8226,-0.2788,0.5212,0.4631,51
0.176,3,6.5677,0.2783,-12.2417,-0.2677,0.838,0.2297,89,0.31,5,11.456,2.783,-10.6637,-0.5256,1.0654,1.0183,51
0.228,4,7.0516,-0.654,-10.9773,0.0399,-0.0618,-0.0007,89,0.361,6,9.482,7.3233,-15.7175,0.262,1.2083,0.5314,51
0.279,5,5.1264,0.0978,-9.4364,-0.6047,-0.3885,0.0232,89,0.413,7,8.7072,5.8684,-14.9653,0.252,0.2151,-0.0076,51
0.331,6,3.6046,-0.7581,-8.3819,-1.1166,-0.3286,-0.1809,89,0.465,8,6.2818,3.2416,-11.603,0.4321,-0.5098,-0.3672,51
0.383,7,7.8966,-0.342,-3.9129,-0.627,-0.8125,-0.2971,89,0.517,9,6.2252,0.7801,-9.3753,0.7813,-0.291,-0.3495,51
0.435,8,11.029,2.1492,-4.9843,-0.7384,-0.8188,-0.1654,89,0.569,10,9.6607,5.8615,-4.2348,1.0673,-0.6778,-0.7069,51
0.487,9,11.8067,1.188,-7.9961,-1.033,-0.8275,0.1042,89,0.62,11,12.1681,4.0578,-5.5221,0.7196,-0.2889,-0.239,51
0.538,10,7.2934,0.8796,-6.5472,-0.5683,0.0119,0.4673,89,0.672,12,13.9981,4.4659,-7.8353,1.0087,0.2394,-0.1761,51
0.59,11,6.7157,-0.0755,-6.5533,0.1088,0.6871,0.6505,89,0.724,13,12.2431,2.626,-5.6641,0.9692,0.4066,-0.0631,51
0.642,12,6.1671,-0.1213,-7.5413,0.7554,1.1798,0.7043,89,0.776,14,8.6146,2.7921,-6.5357,0.223,0.5537,-0.175,51
0.694,13,4.6068,0.9337,-9.5278,1.2279,1.3622,0.446,89,0.828,15,7.6321,1.5675,-8.0495,-0.5143,0.4692,-0.0799,51
0.745,14,8.4885,-4.5556,-4.4268,0.8549,1.3346,0.6468,89,0.879,16,4.3774,1.2734,-10.9738,-0.9953,0.3495,0.0622,51
0.797,15,9.6124,-5.2001,-7.7515,0.5746,0.941,0.3497,89,0.931,17,8.3121,-0.2516,-13.2834,-0.8911,-0.301,0.477,51
0.849,16,12.2327,-1.4401,-9.9103,0.3774,1.3651,0.1014,89,0.983,18,9.2062,-0.3403,-14.5671,-0.7954,0.3346,0.4154,51
0.901,17,14.1937,0.0481,-15.1899,0.1014,1.239,0.2104,89,1.035,19,11.6307,1.4092,-16.9257,0.0398,0.9291,0.6965,51
0.953,18,14.5105,-0.1709,-15.1054,-0.5824,0.2308,-0.2041,89,1.087,20,5.2678,0.4326,-19.3671,0.0124,0.4928,0.3363,51
1.005,19,10.6568,-0.0985,-8.602,-0.4853,-0.388,-0.2521,89,1.138,21,5.94,1.7763,-17.428,0.2502,-0.3071,-0.0483,51
1.056,20,9.0648,-0.2472,-5.7819,-0.8867,-0.45,-0.4285,89,1.19,22,4.5963,-0.7263,-12.1591,-0.1972,-0.6426,-0.0128,51
1.108,21,11.8816,-0.8353,-7.2147,-0.817,0.0081,0.0116,89,1.242,23,3.737,-1.8366,-9.1622,0.1863,-0.333,-0.0178,51
1.16,22,13.9375,1.6463,-8.3783,-1.2165,-0.0635,-0.0965,89,1.294,24,7.8447,3.5291,-4.0792,0.3742,-0.4108,-0.1639,51
1.212,23,12.6486,-1.265,-7.0044,-1.1401,-0.2338,-0.0906,89,21.803,420,6.3362,-2.767,-11.2341,-0.7505,0.124,-1.1384,51
1.264,24,11.4233,-2.6199,-4.8025,-1.0871,-0.1517,0.3067,89,21.855,421,9.7417,-2.2599,-11.0823,-0.624,-0.5763,-0.4185,51
1.315,25,8.8153,-2.2985,-6.0507,-0.5521,0.5096,0.7666,89,21.907,422,9.1363,-0.6581,-8.8744,-0.1092,-0.8432,-0.4923,51
1.367,26,7.875,-1.6109,-8.1055,0.2736,0.8239,0.9133,89,21.958,423,8.6742,-2.2135,-5.9914,0.595,0.0696,-0.707,51
1.419,27,5.6075,0.8976,-11.3805,0.8762,0.4981,0.6241,89,22.01,424,8.0412,-0.8314,-6.9666,-0.0547,0.7357,-0.7703,51
21.931,423,9.1928,5.3091,-2.7676,0.7139,0.8383,-0.1907,89,22.062,425,7.7157,-1.0306,-9.0872,-0.717,1.2219,-0.3983,51
21.983,424,9.8853,4.0305,-6.0148,0.6309,0.6676,-0.0692,89,22.114,426,10.7485,-2.8238,-4.5787,-0.8823,0.3971,-0.8129,51
22.035,425,8.6346,3.9451,-8.6949,0.2871,0.7399,-0.0466,89,22.166,427,11.6705,-1.6621,-7.5726,-0.6943,0.1646,-0.3759,51
22.086,426,10.0285,2.9192,-11.7523,-0.0457,1.2183,-0.0598,89,22.217,428,10.7825,-0.3956,-10.3536,-0.9624,0.8051,-0.0897,51
22.138,427,5.3637,4.7401,-16.5759,-0.6972,1.493,0.2429,89,22.269,429,10.7912,2.8393,-13.5388,-0.8775,1.2725,0.0586,51
22.19,428,6.3101,4.5163,-15.0309,-0.8607,0.4163,-0.4494,89,22.321,430,4.6073,1.5282,-17.8624,-0.7216,0.3074,-0.2542,51
22.242,429,6.6751,2.0451,-9.1674,-0.5425,-0.2806,-0.6144,89,22.373,431,7.5718,-1.1055,-18.3494,-1.2012,-0.4424,-0.4662,51
22.294,430,4.3773,-1.893,-12.8716,0.2758,0.1849,-0.3343,89,22.424,432,7.2,-2.7456,-15.4873,-0.202,-0.9897,-0.3853,51
22.345,431,7.6138,0.5109,-11.5369,0.0014,-0.0801,0.2765,89,22.476,433,10.3722,0.381,-8.7061,-0.078,-1.3471,-0.2016,51
22.397,432,10.8227,0.3193,-10.6336,-0.6742,-0.7276,-0.0803,89,22.528,434,12.6788,2.1227,-10.7516,0.2506,-0.8214,0.1153,51
22.449,433,7.4092,-1.6632,-6.8453,-1.1486,0.1024,0.5353,89,22.58,435,14.3708,-1.0268,-11.4264,0.8576,0.0855,-0.52,51
22.501,434,6.7837,-0.1753,-6.2144,-0.1699,0.7289,0.7063,89,22.632,436,13.628,1.5053,-13.2847,1.1073,0.7141,-0.9186,51
22.553,435,7.9889,0.9886,-7.1459,0.5525,0.9016,0.4443,89,22.683,437,9.7982,0.8902,-11.3167,0.1311,0.4581,-1.0642,51
22.604,436,5.0208,3.9384,-13.2203,1.0798,0.8963,-0.0183,89,22.735,438,10.8274,-1.6676,-9.3118,-0.0893,0.5623,-1.3694,51
22.656,437,5.3226,8.2263,-17.6536,1.2783,-0.019,-0.3369,89,22.787,439,9.5009,-2.0073,-8.3216,-0.4278,0.9659,-1.2519,51
22.708,438,6.3004,5.519,-17.4398,0.8436,-0.0649,-0.2349,89,22.839,440,12.0515,-1.4337,-14.0546,-0.4611,1.3899,-0.3353,51
22.76,439,7.1122,4.52,-16.938,0.6301,0.5548,-0.137,89,22.891,441,11.8853,-0.8257,-16.0219,-0.4703,0.933,-0.2519,51
22.812,440,9.2702,2.7514,-17.4837,0.3532,1.0833,-0.0831,89,22.942,442,9.4643,-0.1605,-18.8448,-0.151,0.9623,-0.1787,51
22.863,441,12.0315,0.0042,-20.7652,0.475,1.4124,0.3748,89,22.994,443,10.8161,0.9479,-20.5525,-0.2407,1.3873,0.3148,51
22.915,442,10.822,-0.2179,-22.3527,-0.056,0.3574,-0.122,89,23.046,444,5.486,-0.3685,-22.9813,-0.7578,0.3457,0.0771,51
22.967,443,10.9121,0.8137,-17.1079,-0.0841,-0.4125,-0.4446,89,23.098,445,6.0423,-0.3361,-19.7261,0.1134,-0.4145,-0.27,51
23.019,444,10.2049,-1.4118,-9.902,-0.2022,-0.3752,-0.4012,89,23.149,446,6.0309,-1.4375,-14.7984,-0.0234,-0.9693,-0.3107,51
23.071,445,12.7137,2.7313,-8.1139,-0.0821,0.0093,-0.3486,89,23.201,447,6.0481,0.0736,-8.1928,-0.3243,-0.9376,-0.0288,51
23.122,446,14.5448,-2.5999,-7.396,-0.5342,-0.5088,-0.7113,89,23.253,448,9.5314,-1.7329,-12.1783,0.3887,-0.5155,0.6593,51
23.174,447,10.5484,-2.1068,-7.6815,-1.0651,-0.1464,-0.2784,89,23.305,449,11.421,-1.4887,-12.3313,0.6618,0.2226,0.2046,51
23.226,448,9.7416,-2.2336,-6.4678,-1.4526,0.1239,0.0864,89,23.357,450,9.1655,2.1689,-12.3201,1.1577,0.413,-0.0069,51
23.278,449,8.3945,-0.6495,-7.0553,-0.3836,0.5882,0.0469,89,23.408,451,7.2414,0.5268,-9.3916,1.5196,0.6065,-0.5163,51
23.329,450,6.6872,1.1331,-9.1535,0.3966,0.7092,-0.5015,89,23.46,452,5.9661,2.159,-8.2187,0.5161,1.0301,-0.7424,51
23.381,451,8.4967,-4.4101,-4.0966,0.2581,0.8581,-0.0944,89,23.512,453,6.8034,1.7457,-9.3785,-0.3004,1.3143,-0.4573,51
23.433,452,7.9977,-8.1871,-7.3222,0.0762,0.0318,-0.1314,89,23.564,454,6.9107,2.1472,-12.0215,-0.8963,1.1707,-0.3515,51
23.485,453,8.9255,-4.9062,-9.9311,-0.025,0.6939,-0.2484,89,23.616,455,-0.4233,6.8593,-16.755,0.0205,0.7813,-0.2703,51
23.537,454,10.5912,-2.67,-10.4553,-0.1616,1.0199,0.1306,89,23.667,456,3.2146,3.3309,-17.3008,0.0618,0.0837,0.1447,51
23.588,455,12.1255,-4.6604,-15.6357,0.3328,1.0788,-0.0545,89,23.719,457,7.4635,2.5464,-16.6604,0.0598,0.625,-0.1296,51
23.64,456,7.9873,-0.8285,-16.4508,-0.4324,0.1733,0.2621,89,23.771,458,7.2096,7.1506,-16.957,-0.1829,1.1411,0.4979,51
23.692,457,6.175,-1.7968,-13.506,-0.9908,-0.5469,-0.1707,89,23.822,459,3.6551,3.7583,-17.0224,-0.4544,0.6135,0.0149,51
23.744,458,4.9838,-2.713,-11.0479,-1.3983,-1.0725,-0.347,89,23.874,460,2.9601,2.7271,-15.9042,0.0441,-0.219,-0.3698,51
23.796,459,8.9031,-2.3081,-7.4573,-0.3492,-0.5044,0.2994,89,23.926,461,3.2674,2.1438,-13.5029,0.7069,-0.8266,-0.7071,51
23.847,460,11.7449,0.3272,-9.8424,-0.2135,-0.9936,0.082,89,23.978,462,4.7792,4.9681,-7.2473,1.1874,-0.5039,-0.6085,51
23.899,461,13.8377,-0.4777,-9.3406,-0.4876,-0.5739,0.1933,89,24.03,463,8.6054,1.8037,-7.4346,0.9559,-0.7173,0.0987,51
23.951,462,11.3551,-0.2647,-10.6548,-0.0867,-0.2184,0.0466,89,24.081,464,10.0717,2.0792,-7.8439,0.5294,0.1068,0.1708,51
24.003,463,8.5399,0.4079,-8.705,0.6132,0.3386,0.2471,89,24.133,465,8.0713,4.1222,-8.4128,-0.1826,0.0862,0.3496,51
24.055,464,7.5335,0.2354,-8.6277,1.1219,0.9255,0.1995,89,24.185,466,6.4921,2.1804,-6.4495,0.5414,0.5461,0.174,51
24.107,465,6.1428,0.8942,-9.719,1.4953,1.2501,0.1674,89,24.237,467,5.7679,2.2785,-6.4396,1.0698,1.0835,-0.0373,51
24.158,466,7.7567,-0.0973,-15.0983,1.7679,0.3092,0.1451,89,24.288,468,5.7071,2.6317,-7.9593,0.1173,1.3065,-0.2478,51
24.21,467,10.1818,2.5381,-17.0659,1.2084,-0.4472,0.4658,89,24.34,469,4.9856,2.0435,-10.9663,-0.5915,0.7887,-0.1159,51
24.262,468,11.3282,2.634,-15.2908,0.8106,0.1288,0.4135,89,24.392,470,0.22,0.0521,-13.2912,-0.1778,0.0343,-0.1761,51
24.314,469,13.5336,0.8381,-14.0725,-0.0836,0.7723,0.6446,89,24.444,471,5.2778,-0.8331,-15.5124,-0.2239,0.71,-0.1446,51
24.366,470,10.493,-0.7586,-16.467,-0.7031,0.3229,0.9915,89,24.496,472,5.5151,4.6841,-19.3028,0.3588,1.2031,0.5157,51
24.417,471,8.4513,-1.674,-15.584,-1.1884,-0.4377,0.5169,89,24.547,473,4.5057,3.9091,-21.8275,0.9366,0.2422,0.1486,51
24.469,472,6.2701,-1.1713,-11.5632,-1.5425,-0.9929,0.2364,89,24.599,474,7.174,3.9477,-19.0848,0.9697,-0.49,-0.1088,51
24.521,473,4.5284,-0.3454,-14.8918,-1.801,-1.3613,0.552,89,24.651,475,5.7097,-1.2092,-12.7532,0.1892,-0.9921,-0.3703,51
24.573,474,8.5708,3.1826,-14.7973,-0.7936,-1.6653,0.001,89,24.703,476,6.2979,0.8744,-9.7039,0.8127,-0.6733,-0.1979,51
24.624,475,9.4205,4.0275,-16.7637,-0.6697,-0.5912,-0.0597,89,24.755,477,9.7138,0.2445,-5.8004,0.7015,-1.0952,-0.2889,51
24.676,476,12.1412,5.2255,-13.685,-1.1417,0.2389,0.1855,89,24.807,478,12.2068,-0.2607,-8.4302,1.0619,-0.6005,-0.236,51
24.728,477,6.7115,1.4681,-16.561,-0.2804,-0.0535,0.0078,89,24.858,479,14.0264,-0.5069,-8.5497,0.6982,-0.2137,-0.1776,51
24.78,478,5.6072,1.4657,-11.6059,0.4719,-0.0197,-0.0328,89,24.91,480,10.876,0.8934,-9.2689,0.5478,-0.0002,-0.3664,51
24.832,479,3.8541,0.887,-11.2014,1.0209,0.5533,-0.1788,89,24.962,481,8.754,0.2226,-7.1854,0.6299,0.5612,-0.2666,51
24.883,480,8.0786,-4.5707,-10.1609,1.3945,-0.2696,0.3054,89,25.014,482,7.3288,0.792,-7.2648,-0.2174,1.0945,0.0008,51
24.935,481,5.7826,-5.6327,-13.1421,0.816,-0.7349,0.4192,89,25.065,483,7.1677,0.4702,-8.4663,-0.8357,1.3063,0.3388,51
24.987,482,7.0667,-3.702,-13.6741,0.562,-0.4392,0.2609,89,25.117,484,7.456,5.6353,-14.1602,-0.2675,0.6245,-0.0863,51
25.039,483,6.7726,-3.0448,-15.835,0.2643,0.3134,0.0287,89,25.169,485,9.628,4.1149,-15.0246,-0.2577,-0.0343,-0.0306,51
25.091,484,8.4182,-1.4476,-16.5012,-0.2065,0.9071,0.0144,89,25.221,486,9.659,3.3967,-15.0996,-0.3984,0.6599,0.2596,51
25.142,485,9.1739,-1.7494,-18.6524,-0.2855,1.1897,0.3724,89,25.273,487,9.841,2.7664,-14.6429,-0.4748,1.1666,0.5665,51
25.194,486,8.9789,-0.5739,-17.779,-0.4321,0.1949,-0.1294,89,25.324,488,8.6822,4.5741,-17.6542,-0.3004,1.0889,0.4209,51
25.246,487,8.687,-0.3955,-12.9451,-0.5342,-0.5312,-0.4372,89,25.376,489,6.466,3.5305,-18.3791,-0.8963,0.1279,0.1332,51
25.298,488,9.4797,-2.4198,-7.6136,-0.9127,0.1457,-0.1281,89,25.428,490,8.2267,2.1382,-15.1869,-0.414,-0.5734,-0.5742,51
25.35,489,12.1476,-0.9208,-9.3291,-0.6793,0.4244,-0.1466,89,25.48,491,7.5053,6.8527,-19.0652,0.3725,0.2468,-0.6261,51
25.402,490,12.0742,-5.0032,-9.579,-0.6884,0.3064,-0.4909,89,25.531,492,3.2295,5.8343,-21.2176,0.4077,-0.2179,-0.1847,51
25.453,491,11.2576,-4.1932,-11.1635,-1.1777,-0.2449,-0.364,89,25.583,493,5.4858,5.2432,-20.1093,-0.0264,0.5259,0.5455,51
25.505,492,9.25,-5.2426,-7.8624,-1.5347,0.1267,0.3781,89,25.635,494,7.4995,4.4173,-21.4404,0.1662,1.0688,0.7011,51
25.557,493,8.2075,-2.5537,-9.6637,-0.4436,0.7674,0.4751,89,25.687,495,4.8801,4.4176,-21.2495,0.796,0.1133,0.3632,51
25.609,494,7.5546,-0.2274,-12.8387,0.3528,0.5337,0.1269,89,25.739,496,5.4489,2.112,-17.4998,0.5463,-0.5841,0.0578,51
25.66,495,10.7794,0.6759,-17.3751,0.9277,-0.2838,0.4385,89,25.79,497,3.6492,-0.4213,-14.4078,0.5179,-0.8555,0.2908,51
25.712,496,8.6946,-1.3524,-18.1064,0.4359,-0.421,0.5149,89,25.842,498,6.9093,-0.8512,-12.3168,-0.2735,-0.7476,0.4459,51
25.764,497,10.0508,0.6503,-17.2616,0.0367,0.3689,0.3344,89,25.894,499,9.8309,0.5012,-13.2927,0.2221,-0.5895,0.0807,51
25.816,498,10.0352,-0.5491,-14.6933,-0.4752,0.9476,0.4689,89,25.946,500,9.6445,-1.1939,-11.6142,-0.0043,-0.4245,-0.1882,51
25.868,499,2.949,-0.2874,-15.4212,-1.022,1.2111,0.2647,89,25.997,501,8.4585,-1.1861,-8.3947,0.6716,0.3751,-0.0316,51
25.919,500,4.2248,-1.5514,-15.7257,-1.4211,0.2106,-0.2949,89,26.049,502,9.4594,0.4595,-11.1462,0.9334,0.9588,-0.2034,51
25.971,501,3.4688,-5.5666,-8.9182,-0.4417,0.192,-0.0004,89,26.101,503,10.1565,-0.5869,-7.5555,1.1015,0.5043,-0.3097,51
26.023,502,7.7974,-1.9385,-9.4048,-0.1648,-0.0564,0.225,89,26.153,504,11.2675,-1.0966,-7.5787,0.3019,0.6403,-0.2451,51
26.075,503,8.3618,-1.6358,-11.2743,-0.1345,0.2498,0.1184,89,26.205,505,10.2715,0.0931,-8.5939,0.2067,0.4926,-0.6691,51
26.127,504,10.3443,-1.2181,-12.0916,-0.2007,0.4244,-0.3021,89,26.257,506,9.8033,0.8601,-9.3102,0.1474,0.4603,-0.3329,51
26.178,505,9.3886,-0.4757,-11.6301,-0.4177,0.5982,-0.3068,89,26.308,507,9.4628,0.9202,-9.8203,0.1281,0.1769,-0.0697,51
26.23,506,8.0291,-0.4801,-11.6522,-0.1868,0.3103,-0.365,89,26.36,508,9.1396,1.1278,-9.7062,0.2587,-0.4366,-0.1034,51
26.282,507,9.7624,0.7237,-11.3901,0.0087,-0.3334,-0.5163,89,26.412,509,7.4649,1.4577,-12.5344,0.6203,-0.8702,-0.2233,51
26.334,508,12.3513,0.7673,-11.2403,-0.0244,-0.9142,-0.7225,89,26.464,510,8.276,1.7081,-13.7089,0.5136,-0.6848,-0.0609,51
26.386,509,10.6738,0.4975,-12.9608,-0.0659,-1.1003,-0.6964,89,26.515,511,10.7471,2.8451,-13.289,0.4493,0.1548,0.3219,51
26.437,510,8.2363,0.05,-11.9384,0.6175,-0.2199,-0.2951,89,26.567,512,7.5946,2.2173,-12.7488,0.4544,0.1063,0.1143,51
26.489,511,8.9005,0.3988,-11.0373,0.8729,0.5178,0.0211,89,26.619,513,6.9776,1.801,-8.0618,0.1973,-0.0788,-0.2157,51
26.541,512,8.7131,1.1168,-16.0604,1.1478,0.8033,0.034,89,26.671,514,6.6259,-0.9405,-4.5622,-0.0635,0.6269,-0.2893,51
26.593,513,10.7565,-2.625,-9.1476,0.8423,0.9267,0.2316,89,26.722,515,3.7364,4.6057,-11.3109,-0.7234,0.5756,0.2933,51
26.645,514,11.3346,-1.0168,-10.7116,0.7166,0.6011,0.1857,89,26.774,516,7.5715,4.7932,-11.1821,-0.1735,0.1788,0.0953,51
26.696,515,13.5382,-0.3952,-11.9791,0.2582,1.0149,0.1915,89,26.826,517,8.4035,5.4377,-13.942,-0.3742,0.8057,-0.2591,51
26.748,516,15.1465,1.5174,-15.3348,-0.1722,1.0406,0.5573,89,26.878,518,11.0103,5.8839,-13.1506,-0.4136,1.273,0.3746,51
26.8,517,12.6699,0.4327,-18.2824,-0.8009,0.086,0.0371,89,26.929,519,5.1208,6.1038,-17.579,-0.5613,0.6458,-0.0453,51
26.852,518,11.3862,1.6719,-15.1542,-0.154,-0.6106,-0.3974,89,26.981,520,7.7289,4.4578,-17.7359,-0.6304,-0.1954,-0.7015,51
26.904,519,8.2654,5.0755,-10.2608,0.5642,-0.5129,-0.4842,89,27.033,521,6.5361,2.4942,-13.6744,0.1947,-0.8094,-0.9451,51
26.956,520,11.2982,6.1846,-8.7242,0.4921,-1.032,-0.5392,89,27.085,522,9.8877,4.0664,-7.481,0.8168,-1.0408,-0.8266,51
27.007,521,13.3678,4.3474,-11.1956,-0.2638,-0.7383,-0.875,89,27.137,523,12.3337,6.4094,-7.5361,-0.0809,-1.1234,-0.661,51
27.059,522,11.1156,2.0658,-11.6441,-0.0794,-0.4578,-0.7516,89,27.188,524,14.119,2.683,-10.1508,0.5002,-0.7751,-0.568,51
27.111,523,7.9574,2.9917,-6.4067,-0.454,0.1313,-0.374,89,27.24,525,11.6841,1.8413,-10.2071,0.0988,-0.279,-0.2324,51
27.163,524,7.7168,1.4081,-4.5525,-0.9372,0.7742,0.1152,89,27.292,526,8.5569,1.3546,-9.2951,-0.3193,0.1085,-0.0885,51
27.215,525,7.2588,0.6929,-7.5316,-1.1024,1.1505,0.6724,89,27.344,527,6.1909,0.5831,-7.854,0.4416,0.7641,-0.3299,51
27.266,526,10.5636,5.8576,-13.5018,-0.128,0.1663,0.0135,89,27.395,528,6.5539,0.8708,-7.1312,0.733,1.2427,-0.5206,51
27.318,527,7.9361,2.9469,-17.648,-0.2926,0.0914,0.1762,89,27.447,529,6.753,0.4325,-7.7312,-0.1421,1.5919,-0.2575,51
27.37,528,8.9685,2.3364,-16.9555,-0.3308,0.162,0.1005,89,27.499,530,10.0459,-4.9812,-3.0348,-0.1578,0.5014,0.0563,51
27.422,529,9.7472,0.6449,-17.3601,-0.6673,0.7552,-0.036,89,27.551,531,10.0873,-3.0618,-6.7183,-0.0745,0.4295,0.3456,51
27.473,530,11.6917,-0.6188,-17.4689,-0.1629,1.2296,-0.3566,89,27.603,532,10.6583,0.295,-8.5528,-0.4259,0.9985,0.474,51
27.525,531,5.6843,0.7729,-19.682,0.1564,1.3658,0.2852,89,27.654,533,10.1745,0.4495,-9.0766,-0.6543,1.1699,0.4848,51
27.577,532,5.6153,2.9293,-17.6733,0.7756,0.3234,0.0825,89,27.706,534,8.2354,1.4822,-9.3329,-0.4262,1.0865,0.3951,51
27.629,533,9.364,2.3585,-10.3147,-0.0352,-0.3418,0.2456,89,27.758,535,7.1694,2.1666,-9.5799,-0.2911,0.8027,0.31,51
27.681,534,12.1,3.3066,-13.4261,0.407,-0.4494,0.5194,89,27.81,536,9.662,0.7292,-9.0349,-0.2909,0.5218,0.2923,51
27.732,535,13.667,4.5299,-12.4758,-0.0318,-0.3759,0.7107,89,27.862,537,9.8303,0.9176,-9.0299,-0.209,0.5308,0.2904,51
27.784,536,14.2112,2.7732,-11.8445,-0.4474,-0.732,0.2277,89,27.913,538,8.9727,1.094,-9.1867,-0.0219,0.4077,0.2766,51
27.836,537,12.1051,0.2554,-8.3677,-0.5747,-0.6755,0.2016,89,27.965,539,9.0597,1.0639,-9.208,0.0798,0.2293,0.2691,51
