right_leg_timestamp,right_leg_index,right_leg_accel_x,right_leg_accel_y,right_leg_accel_z,right_leg_gyro_x,right_leg_gyro_y,right_leg_gyro_z,right_leg_battery_percentage,left_leg_timestamp,left_leg_index,left_leg_accel_x,left_leg_accel_y,left_leg_accel_z,left_leg_gyro_x,left_leg_gyro_y,left_leg_gyro_z,left_leg_battery_percentage
0.57,11,7.8645,5.9786,-15.1545,0.2663,-0.48,-0.1153,75,0.002,0,6.4363,-7.7071,-17.3797,0.5216,0.4405,0.4291,51
0.622,12,0.4157,7.1841,-19.0653,0.5599,-0.6884,0.3332,75,0.053,1,6.0807,-5.2729,-14.484,1.0553,-0.3453,0.8659,51
0.674,13,2.9734,4.211,-18.4582,0.207,-0.5633,0.0702,75,0.105,2,4.1969,-1.157,-12.6629,0.2825,0.2503,0.6038,51
0.726,14,5.609,4.4712,-17.4579,0.2945,0.2672,-0.0238,75,0.157,3,3.7429,-1.74,-14.3497,0.0435,-0.3763,0.6985,51
0.777,15,5.4813,2.6159,-20.7465,-0.4603,0.4848,0.3264,75,0.209,4,4.1537,2.0813,-13.7139,-0.1066,-0.8322,0.7215,51
0.829,16,2.7756,0.3859,-20.8283,0.2213,-0.3196,-0.1397,75,0.26,5,7.2896,2.0904,-11.1176,0.099,0.0614,0.5319,51
0.881,17,3.4664,-0.0289,-17.4237,0.838,-0.9066,-0.3065,75,0.312,6,10.4375,2.4539,-12.4646,0.3307,0.0082,0.806,51
0.933,18,3.5678,0.7673,-15.1355,0.6185,-1.2643,-0.1131,75,0.364,7,10.0866,0.5759,-14.2105,0.4202,0.1796,0.4009,51
0.985,19,4.4177,-1.8563,-19.0514,0.6349,-1.3945,-0.1788,75,0.416,8,6.3173,3.2108,-13.7384,0.9814,0.816,-0.3788,51
1.036,20,8.49,2.8529,-18.9077,0.4722,-1.0784,-0.1752,75,0.468,9,5.364,4.3515,-12.6824,0.0826,0.0694,-0.9479,51
1.088,21,9.0774,0.8887,-17.1433,-0.0636,-0.2772,-0.1486,75,0.519,10,5.6856,4.1733,-13.1241,-0.6168,-0.4179,-0.9457,51
1.14,22,8.0727,0.6637,-14.3789,-0.1559,0.273,-0.0737,75,0.571,11,4.9105,-0.7296,-16.5925,-1.1272,0.0719,-0.3487,51
1.192,23,8.4493,1.4183,-10.1192,-0.6436,0.8776,0.0538,75,0.623,12,2.0607,-5.8293,-20.0911,-1.1619,-0.2764,-0.1011,51
1.244,24,7.3597,-0.4925,-10.5181,-0.5715,1.3188,0.5497,75,0.675,13,2.3527,-4.484,-19.7196,-0.8851,0.4832,0.0701,51
1.295,25,6.5907,1.502,-12.1106,-0.1011,1.5586,0.3986,75,0.726,14,6.7425,-4.5174,-17.7794,-0.6125,0.0393,-0.1783,51
1.347,26,5.7112,1.5834,-16.8437,0.3902,0.5722,-0.0073,75,0.778,15,8.7562,-6.4772,-20.9294,-0.1297,0.2205,-0.4296,51
1.399,27,1.4683,-1.7533,-20.2982,0.3308,0.7947,-0.4357,75,0.83,16,5.4083,-6.4657,-19.6763,0.58,0.6139,0.1931,51
1.451,28,0.0039,-1.6256,-21.8728,-0.104,1.2584,-0.3578,75,0.882,17,6.2805,-3.9533,-16.042,0.3253,-0.2132,0.8213,51
1.503,29,4.9346,0.997,-20.3522,0.1147,1.5968,0.0217,75,0.934,18,5.1059,-2.6445,-14.0763,-0.4396,-0.33,1.2797,51
1.555,30,6.3563,0.32,-22.8588,-0.2017,1.5663,0.029,75,0.985,19,5.6457,-2.3007,-13.7752,-0.5809,-0.5177,1.3796,51
1.606,31,2.1008,-1.9281,-22.6904,0.218,0.5805,-0.6417,75,1.037,20,9.2378,-1.8945,-18.035,-1.101,-0.7085,1.3883,51
1.658,32,6.147,-0.8,-19.6476,0.8356,-0.2497,-0.5634,75,1.089,21,11.8594,-3.4282,-16.7868,-0.4819,-0.9199,1.0775,51
1.71,33,6.9369,0.2026,-16.6721,-0.0046,-0.8556,-0.182,75,1.141,22,13.6536,-1.5377,-17.9846,0.2703,-0.8277,0.9059,51
1.762,34,7.7134,-2.5733,-10.5271,-0.4678,-0.9372,0.06,75,1.192,23,9.8431,-1.1517,-16.9405,0.7233,-0.6208,0.424,51
1.814,35,10.0508,-1.7479,-13.1891,0.2741,-0.3052,-0.5283,75,1.244,24,7.5664,3.2316,-13.2261,0.1683,-0.1728,-0.2619,51
1.865,36,10.0667,-0.8333,-17.0237,0.3067,-0.2588,-0.3297,75,1.296,25,6.4975,1.9314,-13.3402,-0.5543,-0.7178,-0.4718,51
1.917,37,9.1987,-0.8536,-16.329,-0.1523,0.4894,-0.1417,75,1.348,26,5.5637,-1.3577,-13.5485,-1.0816,-0.0221,-0.1643,51
1.969,38,8.8936,-0.4727,-13.6844,-0.15,0.0524,0.0664,75,1.4,27,7.3471,3.4353,-10.4296,-0.781,0.3309,-0.769,51
2.021,39,6.7916,-0.5514,-11.2925,-0.2535,0.6463,0.176,75,1.452,28,6.9758,2.8075,-12.9394,-0.6913,0.76,-0.4306,51
2.072,40,6.7198,-0.3279,-11.3709,0.403,1.15,0.1634,75,1.503,29,8.3187,0.8332,-12.5938,-0.7441,-0.0111,-0.8102,51
2.124,41,5.7379,-0.9392,-16.3039,0.9707,1.2843,-0.1808,75,1.555,30,9.7869,1.4393,-14.1243,-0.2722,0.3268,-1.2627,51
2.176,42,9.4535,-3.5672,-12.4456,0.0704,1.1077,0.4492,75,1.607,31,7.1336,-1.2019,-16.0716,0.4761,0.3973,-0.9925,51
2.228,43,8.7905,-3.2378,-14.9248,0.3861,0.8762,0.2,75,1.659,32,6.8427,-0.1386,-13.7825,0.7098,0.2099,-0.044,51
2.28,44,10.1998,-1.8114,-14.8196,0.0969,1.3179,0.1624,75,1.71,33,4.6894,0.8413,-12.0115,-0.159,0.2275,0.6482,51
2.331,45,9.7351,-2.6567,-18.8209,-0.5451,1.6402,0.7136,75,1.762,34,7.1611,5.6946,-8.9219,0.2177,-0.1606,-0.1973,51
2.383,46,5.1064,-3.2609,-19.9858,-0.2252,0.5237,0.1124,75,1.814,35,10.3438,3.3457,-14.4928,-0.5182,0.2298,-0.8087,51
2.435,47,8.1826,-1.4162,-18.2063,0.5122,-0.2912,-0.1252,75,1.866,36,12.6667,4.1194,-14.1398,-0.1134,-0.3975,-0.3859,51
2.487,48,7.712,1.181,-15.5646,0.5614,-0.8859,0.233,75,1.917,37,11.8215,4.162,-13.2188,0.3346,0.1743,0.2019,51
2.539,49,10.7422,-1.6279,-16.5343,0.1851,-0.994,0.3951,75,1.969,38,9.7463,3.2221,-10.6166,0.9078,-0.1379,0.142,51
2.59,50,13.1059,-1.8932,-16.1309,0.7673,-0.9735,-0.1525,75,2.021,39,8.3784,7.4049,-8.77,1.0412,0.3193,-0.5677,51
2.642,51,12.4633,-1.9636,-15.5153,-0.0944,-0.0926,-0.0892,75,2.073,40,7.0278,5.9917,-8.4308,0.7015,0.1329,-1.0858,51
2.694,52,10.831,-2.4685,-12.3195,0.3044,0.5671,-0.1305,75,2.125,41,6.4676,2.6104,-9.1323,-0.1651,0.2541,-1.0498,51
2.746,53,8.9719,-0.3372,-9.4571,-0.4531,0.828,0.0609,75,2.176,42,1.7701,7.1973,-12.3014,0.2353,0.312,-1.0997,51
2.798,54,7.6188,-2.0168,-9.0074,-0.7528,1.2248,0.3772,75,2.228,43,1.0734,4.6486,-13.9168,-0.0959,0.6694,-0.7599,51
2.85,55,7.2814,-0.8355,-9.6409,0.1271,1.5229,0.2525,75,2.28,44,3.3946,2.4363,-12.6903,-0.4003,0.4259,-0.8542,51
2.901,56,6.2119,-2.3228,-15.0413,0.7693,1.2628,-0.0066,75,2.332,45,6.9101,2.6808,-12.951,0.3439,0.3702,-1.2296,51
2.953,57,2.7241,-4.1762,-15.845,0.6972,0.5862,-0.341,75,2.383,46,4.3158,-1.9386,-13.0628,0.8771,0.9181,-0.8027,51
3.005,58,5.2328,-3.8859,-16.2691,0.2643,0.5467,-0.1296,75,2.435,47,5.7593,-1.5007,-12.0153,1.3103,0.2738,0.0945,51
3.057,59,9.0849,-2.1948,-15.6008,0.269,0.9591,-0.1907,75,2.487,48,4.4041,0.0297,-10.5049,0.2792,0.5288,0.7493,51
3.108,60,10.4549,-3.2088,-19.391,-0.453,1.3783,0.2417,75,2.539,49,2.7944,-0.6818,-12.0398,-0.4146,0.3531,1.159,51
3.16,61,5.1076,-2.9793,-20.2393,-0.9991,0.507,-0.1814,75,2.591,50,7.1568,4.3803,-16.5962,-0.5629,0.0374,0.1745,51
3.212,62,7.6913,-2.1512,-17.8726,-0.0527,-0.3034,-0.564,75,2.642,51,10.3406,4.8981,-14.701,-0.1964,-0.3973,0.3988,51
3.264,63,5.6539,0.6706,-17.0318,0.5003,-0.8948,-0.3689,75,2.694,52,11.4576,3.1853,-14.9188,0.2172,-0.5032,0.9673,51
3.316,64,6.5115,-0.8445,-12.4594,-0.2417,-0.8745,-0.2727,75,2.746,53,7.671,4.2558,-14.2745,0.6866,0.2146,0.1968,51
3.367,65,9.925,3.2767,-15.4972,0.1516,-0.6205,-0.4613,75,2.798,54,5.4919,4.2623,-11.9917,0.4563,0.3085,-0.5278,51
3.419,66,12.5095,2.3825,-14.3196,-0.2658,-0.0179,-0.3065,75,2.85,55,5.4056,2.7533,-11.1811,-0.0242,0.5969,-1.0554,51
3.471,67,9.4062,0.9003,-12.0896,-0.1841,0.4828,-0.1701,75,2.901,56,4.9152,1.8383,-10.0606,-0.2408,0.7901,-1.2418,51
3.523,68,9.9804,0.8697,-8.8751,-0.8096,0.6128,0.192,75,2.953,57,8.7046,-3.9551,-15.3239,-0.5199,0.9237,-0.5863,51
3.575,69,8.6432,-0.2895,-8.6466,-0.2867,1.0872,0.4223,75,3.005,58,6.3946,-2.2942,-18.3691,-0.6049,0.7445,-0.5851,51
3.626,70,7.6914,0.8443,-9.7172,0.1772,1.4718,0.3192,75,3.057,59,9.4421,-4.8569,-15.5728,-0.4957,0.2118,-0.7934,51
3.678,71,7.0976,1.2646,-15.0969,0.1431,0.7624,0.3935,75,3.109,60,12.0086,-8.46,-19.039,-0.2701,0.1742,-0.7544,51
3.73,72,8.3164,0.1691,-16.4556,-0.3415,-0.112,0.004,75,3.16,61,9.1603,-6.715,-16.9354,0.4775,0.1226,0.1146,51
3.782,73,8.0299,1.0044,-19.0438,-0.6767,0.3008,0.2337,75,3.212,62,9.0988,-2.7446,-14.0777,1.0164,0.0558,0.764,51
3.834,74,9.0483,0.7423,-19.7584,-0.6373,0.8979,0.2403,75,3.264,63,6.5335,0.1525,-11.1118,0.0648,0.3882,1.2379,51
3.885,75,6.7329,0.1763,-20.0427,-1.052,1.2386,-0.0373,75,3.316,64,8.694,5.4035,-14.7573,-0.3101,-0.3834,0.2407,51
3.937,76,5.3528,-0.1927,-19.2325,-1.0638,0.2306,-0.2886,75,3.367,65,11.4626,6.8671,-10.3329,0.3026,0.4051,-0.1386,51
3.989,77,4.5564,0.3541,-22.0411,-0.4534,-0.5051,-0.5413,75,3.419,66,13.4832,7.7203,-12.5173,0.6373,-0.3711,0.4892,51
4.041,78,6.2358,0.0154,-13.5025,-0.5522,-0.5578,-0.3979,75,3.471,67,10.3099,5.4576,-13.6138,1.0317,-0.051,0.3895,51
4.093,79,9.6811,0.2415,-13.2678,0.1176,-0.0331,-0.8019,75,3.523,68,7.2886,7.5073,-12.5112,1.0688,-0.3527,-0.3854,51
4.144,80,12.1825,-1.9479,-17.6883,-0.3575,-0.4987,-0.5729,75,3.575,69,5.8488,6.2102,-12.1445,0.103,-0.0805,-0.9527,51
4.196,81,10.8232,-1.1769,-16.6386,-0.7275,0.3144,-0.3296,75,3.626,70,4.162,5.8693,-12.8009,-0.5979,-0.0547,-1.2369,51
4.248,82,9.5863,-1.7621,-12.1514,-0.5161,0.0707,-0.1213,75,3.678,71,7.785,-1.0131,-17.3238,-1.0598,-0.4816,-0.9987,51
4.3,83,8.5393,-1.2523,-10.4006,-0.3766,0.5542,-0.0343,75,3.73,72,7.2907,4.1078,-13.247,-0.3429,-0.0259,-0.3865,51
4.352,84,7.3994,-0.5443,-10.4252,-0.0679,1.0828,0.1607,75,3.782,73,7.851,1.6452,-13.7013,-0.3433,-0.131,-0.6952,51
4.404,85,6.1041,0.3692,-14.1327,0.1074,1.4686,0.1661,75,3.833,74,10.8473,3.4693,-14.045,0.2245,-0.3373,-1.1527,51
4.455,86,9.6901,-1.228,-7.7574,-0.2338,0.8356,-0.2089,75,3.885,75,6.8704,-2.7647,-16.2471,0.8385,0.4388,-1.0202,51
4.507,87,12.338,2.8953,-11.1865,0.3449,0.5549,-0.1355,75,3.937,76,9.757,-0.7554,-14.5727,1.2867,0.1756,-0.0642,51
4.559,88,14.2705,2.1573,-12.1065,0.282,0.8165,-0.1034,75,3.989,77,6.3547,2.7409,-11.7822,1.5161,0.8131,0.1928,51
4.611,89,13.59,0.3402,-16.8407,0.1089,0.8468,0.3476,75,4.041,78,5.7375,2.1817,-10.2511,0.8654,0.1691,0.4099,51
4.663,90,5.5618,-1.8416,-15.258,0.6265,0.4096,-0.2948,75,4.092,79,8.9416,2.5697,-15.4629,0.3054,0.8084,0.0793,51
4.714,91,9.3195,-0.5704,-13.9895,0.7385,-0.3744,-0.5303,75,4.144,80,11.6433,3.8806,-15.1843,0.5884,0.013,0.4486,51
4.766,92,8.0115,0.6496,-10.2175,1.01,-0.901,-0.3525,75,4.196,81,11.8973,3.5303,-14.997,0.9188,-0.1541,0.9692,51
4.818,93,11.1129,1.4891,-13.2207,1.3863,-1.0761,0.2254,75,4.247,82,9.4947,4.3854,-12.6746,0.864,-0.1858,0.3907,51
4.87,94,13.3764,2.7555,-13.4885,0.9256,-0.6504,0.3691,75,4.3,83,7.5292,4.9069,-12.0956,-0.0465,-0.6363,0.08,51
4.922,95,12.8031,0.6914,-12.8285,0.6077,-0.3753,-0.0427,75,4.351,84,6.0009,4.4809,-11.6993,-0.711,-0.3669,-0.613,51
4.973,96,10.7616,1.4619,-10.6239,0.3432,0.2916,-0.0609,75,4.403,85,5.8492,2.4821,-11.99,-1.196,-0.3522,-0.87,51
5.025,97,10.4047,2.8182,-7.5315,-0.1263,0.8307,-0.1114,75,4.455,86,7.6286,-3.4852,-16.732,-0.4177,-0.1292,-0.2971,51
5.077,98,9.1157,1.4809,-8.1812,-0.5532,1.2846,-0.0893,75,4.506,87,9.6499,-5.6398,-18.3044,-0.2336,0.0386,-0.2108,51
5.129,99,8.2895,1.8437,-9.2487,-0.13,1.6159,-0.2755,75,4.558,88,11.1634,-4.1486,-16.6303,-0.1816,-0.3511,-0.3645,51
5.18,100,5.9498,-0.4925,-14.755,-0.5899,1.4723,-0.2862,75,4.61,89,12.4872,-4.4659,-17.7896,-0.1332,-0.0702,-0.4812,51
5.232,101,4.5107,-1.5693,-18.7737,-0.175,0.6665,-0.7521,75,4.662,90,8.267,-5.7767,-17.2216,0.5442,0.534,-0.3512,51
5.284,102,6.2029,-0.9887,-20.6314,-0.4158,1.1567,-0.5789,75,4.714,91,9.7223,-3.4386,-15.4123,0.9084,0.0383,0.4241,51
5.336,103,8.426,0.0926,-19.1969,-0.5402,1.5226,-0.4069,75,4.765,92,7.3302,-0.5588,-12.4081,-0.0134,0.006,0.9898,51
5.388,104,6.8427,-0.3325,-22.0156,-0.7099,1.2744,-0.3452,75,4.817,93,5.0075,1.7619,-8.4911,-0.255,0.6541,0.2864,51
5.439,105,5.8237,-0.3113,-21.4564,0.0495,0.2567,-0.2963,75,4.869,94,8.1096,1.461,-11.5346,-0.0731,1.1623,0.4255,51
5.491,106,9.5161,0.1974,-14.0672,0.6567,-0.486,-0.1036,75,4.921,95,10.8768,1.7427,-13.0206,0.3183,0.1815,0.9485,51
5.543,107,9.8966,3.1897,-9.2364,-0.1023,-0.8155,0.2233,75,4.973,96,9.9539,0.9412,-13.3063,0.6409,0.2096,0.7516,51
5.595,108,12.1704,-2.7358,-14.3751,0.5991,-0.0852,0.0622,75,5.024,97,7.5511,3.2261,-10.7456,1.1425,0.0056,-0.1229,51
5.647,109,14.1482,-2.243,-18.1951,-0.238,-0.097,0.4331,75,5.076,98,6.9236,3.4217,-10.7595,1.2708,-0.129,-0.7545,51
5.699,110,11.2698,-2.7522,-18.7579,0.2513,0.4238,-0.0114,75,5.128,99,5.54,3.7496,-9.9549,1.1959,-0.7306,-1.222,51
5.751,111,9.1215,-0.015,-11.1063,0.6118,0.9829,-0.2132,75,5.18,100,9.1606,-2.5602,-4.6578,0.2534,-1.1458,-0.8944,51
5.802,112,8.4383,-1.8812,-9.4675,-0.2287,1.3373,-0.0634,75,5.231,101,6.1959,-0.0072,-10.9679,-0.1915,-0.9366,-0.457,51
5.854,113,7.9889,-1.414,-9.2522,-0.1532,1.6543,0.0597,75,5.283,102,5.9967,-0.9305,-12.9284,-0.3875,-0.6204,-0.5681,51
5.906,114,7.0521,-1.7916,-14.7575,0.5301,1.4615,-0.1774,75,5.335,103,7.6805,-0.8468,-13.2432,-0.4751,-0.2841,-0.7421,51
5.958,115,10.4127,-3.9704,-11.9568,0.5637,1.1844,0.4086,75,5.387,104,9.0092,-5.9148,-17.6467,-0.7914,0.4639,0.059,51
6.01,116,6.9135,-3.0364,-13.3161,0.162,1.5414,0.6529,75,5.439,105,6.5056,-6.0783,-17.576,0.097,-0.2169,0.7179,51
6.061,117,5.9583,-2.13,-13.9445,0.505,1.0978,0.1777,75,5.49,106,5.8629,-2.8478,-15.4349,0.4551,-0.0907,1.2043,51
6.113,118,7.7769,-2.7705,-17.9868,-0.3063,1.4796,0.6093,75,5.542,107,4.3934,-1.8371,-13.3283,0.0605,-0.0807,1.4754,51
6.165,119,4.9248,-1.4943,-15.891,0.235,1.7186,-0.0139,75,5.594,108,5.344,3.9514,-16.7863,-0.4376,-0.1357,0.641,51
6.217,120,4.1959,-0.6594,-16.625,0.5442,0.5809,-0.5301,75,5.646,109,9.0176,4.4601,-14.0226,-0.0271,-0.2402,0.7387,51
6.268,121,8.3281,0.9088,-11.726,0.9793,-0.2494,-0.455,75,5.697,110,11.0778,5.4207,-14.0809,0.6527,-0.7506,1.2195,51
6.32,122,9.2939,4.0914,-9.1449,1.2687,-0.7698,-0.6504,75,5.749,111,8.0715,2.4201,-14.0725,0.664,-0.0144,0.5868,51
6.372,123,12.0489,2.4667,-10.533,1.1032,-1.044,-0.4685,75,5.801,112,5.4207,6.014,-13.1619,1.1593,-0.0822,-0.2431,51
6.424,124,13.8693,0.9418,-7.5829,0.4828,-1.4354,-0.6196,75,5.853,113,5.6386,5.0689,-11.4682,1.0848,-0.3474,-0.8488,51
6.476,125,10.7872,0.0022,-10.2007,0.7085,-0.372,-0.641,75,5.905,114,7.0416,3.8716,-9.2955,0.1184,-0.5223,-1.1863,51
6.528,126,9.2037,0.7648,-7.7034,-0.1359,0.0879,-0.3432,75,5.957,115,6.4932,-2.4711,-14.7654,-0.5906,0.3038,-0.5059,51
6.579,127,8.1744,0.1526,-7.0846,-0.6359,0.741,-0.0205,75,6.008,116,6.5791,-6.5391,-8.1687,-0.7611,0.9067,0.2639,51
6.631,128,8.0338,0.1565,-8.0794,-0.4817,1.2192,0.3958,75,6.06,117,6.9493,-5.4428,-8.3181,-0.5506,0.85,-0.0911,51
6.683,129,7.5869,2.588,-13.9016,0.2799,0.4397,0.0056,75,6.112,118,10.1892,-9.0376,-11.4515,-0.2868,1.1304,-0.4506,51
6.735,130,6.0189,-2.0189,-18.1509,-0.0678,-0.3525,-0.6686,75,6.164,119,6.4283,-9.964,-14.054,0.4346,1.0982,0.2165,51
6.786,131,8.4279,-1.4406,-19.6272,-0.3641,0.4012,-0.3893,75,6.215,120,8.9237,-7.1767,-13.8915,0.9919,0.3265,0.8384,51
6.838,132,8.6541,-0.59,-18.9816,0.1094,0.7645,-0.475,75,6.267,121,6.5603,-2.637,-11.027,0.4475,0.7799,1.2829,51
6.89,133,7.746,-2.4172,-21.8585,0.303,0.5995,-0.4431,75,6.319,122,7.4529,1.8269,-9.5123,-0.3505,0.4983,1.0099,51
6.942,134,4.977,-1.7924,-20.9781,0.8976,-0.2358,-0.2505,75,6.371,123,10.5568,3.6475,-14.9237,-0.7163,-0.0282,0.0812,51
6.994,135,6.4799,-0.3197,-17.3691,1.2245,-0.6851,-0.0395,75,6.423,124,12.8221,4.2405,-13.7091,-0.2671,-0.6874,0.6955,51
7.045,136,8.6846,3.2752,-11.5946,0.3679,-1.0905,0.2158,75,6.474,125,12.0463,3.0074,-14.6173,0.3396,-0.2928,1.0938,51
7.097,137,11.6041,1.8698,-10.6139,0.8587,-0.8631,0.2155,75,6.526,126,8.5688,3.4669,-12.2901,0.6413,-0.2408,0.9332,51
7.149,138,13.735,1.1095,-12.9865,0.0834,-1.0558,0.2093,75,6.578,127,7.4339,3.943,-11.6632,0.2163,0.4514,0.0951,51
7.201,139,13.1842,0.0097,-13.7738,-0.2173,-0.8614,0.2398,75,6.63,128,4.7405,5.5142,-9.7704,0.3227,0.6516,-0.602,51
7.253,140,10.596,2.6186,-7.4687,-0.8185,0.0473,0.5452,75,6.682,129,4.9866,2.7492,-12.1999,-0.4416,0.3833,-1.1108,51
7.305,141,10.8829,-0.2792,-7.8506,-1.2726,0.7129,1.0723,75,6.733,130,8.7568,7.2986,-8.5748,0.1204,0.9641,-0.6663,51
7.356,142,10.4436,0.0686,-8.8325,-0.2524,1.1986,1.1688,75,6.785,131,9.9873,7.1473,-6.7964,0.3835,0.1712,-0.9132,51
7.408,143,8.7238,1.5655,-11.6984,0.4237,1.5532,0.7569,75,6.837,132,10.3775,5.1186,-9.1818,0.1545,0.24,-1.0016,51
7.46,144,9.4583,-1.8911,-9.441,-0.0832,1.0119,0.0181,75,6.889,133,12.128,-1.561,-14.6825,0.2844,0.315,-0.6402,51
7.512,145,12.1688,0.1295,-12.1777,0.5128,0.9353,0.1464,75,6.941,134,8.1968,-3.1305,-15.5238,0.8823,0.4561,0.2131,51
7.564,146,10.7551,0.5504,-12.5724,0.6655,0.8326,-0.091,75,6.992,135,10.9092,0.7065,-14.5045,1.3186,-0.1753,0.8359,51
7.615,147,12.9317,0.2001,-17.1808,0.0024,0.3612,0.4349,75,7.044,136,6.4926,5.8078,-10.8023,0.2853,0.557,0.7545,51
7.667,148,7.5777,-0.6637,-18.138,0.1495,-0.2406,-0.3104,75,7.096,137,9.8559,1.5878,-15.8652,-0.3769,-0.0222,-0.1177,51
7.719,149,9.5707,-0.1669,-14.3031,0.3123,-0.849,-0.2323,75,7.148,138,12.3105,4.0081,-15.5931,0.0347,-0.6247,0.3449,51
7.771,150,8.6327,0.6158,-7.9746,0.0415,-1.1542,-0.0637,75,7.2,139,11.6687,4.0252,-17.2657,0.6978,-0.6328,0.9321,51
7.823,151,11.4913,-4.4051,-13.8251,0.5648,-0.4405,0.125,75,7.252,140,8.4799,3.3891,-15.1785,1.1006,0.099,0.8035,51
7.874,152,13.6526,-3.6214,-13.8677,-0.263,-0.2718,0.2401,75,7.303,141,7.4579,5.4991,-12.5987,0.2665,0.192,0.1468,51
7.926,153,13.6509,-2.1868,-14.0371,-0.4681,-0.1018,0.3166,75,7.355,142,6.1802,4.5546,-11.5814,-0.4826,0.1007,-0.1828,51
7.978,154,9.3108,-2.2859,-9.956,-0.7052,0.59,0.0543,75,7.407,143,4.2424,3.5303,-12.2783,-1.0293,0.7016,-0.5864,51
8.03,155,8.7361,-1.345,-9.313,-0.0785,1.1089,0.1223,75,7.459,144,3.9469,7.8687,-16.9425,-1.2216,1.0459,-1.0964,51
8.081,156,8.2116,-0.2754,-9.5278,0.6192,1.4877,0.166,75,7.511,145,5.8162,6.489,-15.0374,-0.5996,0.3136,-1.0469,51
8.133,157,7.0813,-0.0501,-12.2325,0.59,1.6482,0.0325,75,7.562,146,8.8385,4.7383,-13.8452,-0.2358,0.0593,-1.0532,51
8.185,158,10.434,-4.0498,-16.9327,1.0992,0.5295,0.5686,75,7.614,147,11.1098,-1.8385,-18.0861,0.4125,0.5311,-0.9989,51
8.237,159,12.7751,2.2687,-17.3394,1.2061,0.7803,0.2531,75,7.666,148,8.1709,0.0904,-18.2499,0.9758,-0.1722,-0.0487,51
8.289,160,10.4897,2.9044,-16.9232,1.1456,0.4123,0.3127,75,7.718,149,8.0031,3.0567,-14.4405,0.0761,0.4195,0.6448,51
8.34,161,12.4969,1.635,-17.1837,0.1609,0.9793,0.7441,75,7.77,150,1.9834,4.4917,-10.3494,-0.0625,0.9911,0.4842,51
8.392,162,5.9433,1.156,-15.0089,-0.0984,1.3878,0.5291,75,7.821,151,6.5648,4.2099,-15.5346,-0.6638,0.0566,-0.1729,51
8.444,163,6.3737,0.4146,-15.2356,0.6047,0.3395,0.0995,75,7.873,152,9.6074,4.2459,-12.8943,-0.3783,-0.2315,-0.2166,51
8.496,164,5.0242,1.8571,-12.3009,1.1178,-0.4256,-0.0132,75,7.925,153,12.0935,4.6598,-12.9423,0.1872,-0.3697,0.1598,51
8.548,165,5.761,1.4306,-6.4609,0.1406,0.0605,0.3198,75,7.977,154,9.8541,2.2942,-13.8631,0.3234,-0.3971,-0.0666,51
8.6,166,9.4704,-0.2918,-8.5345,0.524,-0.2491,0.215,75,8.029,155,8.0279,5.2029,-12.6137,0.9107,-0.2792,-0.72,51
8.651,167,12.1777,-1.1837,-10.5143,-0.0665,0.0828,0.4777,75,8.08,156,6.0278,5.4875,-11.4988,0.3582,-0.6867,-0.937,51
8.703,168,12.3627,0.2263,-12.8122,0.0188,0.2291,0.5899,75,8.132,157,5.2571,3.0642,-11.3221,-0.4157,-0.7393,-0.9268,51
8.755,169,8.7067,1.1089,-7.274,0.0051,0.4082,0.2881,75,8.184,158,8.9542,-3.0604,-5.6556,-0.9804,-0.3981,-0.0135,51
8.807,170,8.2812,-0.3789,-7.4066,-0.6715,0.9763,0.3816,75,8.236,159,9.2296,1.9805,-11.1189,-0.5681,-0.9573,-0.562,51
8.859,171,7.5052,-0.6068,-8.7121,0.1575,1.3483,0.2487,75,8.287,160,9.0914,0.1354,-12.6491,-0.3096,-1.2234,-0.6997,51
8.91,172,6.0252,-0.7237,-14.0044,0.7868,1.4446,-0.1294,75,8.339,161,9.2868,0.8032,-14.0603,-0.067,-0.832,-1.0889,51
8.962,173,4.8723,-5.7601,-7.637,0.0889,1.4189,-0.0123,75,8.391,162,9.0221,-4.7106,-18.243,0.3316,0.0777,-1.033,51
9.014,174,5.6555,-6.953,-9.6078,-0.481,1.5709,0.4575,75,8.443,163,7.8279,-4.5858,-17.0375,0.7825,-0.6101,-0.0736,51
9.066,175,9.3934,-4.5267,-8.1508,-0.7211,1.5496,0.2904,75,8.495,164,6.6162,-0.7667,-14.0448,0.4455,-0.1031,0.6266,51
9.118,176,8.1906,-3.6053,-13.9537,-1.2015,1.4776,0.4984,75,8.546,165,4.1143,-0.6075,-11.9553,0.1505,0.3715,0.3855,51
9.169,177,5.5283,-5.3224,-16.0932,-0.6388,0.405,-0.3103,75,8.598,166,8.1201,4.8488,-14.3545,-0.2917,-0.1971,-0.3901,51
9.221,178,6.4813,-2.6386,-15.5864,0.2103,-0.3778,-0.5137,75,8.65,167,11.0437,4.5836,-13.2066,-0.0436,-0.3035,-0.215,51
9.273,179,5.8259,-1.7041,-15.4796,-0.2533,-0.9491,0.0374,75,8.702,168,11.605,3.7672,-12.4953,0.2851,0.0054,0.2508,51
9.325,180,5.6624,-1.1215,-13.4796,-0.6795,-0.6867,0.1261,75,8.754,169,8.7014,3.3099,-10.5447,0.263,0.3564,0.2798,51
9.376,181,9.3984,-0.1908,-17.1443,-0.4023,-0.8734,0.1041,75,8.805,170,6.8029,6.1263,-10.1697,0.8657,0.4198,-0.4672,51
9.428,182,9.2186,-0.6091,-20.4925,-0.4185,-0.184,0.0046,75,8.857,171,6.0627,5.5609,-9.6279,0.4841,0.3963,-0.9486,51
9.48,183,9.0617,-1.2162,-18.8474,-0.1782,0.3219,-0.007,75,8.909,172,5.737,2.6207,-9.3383,0.2662,0.7605,-1.2948,51
9.532,184,8.706,0.2928,-14.3946,-0.8053,0.2041,0.3995,75,8.961,173,9.3044,-3.3841,-14.7967,-0.4828,-0.0082,-1.5421,51
9.584,185,7.2882,-0.5204,-12.1797,-1.1674,0.4754,0.9064,75,9.013,174,7.3151,-2.8844,-16.8038,-0.4911,-0.4854,-1.2139,51
9.635,186,6.3429,0.657,-11.8975,-0.2461,0.7512,1.0611,75,9.064,175,9.8673,-5.6779,-14.3318,-0.2591,-0.4938,-1.3548,51
9.687,187,4.1607,1.7131,-16.6882,-0.1648,1.2266,0.2964,75,9.116,176,12.3189,-9.4408,-16.6853,-0.1855,-0.5447,-1.1846,51
9.739,188,8.3024,2.381,-18.6612,0.5499,1.2357,-0.1198,75,9.168,177,7.9093,-9.0341,-16.0196,-0.3112,-0.0009,-0.2385,51
9.791,189,7.6837,2.5638,-18.5706,0.4256,1.4813,-0.2125,75,9.22,178,9.6776,-5.6475,-13.8049,-0.4219,-0.6675,0.5063,51
9.843,190,10.8554,2.937,-17.4392,0.2284,1.7533,-0.0447,75,9.272,179,6.3128,-3.1061,-12.9197,-0.6079,0.0251,1.0103,51
9.894,191,8.7675,1.955,-20.7328,0.3949,1.7112,-0.2858,75,9.323,180,6.6639,3.0252,-14.2246,-0.4409,-0.5166,0.066,51
9.946,192,5.1992,1.5903,-20.5929,0.9647,0.5755,-0.4477,75,9.375,181,7.3068,3.9016,-10.4346,-0.4816,0.3079,0.1667,51
9.998,193,9.0603,1.3746,-21.7705,1.3288,-0.2534,0.2401,75,9.427,182,8.6963,5.7728,-15.5968,-0.0151,-0.3586,0.7202,51
10.05,194,11.8784,-1.6857,-13.6261,0.4993,-0.804,0.7265,75,9.479,183,8.1495,6.1932,-15.0876,0.6637,-0.7216,1.206,51
10.102,195,9.5807,-4.334,-17.9498,0.7564,-0.8213,-0.1438,75,9.53,184,6.9166,4.8211,-11.5827,0.6433,-0.2199,1.2015,51
10.154,196,12.2582,-4.2919,-16.4928,-0.1218,0.0395,-0.0675,75,9.582,185,5.1185,5.326,-8.991,-0.1523,0.463,0.3895,51
10.205,197,11.6207,-6.8605,-15.0592,-0.6021,-0.1001,0.0618,75,9.634,186,3.0254,4.0107,-8.8212,-0.4638,1.0229,-0.3871,51
10.257,198,7.8595,-4.44,-13.2725,-0.994,0.3184,0.1423,75,9.686,187,7.3253,-2.3696,-14.2648,-1.0156,0.0798,-0.616,51
10.309,199,6.8048,-3.1682,-11.3678,-0.9047,0.6612,0.2833,75,9.738,188,8.3907,-5.4213,-12.2322,-1.0262,0.3219,0.2307,51
10.361,200,6.5524,-1.6748,-10.9319,-0.3038,0.9921,0.4432,75,9.789,189,9.0795,-4.5377,-11.1557,-0.8284,0.3115,-0.0823,51
10.413,201,5.204,0.399,-11.4437,-0.4538,1.2802,0.4095,75,9.841,190,11.3378,-0.4732,-12.287,-0.2918,0.1982,-0.6024,51
10.464,202,9.0639,-2.2703,-5.768,-0.8799,1.276,0.9528,75,9.893,191,7.9898,-5.6422,-16.9488,0.4176,0.8198,-0.8528,51
10.516,203,8.291,-1.6932,-9.0043,-0.8386,1.0763,0.9546,75,9.944,192,8.3267,-5.6769,-14.4025,0.1822,-0.0685,0.0579,51
10.568,204,9.7299,-1.1611,-10.5603,-0.3661,1.4148,0.7958,75,9.996,193,5.9084,-2.6788,-11.769,-0.5441,0.3784,0.7226,51
10.62,205,11.5032,-1.5844,-12.5059,-0.4218,1.7109,0.7072,75,10.048,194,2.8978,-1.7527,-9.6561,-0.7744,0.5154,0.8131,51
10.671,206,5.5224,-0.8265,-12.2475,-0.3272,1.3887,0.6955,75,10.1,195,7.2322,4.013,-10.9699,-1.2414,-0.1947,-0.078,51
10.723,207,5.7133,-0.6368,-12.6423,0.4377,0.3401,0.1512,75,10.152,196,10.3957,5.405,-10.5167,-0.7334,-0.5747,0.0279,51
10.775,208,4.4479,0.2714,-11.1903,0.996,-0.4252,0.0314,75,10.204,197,11.9622,5.5328,-11.2553,0.0511,-0.3698,0.5915,51
10.827,209,5.4151,1.7958,-6.7792,0.7356,-0.4781,-0.0631,75,10.256,198,8.9227,2.9752,-10.8815,0.6316,0.0972,0.5983,51
10.879,210,9.2179,3.6979,-10.0952,0.5187,-1.0045,-0.3255,75,10.307,199,6.4938,5.7199,-10.1658,1.1357,0.5572,-0.2348,51
10.93,211,11.9934,3.3544,-12.007,0.14,-0.4941,-0.1454,75,10.359,200,6.0422,5.1047,-9.6037,0.849,0.3517,-0.8092,51
10.982,212,10.8871,1.2934,-13.8593,0.4747,0.1057,-0.0004,75,10.411,201,5.4037,3.3435,-9.5916,-0.0574,0.1669,-0.8077,51
11.034,213,8.1974,3.416,-9.2664,0.4535,0.1045,0.0326,75,10.463,202,9.0611,-2.8566,-12.8649,-0.5421,-0.1288,-0.5443,51
11.086,214,5.9749,3.0121,-13.9239,0.6697,-0.238,-0.6502,75,10.515,203,9.0234,-4.1999,-8.921,-0.1919,0.3911,-0.2412,51
11.138,215,3.9526,2.1314,-12.1312,0.1618,0.1523,-0.7285,75,10.566,204,11.2385,-5.1034,-8.5989,0.0997,-0.1751,-0.5625,51
11.189,216,3.1133,0.0094,-16.8588,0.4441,-0.148,-1.1546,75,10.618,205,13.3196,-6.8134,-13.6699,0.3223,0.2786,-0.5297,51
11.241,217,7.538,1.2374,-14.4363,0.278,-0.2725,-0.8457,75,10.67,206,8.3023,-6.8204,-14.581,0.9099,0.8155,-0.4089,51
11.293,218,7.0605,1.5074,-17.4336,-0.2843,0.3711,-0.1912,75,10.722,207,7.7979,-2.8827,-13.7817,1.3388,0.7261,-0.1976,51
11.345,219,10.4188,2.8081,-17.6438,-0.6323,0.8855,-0.0557,75,10.773,208,4.8958,-2.0194,-11.8588,0.3,1.2149,0.5361,51
11.397,220,7.6083,1.2979,-20.8821,-1.1367,1.3218,0.0818,75,10.825,209,2.4942,0.7199,-15.1422,-0.3351,0.8007,-0.2801,51
11.448,221,5.5796,0.0084,-20.0992,-1.5048,0.2913,-0.6143,75,10.877,210,0.3212,5.8176,-11.7555,-0.4716,0.9799,0.3853,51
11.5,222,6.207,0.093,-15.7039,-0.653,-0.4608,-0.3835,75,10.929,211,4.6431,4.9359,-10.7911,-0.3751,0.0861,0.8013,51
11.552,223,5.1714,2.3219,-8.8774,0.1912,-0.4248,-0.4052,75,10.98,212,4.8278,4.4815,-15.857,0.4009,-0.4669,0.4977,51
11.604,224,8.883,-3.5205,-10.0391,0.3928,-0.6453,-0.1688,75,11.032,213,2.7605,7.0598,-15.31,0.9673,-0.4136,0.4234,51
11.656,225,11.749,-2.2923,-12.3519,0.3296,-0.6901,-0.1593,75,11.084,214,1.9127,7.5264,-12.7543,0.0289,-0.4431,0.0033,51
11.707,226,11.9762,-3.233,-16.4415,0.9057,-0.4394,-0.1083,75,11.136,215,1.7057,6.2838,-11.9942,-0.6559,-0.9729,-0.4669,51
11.759,227,7.8183,-1.3895,-10.4736,1.1673,0.0712,-0.2678,75,11.188,216,-0.0257,-0.7106,-16.7351,-0.94,-0.2773,0.2163,51
11.811,228,7.4937,-1.401,-8.5613,0.1952,0.6786,-0.2661,75,11.239,217,5.0985,1.1131,-19.1929,-0.5886,-0.8691,0.044,51
11.863,229,6.9084,-2.2743,-8.7235,0.1229,0.9995,-0.0282,75,11.291,218,8.7571,0.7459,-19.2076,-0.0982,-0.8974,-0.1403,51
11.915,230,5.8578,-2.2834,-14.3717,0.7662,1.1031,-0.1827,75,11.343,219,11.5086,2.2112,-18.1376,0.0374,-0.8902,-0.3407,51
11.966,231,6.3408,-5.9585,-15.8489,0.8872,0.4696,-0.3899,75,11.395,220,6.7724,-3.683,-19.8325,0.702,0.0352,-0.6724,51
12.018,232,7.0686,-6.5519,-15.0566,0.6103,0.8391,0.0524,75,11.446,221,7.8295,-2.7067,-18.3527,0.7356,-0.6411,0.1896,51
12.07,233,6.5075,-3.5468,-10.1078,0.5228,0.4288,0.0175,75,11.498,222,5.2432,-1.668,-15.0307,-0.1402,0.2171,0.8187,51
12.122,234,7.8209,-3.997,-15.382,-0.0507,0.8421,0.0619,75,11.55,223,3.3486,0.1353,-12.6762,-0.3542,-0.2439,1.0774,51
12.174,235,2.0528,-3.4551,-15.9447,-0.7113,0.4487,-0.3855,75,11.602,224,7.5613,4.3469,-14.8788,-0.6683,-0.8448,0.1377,51
12.225,236,3.8484,-2.4221,-15.3555,0.1574,-0.3459,-0.4679,75,11.654,225,10.6358,3.5977,-13.7908,-0.3437,-1.1183,0.2882,51
12.277,237,3.2138,-0.3253,-16.9629,0.7914,-0.9259,-0.2551,75,11.705,226,11.1674,3.7535,-13.1798,0.214,-0.6501,0.6858,51
12.329,238,7.6113,2.1179,-16.2916,1.0673,-1.1388,0.2637,75,11.757,227,9.1391,1.3826,-13.6263,0.2418,-0.5357,0.5309,51
12.381,239,10.8208,3.8112,-18.3859,1.0328,-1.4714,-0.123,75,11.809,228,7.0206,3.6621,-13.0566,0.5217,-0.1345,-0.2839,51
12.432,240,8.8302,2.856,-21.4238,0.7251,-1.2121,0.0547,75,11.861,229,4.7145,3.8415,-10.8697,0.4848,0.2057,-0.8786,51
12.484,241,9.1478,1.0127,-18.8424,0.6099,-0.7358,0.246,75,11.913,230,4.5378,3.6188,-9.7254,-0.2722,0.2083,-1.3127,51
12.536,242,9.4545,1.8869,-13.2241,0.0509,-0.9576,0.5269,75,11.964,231,8.3188,-2.6557,-15.0792,-0.4537,0.5595,-1.264,51
12.588,243,6.7588,-0.2996,-11.7546,-0.1628,-0.4252,0.5129,75,12.016,232,8.1568,-7.1547,-12.8846,-0.6123,1.0922,-0.4658,51
12.64,244,5.2738,0.8044,-11.3843,0.5577,0.1031,0.1707,75,12.068,233,11.0705,-7.7902,-10.3884,-0.2248,0.5969,-0.6308,51
12.691,245,9.1148,3.8196,-16.3137,1.0771,-0.5845,-0.1975,75,12.12,234,13.197,-10.9824,-15.5631,0.1963,0.8944,-0.7097,51
12.743,246,9.0232,5.6796,-16.0089,0.7117,0.1982,-0.4166,75,12.171,235,8.3025,-7.6032,-15.0323,0.7949,1.1529,0.1619,51
12.795,247,8.761,5.0775,-18.6726,0.532,0.7184,-0.2471,75,12.223,236,8.488,-5.4873,-11.9986,-0.0968,0.1746,0.7985,51
12.847,248,11.6599,0.4177,-19.3206,-0.2869,1.2027,0.2595,75,12.275,237,7.2752,-4.8911,-12.4623,-0.744,-0.0171,1.2632,51
12.899,249,8.6354,0.6952,-19.1743,-0.8846,1.5561,0.3451,75,12.327,238,4.5805,1.7224,-14.4176,-0.5611,0.1975,0.313,51
12.95,250,6.4801,-0.6047,-18.5629,-1.1442,0.4623,-0.4102,75,12.379,239,7.3747,-1.6721,-12.6464,-0.2552,0.6509,0.7541,51
13.002,251,7.6878,0.3781,-15.0114,-0.1609,-0.336,-0.1219,75,12.43,240,10.4996,-0.4245,-12.4816,0.0431,-0.1917,0.8623,51
13.054,252,5.4773,1.9121,-10.7631,0.1003,0.0738,-0.1575,75,12.482,241,9.0007,-0.6603,-13.3771,0.4381,0.3406,0.9059,51
13.106,253,2.8623,-3.6361,-9.1045,0.5309,0.7222,-0.4566,75,12.534,242,6.9104,-0.0233,-12.405,0.9302,0.0393,0.3744,51
13.158,254,6.6568,-2.2696,-14.6498,0.2431,0.2006,-0.2868,75,12.586,243,5.0501,2.6865,-10.8611,1.1749,0.2976,-0.3856,51
13.209,255,8.0654,-2.3001,-16.1086,0.4532,0.5279,-0.1397,75,12.637,244,4.6051,2.1248,-8.8783,0.806,0.0777,-0.9528,51
13.261,256,11.1522,0.643,-9.3002,-0.0024,0.3346,-0.4514,75,12.689,245,3.4584,-0.2198,-6.7879,-0.077,0.717,-0.9709,51
13.313,257,8.8958,0.7706,-8.2285,-0.677,0.9225,0.007,75,12.741,246,7.6414,5.1317,-6.6064,0.4666,1.1964,-0.4002,51
13.365,258,8.6405,1.7763,-14.0104,-1.0564,1.3517,0.1926,75,12.793,247,7.7839,1.2974,-7.4862,0.7329,0.5258,-0.1991,51
13.417,259,10.0407,3.4642,-13.8316,-0.5968,0.6358,0.3094,75,12.845,248,9.1391,0.3894,-8.724,0.4069,-0.2416,-0.8167,51
13.468,260,9.9498,3.3222,-13.1011,-0.2618,0.2149,0.274,75,12.896,249,9.467,1.9384,-10.8586,0.2315,-0.2768,-1.0362,51
13.52,261,9.6899,0.1895,-12.6566,-0.3772,0.1781,0.2322,75,12.948,250,8.0468,-0.5529,-10.4394,-0.4826,-0.1027,-0.5487,51
13.572,262,9.5339,0.1807,-12.4496,-0.2513,0.1576,0.1776,75,13.0,251,5.837,-0.3375,-14.205,-0.5193,0.027,0.0045,51
13.624,263,9.5374,0.0098,-12.1221,-0.1621,0.0873,0.1674,75,13.052,252,6.7436,-0.2831,-13.9181,-0.4545,0.0669,-0.0207,51
