right_leg_timestamp,right_leg_index,right_leg_accel_x,right_leg_accel_y,right_leg_accel_z,right_leg_gyro_x,right_leg_gyro_y,right_leg_gyro_z,right_leg_battery_percentage,left_leg_timestamp,left_leg_index,left_leg_accel_x,left_leg_accel_y,left_leg_accel_z,left_leg_gyro_x,left_leg_gyro_y,left_leg_gyro_z,left_leg_battery_percentage
0.022,0,6.8067,-3.9036,-17.5392,-1.0481,0.2624,-0.2234,87,0.034,0,9.673,-3.715,-16.2968,-0.4942,0.8329,-0.1359,53
0.074,1,9.0142,-2.3759,-17.4424,-0.0884,-0.4819,0.3873,87,0.086,1,12.1771,-3.4828,-15.2138,0.0383,1.2929,-0.2819,53
0.126,2,8.0532,-0.7682,-14.9839,0.612,-1.0251,0.9604,87,0.138,2,7.5907,2.7503,-16.2176,0.7026,0.4408,0.3756,53
0.178,3,4.9025,1.6444,-13.8299,0.2772,-1.0262,0.9517,87,0.19,3,9.5025,1.9503,-14.2374,-0.1643,-0.3451,0.8789,53
0.229,4,8.8438,2.5346,-10.1136,0.4653,-0.3891,0.873,87,0.242,4,7.3288,2.3664,-11.996,-0.797,-0.9186,0.9249,53
0.281,5,11.3688,1.3554,-14.1875,0.1577,-0.2552,0.6451,87,0.293,5,7.1488,1.1388,-10.8257,-0.4026,-1.2226,0.6726,53
0.333,6,13.3512,0.4877,-13.8008,-0.3895,0.4921,-0.0499,87,0.345,6,10.3348,2.7923,-11.6271,0.2125,-0.3411,-0.022,53
0.385,7,9.2206,1.0725,-11.7969,0.0347,0.83,-0.421,87,0.397,7,12.6601,-0.0595,-9.5282,0.1895,0.1388,0.1316,53
0.436,8,7.2498,4.7295,-8.5161,-0.5764,1.1183,-0.6906,87,0.449,8,13.1235,1.493,-8.7665,0.2737,-0.5212,0.2145,53
0.488,9,7.6165,3.4842,-8.4256,-0.8829,1.4945,-0.8882,87,0.501,9,9.5118,1.9424,-7.4421,0.8606,-0.4298,-0.028,53
0.54,10,7.452,2.5821,-9.7005,-0.6476,1.7691,-0.9674,87,0.552,10,7.9815,3.9708,-5.401,0.9971,0.3713,-0.4972,53
0.592,11,9.493,1.5958,-14.4858,0.2039,0.6638,-1.1878,87,0.604,11,7.8969,3.3914,-6.1024,0.0507,0.956,-0.8173,53
0.644,12,11.4869,6.5166,-15.2029,0.5141,-0.1867,-0.8002,87,0.656,12,9.6128,4.0175,-7.3862,-0.3037,1.3827,-0.8592,53
0.696,13,11.7484,4.3891,-16.0667,0.3859,0.1877,-0.987,87,0.708,13,12.1331,2.1014,-3.4096,-0.2047,0.4747,-0.3808,53
0.747,14,10.4138,0.8918,-17.3855,-0.1737,0.8153,-1.1099,87,0.76,14,13.7751,1.0634,-5.3355,0.1037,0.4409,-0.4687,53
0.799,15,4.8355,-4.5862,-18.8197,-0.802,0.0482,-0.2695,87,0.811,15,10.4332,1.9897,-6.0827,0.1981,0.9844,-0.5077,53
0.851,16,7.5523,-0.2279,-16.0911,-0.5734,-0.6382,0.4721,87,0.863,16,7.4368,3.9257,-4.0482,0.4377,0.863,-0.3933,53
0.903,17,7.1492,2.3488,-9.16,-1.0937,-0.4564,0.5809,87,0.915,17,10.545,1.318,-5.0024,-0.0341,0.1061,-0.3167,53
0.955,18,10.4835,4.1975,-7.3936,-0.1596,0.3315,-0.0487,87,0.967,18,10.0681,2.0561,-5.4097,-0.0871,-0.0845,-0.2726,53
1.006,19,10.0012,1.368,-8.5895,-0.2046,0.3864,-0.006,87,1.019,19,9.4483,2.217,-5.8174,0.0204,-0.2265,-0.1959,53
1.058,20,10.0326,1.0135,-8.5542,-0.2687,0.386,-0.0917,87,1.07,20,9.2818,1.9063,-6.6041,-0.1239,-0.3768,-0.1577,53
1.11,21,9.8814,0.8866,-8.6606,-0.1734,0.0452,-0.0731,87,1.122,21,9.2007,1.7954,-7.044,-0.1807,-0.4422,-0.1102,53
1.162,22,9.7416,0.1651,-9.3961,-0.1932,-0.0313,-0.0281,87,1.174,22,9.0149,1.9828,-7.5007,-0.2574,-0.5276,-0.0679,53
1.214,23,10.0358,0.3352,-9.9865,-0.2146,-0.18,-0.0533,87,1.226,23,9.031,1.8312,-8.0568,-0.2361,-0.5202,-0.0697,53
1.265,24,9.7315,-0.1275,-10.2838,-0.1796,-0.3565,-0.0312,87,1.277,24,8.9814,1.8457,-8.3252,-0.2043,-0.4533,-0.0938,53
1.317,25,9.6682,-0.1069,-10.7738,-0.0482,-0.5171,0.0064,87,1.329,25,8.9802,1.9179,-8.6485,-0.2127,-0.3716,-0.1226,53
1.369,26,9.4428,-0.0603,-11.4516,-0.0232,-0.626,0.0485,87,1.381,26,8.9726,2.0121,-8.9068,-0.1507,-0.2794,-0.1044,53
1.421,27,9.5393,-0.133,-11.9643,-0.0191,-0.7482,0.086,87,1.433,27,8.892,2.0114,-9.0031,-0.0875,-0.1947,-0.0554,53
1.473,28,9.4578,-0.2499,-12.3926,-0.0218,-0.8745,0.1598,87,1.484,28,8.8562,2.0433,-9.0853,-0.0124,-0.1437,-0.0167,53
1.524,29,9.745,-0.1898,-12.4773,-0.0145,-1.0855,0.2867,87,1.536,29,8.8363,2.0283,-9.1917,-0.004,-0.1084,-0.0058,53
1.576,30,9.8673,-0.478,-13.2455,-0.0077,-1.2515,0.4205,87,1.588,30,8.7717,2.0905,-9.199,-0.0099,-0.0769,0.0327,53
1.628,31,9.0141,-0.9136,-13.5166,-0.0565,-1.2158,0.4724,87,1.64,31,8.7916,2.0554,-9.2335,0.054,-0.0817,0.1167,53
1.68,32,8.1081,-0.85,-12.8531,-0.2481,-0.4928,0.3703,87,1.691,32,8.7333,2.0151,-9.2383,0.0999,-0.1104,0.1927,53
1.732,33,8.5178,-0.7569,-12.4704,-0.2034,0.3187,0.2326,87,1.743,33,8.8004,1.8302,-9.3862,0.0783,-0.1588,0.2224,53
1.783,34,8.7845,-0.0651,-12.7804,-0.0312,0.9109,-0.0111,87,1.795,34,8.8398,1.6278,-9.5173,0.0734,-0.1729,0.2172,53
1.835,35,8.3686,-2.687,-17.0758,-0.2951,0.9627,-0.1717,87,1.847,35,8.8347,1.5517,-9.6566,0.0735,-0.1557,0.206,53
1.887,36,8.7058,-1.036,-13.979,-0.0346,0.6434,-0.1856,87,1.899,36,8.8924,1.4101,-9.7691,0.0751,-0.1073,0.1768,53
1.939,37,9.6233,-0.9362,-13.3633,-0.1183,0.7111,-0.1689,87,1.95,37,8.8978,1.3446,-9.7866,0.0646,-0.0527,0.146,53
1.99,38,9.8928,-0.3919,-12.5608,-0.0435,0.6798,-0.1704,87,2.002,38,8.8732,1.3966,-9.6712,0.0656,-0.0334,0.1326,53
2.042,39,9.8918,-0.4343,-12.1041,-0.0655,0.6346,-0.1284,87,2.054,39,8.8812,1.166,-9.555,0.1822,-0.1446,0.2093,53
2.094,40,9.8388,-0.4572,-11.625,-0.0904,0.571,-0.0968,87,2.106,40,9.0464,1.307,-9.3585,0.2317,-0.4342,0.3118,53
2.146,41,9.7668,-0.4842,-11.1629,-0.0831,0.5428,-0.0773,87,2.158,41,8.7145,0.4945,-10.117,0.2214,-0.3593,0.1839,53
2.197,42,9.7662,-0.4401,-10.7777,-0.0461,0.4931,-0.0619,87,2.209,42,8.9525,0.5306,-10.2651,0.0681,-0.0146,-0.0239,53
2.249,43,9.7606,-0.3658,-10.4971,-0.0303,0.419,-0.0496,87,2.261,43,8.8889,0.3935,-10.1481,-0.0145,0.1487,-0.0953,53
2.301,44,9.6816,-0.3896,-10.2387,-0.0329,0.3532,-0.0465,87,2.313,44,8.759,0.8493,-9.7956,0.0033,0.1571,-0.1361,53
2.353,45,9.6746,-0.3116,-10.0583,-0.0027,0.274,-0.02,87,2.365,45,8.895,0.9225,-9.6635,0.0476,0.0744,-0.1473,53
2.405,46,9.7825,-0.3345,-9.8643,0.033,0.2335,-0.0058,87,2.417,46,9.0794,1.0994,-9.6226,0.0923,-0.0015,-0.1477,53
2.456,47,9.7121,-0.3071,-9.7527,0.0036,0.1851,-0.0404,87,2.468,47,9.0742,1.442,-9.4772,0.1803,-0.1618,-0.1019,53
2.508,48,9.7258,-0.3168,-9.7214,-0.046,0.095,-0.0792,87,2.52,48,9.7075,1.6228,-8.6968,0.156,-0.6086,0.0436,53
2.56,49,9.66,-0.1103,-9.747,-0.004,-0.0218,-0.0648,87,2.572,49,9.0822,0.9345,-9.2323,-0.3177,-1.1109,0.4085,53
2.612,50,9.8867,0.0089,-9.7329,-0.1162,-0.4149,0.0182,87,2.624,50,5.9716,0.132,-10.9626,-0.9089,-1.2165,0.9022,53
2.664,51,10.0348,-0.9574,-13.2418,-0.0812,-0.7979,0.1967,87,2.675,51,9.4756,-3.4924,-10.6946,-0.3814,-0.6615,0.6237,53
2.715,52,9.717,-0.72,-15.0487,-0.6184,-1.2558,0.2786,87,2.727,52,10.4346,-3.0094,-12.0976,-0.6033,-0.3628,0.5646,53
2.767,53,8.7169,-1.1691,-14.7835,-0.248,-1.5899,0.1227,87,2.779,53,12.2028,-0.9577,-11.7438,-0.0738,0.4201,0.2663,53
2.819,54,6.6138,-0.4137,-13.0715,0.4397,-1.5894,-0.0321,87,2.831,54,8.1023,-2.3591,-16.5523,0.6208,0.9916,-0.0186,53
2.871,55,10.0299,0.1731,-12.1015,0.7558,-1.1331,0.0422,87,2.883,55,4.0852,-1.0951,-17.7013,0.4253,0.1283,0.2461,53
2.923,56,11.5422,0.9086,-13.3726,0.4865,-0.9083,0.1269,87,2.934,56,4.4667,-2.0403,-16.3144,0.6941,-0.5732,0.4794,53
2.974,57,13.6897,0.4045,-13.7811,0.1212,-0.6055,0.2149,87,2.986,57,3.5486,-1.1959,-15.2461,-0.0912,-1.0851,0.6185,53
3.026,58,11.9878,-1.2968,-12.0304,-0.3259,0.1742,-0.0365,87,3.038,58,0.1135,-2.87,-19.1085,-0.2708,-0.5722,0.3842,53
3.078,59,8.8907,-2.2779,-10.8871,0.2521,0.5607,-0.2027,87,3.09,59,5.2001,-2.1306,-16.8461,0.1776,-0.0142,0.4399,53
3.13,60,6.776,-0.5554,-8.4154,0.1708,1.0876,-0.3706,87,3.141,60,6.8233,-2.6073,-16.0309,-0.0262,-0.1399,0.132,53
3.182,61,6.1614,0.1361,-8.3887,0.1805,1.4721,-0.7634,87,3.193,61,2.5792,-0.7961,-14.9377,0.5726,0.5828,0.058,53
3.233,62,5.5378,0.3269,-9.5464,0.8083,1.6613,-1.0943,87,3.245,62,2.7807,0.0259,-13.4755,0.479,0.1454,0.141,53
3.285,63,3.7963,-3.8529,-14.9723,1.1736,1.3771,-0.8705,87,3.297,63,3.5857,1.3948,-10.4454,-0.0125,0.4638,-0.107,53
3.337,64,7.2207,-1.4593,-16.5418,0.9112,0.5314,-0.3223,87,3.349,64,4.2229,0.7054,-12.182,-0.6862,0.9338,-0.1733,53
3.389,65,8.5292,-2.2745,-16.5542,0.1661,0.7776,-0.6401,87,3.4,65,3.5482,-2.3571,-16.8721,-1.1779,0.1604,0.1876,53
3.441,66,11.4907,-2.4612,-14.209,-0.554,1.2459,-1.0294,87,3.452,66,7.707,-5.1718,-16.6787,-0.5355,0.0917,0.2588,53
3.492,67,5.2803,-7.0334,-10.7358,-1.0796,0.502,-0.3083,87,3.504,67,9.2769,-4.8794,-16.4332,-0.5474,0.2808,0.4205,53
3.544,68,9.1196,-5.2251,-9.7115,-0.1114,-0.3071,0.082,87,3.556,68,11.888,-4.9694,-14.6684,-0.254,0.7042,-0.0109,53
3.596,69,7.8222,-3.3285,-9.8916,0.5952,-0.8975,0.5415,87,3.608,69,10.8199,-3.5418,-18.6868,0.4767,1.1989,-0.3388,53
3.648,70,10.004,-1.0636,-5.8538,-0.2408,-1.2637,0.6704,87,3.66,70,6.6855,-1.6591,-18.8985,1.0226,0.3452,0.1552,53
3.7,71,12.5671,-0.2245,-6.5102,-0.3098,-0.7172,0.588,87,3.711,71,6.1938,-0.9135,-17.5775,0.3863,-0.4148,0.6395,53
3.751,72,14.4378,0.9316,-8.6527,-0.2355,-0.7273,0.5419,87,3.763,72,4.7233,-1.0262,-13.6953,-0.3951,-0.9696,0.6568,53
3.803,73,13.9442,-0.0864,-9.8941,-0.8404,-0.1598,0.3725,87,3.815,73,4.2612,0.3312,-17.9767,0.1589,-0.6138,0.2446,53
3.855,74,10.8625,-2.1097,-9.6966,-0.3381,0.3654,0.0448,87,3.867,74,8.2273,1.5584,-15.908,0.0284,-0.0319,0.0167,53
3.907,75,8.2027,-0.7975,-6.7929,-0.2481,0.945,-0.3924,87,3.919,75,10.376,1.9537,-13.6489,0.3116,-0.5752,0.2069,53
3.959,76,7.7519,-0.4024,-6.7082,-0.1074,1.3681,-0.6433,87,3.97,76,7.6489,3.7688,-12.2852,0.9021,-0.2652,0.3727,53
4.011,77,7.4509,-0.0066,-8.3259,0.5982,1.6475,-1.0608,87,4.022,77,7.0832,4.7345,-9.1243,1.3331,-0.2541,-0.1306,53
4.063,78,8.4823,-0.9996,-10.5518,1.1131,1.0828,-1.352,87,4.074,78,5.7303,5.5046,-8.0591,0.2959,0.4995,-0.6047,53
4.114,79,3.8609,-4.1944,-12.5223,0.9682,1.0011,-0.9461,87,4.126,79,6.777,4.915,-9.3907,-0.4611,1.0495,-0.6051,53
4.166,80,6.9059,-3.5286,-14.1994,0.7472,0.5794,-1.0703,87,4.178,80,6.2007,4.3696,-12.8881,-1.0136,0.9807,-0.1975,53
4.218,81,10.2795,-0.9115,-12.928,-0.1299,1.1012,-0.8345,87,4.229,81,9.6428,6.4575,-6.7985,-0.6872,0.049,-0.0924,53
4.269,82,7.6494,-4.6655,-17.4403,-0.77,0.8452,-0.5683,87,4.281,82,10.1689,4.4572,-9.381,-0.4547,-0.0383,0.0104,53
4.321,83,6.9996,-5.4853,-18.0265,-1.2372,-0.0565,0.0203,87,4.333,83,12.539,3.3241,-9.4783,0.2388,0.657,-0.4046,53
4.373,84,8.2519,-5.8222,-17.4643,-0.2895,-0.7146,0.6862,87,4.385,84,10.0366,-2.8523,-14.8989,0.849,0.8187,-0.3609,53
4.425,85,5.7659,0.4103,-11.9275,0.4652,-1.195,1.1752,87,4.437,85,8.3468,-0.3392,-16.9655,0.8106,-0.0693,0.4084,53
4.477,86,2.6106,-4.9376,-16.7101,0.0563,-0.7441,1.3533,87,4.488,86,9.0121,0.6619,-15.5064,-0.0855,-0.7174,0.878,53
4.528,87,7.171,-4.2793,-17.6654,0.1784,-0.8143,1.0828,87,4.54,87,6.9907,1.0799,-12.4548,-0.7285,-1.1903,0.4683,53
4.58,88,9.9229,-4.6174,-17.8429,-0.1575,-0.1613,0.4014,87,4.592,88,7.6705,-0.1921,-7.8207,0.143,-0.8627,-0.0351,53
4.632,89,10.1345,-3.5957,-15.5479,0.3123,0.5606,-0.3119,87,4.644,89,10.7156,-0.5509,-3.1002,-0.3732,-1.1228,-0.2138,53
4.684,90,8.6929,-2.7983,-12.6109,0.3593,0.4562,-0.4521,87,4.696,90,12.938,-0.0532,-5.1491,-0.3049,-0.528,-0.2939,53
4.736,91,7.4556,-0.9858,-10.0099,-0.413,0.7302,-0.5541,87,4.747,91,14.56,0.4131,-5.372,0.279,-0.3268,-0.2606,53
4.787,92,7.0144,-1.4153,-9.2882,-0.4858,1.2113,-0.868,87,4.799,92,11.9533,1.4825,-7.3235,0.6319,0.1523,-0.2102,53
4.839,93,10.3008,-5.4613,-10.9719,0.322,0.9667,-1.0976,87,4.851,93,8.9995,1.4489,-6.3845,1.1359,0.7961,-0.2601,53
4.891,94,12.1353,-5.9575,-5.4237,0.1144,0.844,-0.1943,87,4.903,94,7.6827,0.6335,-6.4412,0.8829,1.266,-0.4698,53
4.943,95,12.4206,-6.9038,-7.3113,0.0821,0.3797,-0.3441,87,4.955,95,7.7738,0.8736,-7.0706,-0.0327,1.5308,-0.4712,53
4.995,96,12.4538,-5.1982,-9.8774,-0.0095,0.3933,-0.5266,87,5.006,96,6.7651,0.3547,-8.9375,-0.701,1.7855,-0.1856,53
5.046,97,14.3466,-3.8988,-8.5079,-0.4953,0.9654,-0.6904,87,5.058,97,9.7256,5.423,-3.9152,-0.3045,0.6364,-0.599,53
5.099,98,11.5359,-6.279,-11.892,-1.0367,0.4695,-0.3166,87,5.11,98,10.5449,3.4051,-7.612,-0.2372,0.63,-0.4878,53
5.151,99,10.6192,-6.423,-13.1648,-0.0801,-0.3307,0.4041,87,5.162,99,12.8134,3.0727,-7.656,0.2636,1.1277,-0.4991,53
5.202,100,9.0806,-2.279,-12.0097,0.6181,-0.9148,0.9725,87,5.214,100,13.0338,0.0537,-13.5689,0.7878,1.508,-0.7328,53
5.254,101,5.8534,1.4295,-10.3599,0.7288,-1.1765,1.272,87,5.265,101,10.4976,-0.2277,-16.7668,0.2888,0.4338,0.1023,53
5.306,102,6.8149,3.5337,-12.6858,0.8372,-0.4415,1.3181,87,5.317,102,9.245,-0.7084,-15.1542,-0.4663,-0.3502,0.5088,53
5.358,103,10.2395,2.7784,-13.8107,0.7594,-0.6101,0.8787,87,5.369,103,7.7931,-0.3891,-12.7188,-0.6797,-0.9224,0.4776,53
5.409,104,12.6915,1.7678,-14.1929,0.1531,0.2314,0.0885,87,5.421,104,9.0081,0.5581,-7.4453,0.1786,-0.58,-0.0355,53
5.461,105,12.5063,2.6851,-12.5814,0.2985,0.8472,-0.5867,87,5.472,105,9.8131,1.2993,-7.8443,0.5108,0.2591,-0.1021,53
5.513,106,12.2534,2.9183,-8.0434,-0.3643,0.8831,-0.7511,87,5.524,106,12.2793,0.6834,-9.167,0.499,0.0649,0.2213,53
5.565,107,10.5653,1.8969,-7.0515,-0.9411,1.2494,-0.7418,87,5.576,107,12.7987,1.7184,-9.0899,-0.1441,-0.5976,0.2384,53
5.617,108,9.5786,0.8892,-8.3922,-0.5045,1.5902,-0.6418,87,5.628,108,10.0223,1.9492,-8.9542,-0.4928,0.1982,0.1296,53
5.668,109,8.6014,-1.3501,-11.7662,0.2761,1.6003,-0.4032,87,5.68,109,8.3086,0.8071,-7.5216,0.315,0.8296,-0.3154,53
5.72,110,9.6149,-6.2224,-16.5924,0.3798,0.4945,0.2236,87,5.731,110,8.697,0.8023,-6.7383,0.2491,1.2905,-0.6482,53
5.772,111,8.1678,-6.8913,-16.5958,0.0857,-0.03,0.6315,87,5.783,111,7.7477,-0.7474,-7.9764,-0.4953,1.6268,-0.5279,53
5.824,112,9.3613,-5.3121,-16.4234,-0.2476,0.398,0.4051,87,5.835,112,7.6579,1.4505,-11.5642,-0.2823,1.8723,-0.3775,53
5.876,113,11.3299,-5.7977,-14.8501,-0.4277,0.9688,-0.3783,87,5.887,113,10.7064,0.6272,-16.4213,0.0113,0.7452,0.0324,53
5.927,114,10.7555,-8.806,-18.8431,-0.9874,0.9922,0.2734,87,5.938,114,11.2845,2.2884,-12.8171,0.4168,1.0067,-0.3848,53
5.979,115,12.7146,-6.1508,-19.4838,-0.0976,0.0507,0.5807,87,5.99,115,7.5073,0.1494,-17.3357,0.9789,1.4197,-0.1328,53
6.031,116,8.5795,-6.1324,-17.7465,-0.4259,-0.6364,0.7651,87,6.042,116,9.3204,-0.7817,-20.592,0.2255,0.3694,0.5174,53
6.083,117,8.4058,-2.9475,-10.3681,-0.524,-0.3232,0.5088,87,6.094,117,8.1222,-2.4641,-20.2035,-0.207,-0.3972,0.865,53
6.135,118,11.4007,-0.043,-8.2131,-0.1082,0.1642,0.5598,87,6.146,118,6.5095,-1.4179,-15.8593,-0.3953,-0.9567,1.0721,53
6.186,119,12.089,-0.5155,-11.6313,-0.2528,0.0458,0.3328,87,6.197,119,9.8682,-0.4623,-8.9671,0.3045,-0.1349,0.3953,53
6.238,120,11.6949,-0.6344,-11.3593,-0.3689,0.5252,-0.0865,87,6.249,120,12.3196,-1.4923,-10.9726,0.4001,-0.0891,0.5834,53
6.29,121,9.2816,-0.5305,-13.0373,0.3199,0.502,-0.2774,87,6.301,121,14.1087,-1.7627,-12.9458,0.1099,0.323,0.3578,53
6.342,122,8.98,2.6253,-7.2162,0.91,0.4727,-0.3929,87,6.353,122,13.5378,0.1649,-12.3321,-0.3674,0.565,0.389,53
6.394,123,9.7057,1.7647,-5.8332,0.144,1.0233,-0.4563,87,6.405,123,10.5217,-0.8571,-9.5546,-0.2862,1.0973,0.0608,53
6.445,124,9.1908,0.1493,-10.0379,0.2752,1.4252,-0.4073,87,6.456,124,9.0738,-0.7806,-8.7175,0.4658,1.4858,-0.1164,53
6.497,125,5.6057,-1.3438,-14.9542,-0.0211,0.9307,-0.214,87,6.508,125,8.6398,1.8859,-9.0208,0.256,1.5704,-0.4923,53
6.549,126,7.8389,-0.8731,-15.0447,0.0014,0.6851,-0.0629,87,6.56,126,7.8485,2.7965,-11.9875,-0.4903,1.4035,-0.5398,53
6.601,127,10.0308,-2.2589,-14.891,-0.3174,0.9821,-0.5289,87,6.612,127,7.2128,1.2722,-16.7302,-1.0349,0.8289,-0.2932,53
6.653,128,12.5867,-1.6898,-12.0272,-0.2924,1.3951,-1.003,87,6.664,128,3.0552,5.3236,-18.5342,-0.6238,0.3406,-0.1441,53
6.705,129,6.9195,-4.9957,-12.4185,-0.3594,1.1939,-0.5841,87,6.715,129,7.3471,5.8395,-18.3292,-0.3959,0.479,-0.302,53
6.756,130,7.7499,-2.6631,-13.5497,0.4142,0.1979,-0.0097,87,6.767,130,9.5399,6.4462,-15.5378,0.224,1.0346,-0.4483,53
6.808,131,6.0552,-2.6553,-13.7163,0.9788,-0.5289,0.4597,87,6.819,131,9.3392,-0.5921,-19.3214,0.8382,1.1383,-0.6892,53
6.86,132,4.3128,-1.5003,-13.1905,1.2776,-0.9722,0.8793,87,6.87,132,8.5843,-1.3319,-20.5163,0.3912,0.164,0.1761,53
6.912,133,8.4134,1.3431,-7.0429,0.9422,-1.3293,0.7051,87,6.922,133,10.4291,-1.4793,-18.1401,-0.3331,-0.5471,0.6226,53
6.964,134,11.1845,0.9543,-10.9898,0.8794,-1.2233,0.8805,87,6.974,134,10.3043,-0.2938,-12.1776,0.0791,-1.0661,0.4354,53
7.015,135,12.2215,-0.6021,-12.0086,0.0659,-0.2625,0.1077,87,7.026,135,10.0321,2.263,-8.4053,0.7324,-0.791,0.048,53
7.067,136,11.4731,-0.2188,-11.7344,0.2981,0.4868,-0.4744,87,7.078,136,10.7671,5.3977,-10.2399,0.776,0.1076,-0.2922,53
7.119,137,10.0887,0.8827,-9.1975,0.2948,0.6501,-0.649,87,7.129,137,12.9756,4.0415,-9.6688,0.6662,0.1789,-0.0816,53
7.171,138,9.8079,-0.4478,-8.7135,-0.4601,1.1528,-0.9687,87,7.181,138,14.5875,4.0586,-8.2815,0.8637,-0.5362,0.1981,53
7.223,139,9.5163,0.7848,-8.3913,-0.2908,1.5197,-1.2597,87,7.233,139,12.611,4.4395,-8.2207,0.9729,-0.5734,0.042,53
7.274,140,8.9354,-4.6643,-14.1293,0.3125,0.661,-0.7343,87,7.285,140,8.8753,4.6545,-6.7297,1.2028,0.2657,-0.4543,53
7.326,141,6.9903,1.9469,-7.7281,0.4166,0.6542,-0.0524,87,7.336,141,7.9443,4.2928,-7.4139,0.2008,0.5528,-0.5707,53
7.378,142,8.6346,0.2391,-9.1032,0.3562,-0.013,-0.151,87,7.388,142,7.516,3.4984,-8.2374,-0.5305,0.6927,-0.4059,53
7.43,143,10.2942,1.7619,-11.2842,0.414,0.1196,-0.4225,87,7.44,143,7.1982,2.6043,-13.9932,-1.064,1.1587,-0.1506,53
7.533,145,11.9904,-3.4522,-16.2508,-0.4077,0.9019,-0.5243,87,7.492,144,2.8331,1.9621,-18.0816,-0.5632,0.3551,0.2711,53
7.585,146,11.339,-3.5153,-18.7534,-0.4086,-0.0152,0.2737,87,7.544,145,5.8813,0.6856,-17.4333,-0.3632,0.2922,0.268,53
7.637,147,12.1655,-2.6548,-16.5429,0.1384,-0.6845,0.8775,87,7.595,146,6.7929,-0.101,-17.2984,-0.3696,0.8785,-0.1932,53
7.689,148,5.5201,1.721,-10.5571,-0.187,-1.1729,1.2752,87,7.647,147,9.8908,1.5373,-18.0236,-0.2119,1.3261,-0.1652,53
7.741,149,9.2946,-2.6277,-9.3304,0.2214,-0.2814,1.1529,87,7.699,148,6.9278,-0.5649,-21.1356,0.52,1.5266,-0.0399,53
7.792,150,11.3353,-1.9358,-12.876,0.0023,-0.8649,0.8527,87,7.751,149,10.1341,-0.2532,-18.935,0.557,0.4474,0.6512,53
7.844,151,8.8678,-1.9363,-15.9778,-0.1631,-0.0035,0.6142,87,7.803,150,7.4502,0.8102,-13.0296,-0.2443,-0.3402,0.7619,53
7.896,152,11.7378,-2.8558,-15.3581,-0.0691,0.6342,-0.1483,87,7.854,151,9.6894,4.9497,-6.9019,0.3971,-0.3065,0.2455,53
7.948,153,8.4809,3.2676,-11.5118,-0.5621,1.0129,-0.2633,87,7.906,152,12.189,5.2786,-7.2398,-0.0227,-0.1058,0.2322,53
8.0,154,8.0704,3.3467,-10.0298,-0.492,1.2404,-0.2594,87,7.958,153,14.0134,4.5561,-7.9411,0.0295,-0.3674,0.3446,53
8.051,155,8.0548,2.3893,-10.2438,-0.1266,1.5187,-0.1627,87,8.01,154,13.2895,4.3194,-8.5117,0.6744,-0.5432,0.511,53
8.103,156,6.2443,0.1352,-12.9895,0.5841,1.6241,-0.5011,87,8.062,155,11.0139,4.2071,-4.9963,0.6814,-0.2733,-0.0113,53
8.155,157,0.928,-5.1384,-17.4852,0.8031,0.6124,-0.0627,87,8.113,156,9.7518,4.3428,-5.387,0.7756,0.4855,-0.384,53
8.207,158,4.6502,-4.2802,-16.6565,0.4041,-0.1522,-0.1176,87,8.165,157,8.7613,4.2399,-7.2087,-0.0393,1.0393,-0.6602,53
