right_leg_timestamp,right_leg_index,right_leg_accel_x,right_leg_accel_y,right_leg_accel_z,right_leg_gyro_x,right_leg_gyro_y,right_leg_gyro_z,right_leg_battery_percentage,left_leg_timestamp,left_leg_index,left_leg_accel_x,left_leg_accel_y,left_leg_accel_z,left_leg_gyro_x,left_leg_gyro_y,left_leg_gyro_z,left_leg_battery_percentage
0.018,0,9.4675,-1.9049,-10.6236,-0.006,-0.011,0.0011,84,0.515,9,8.8114,1.1489,-11.4496,-0.1202,0.0046,-0.0274,50
0.07,1,9.4566,-1.9425,-10.6235,-0.0111,-0.0128,-0.0001,84,0.567,10,8.8408,1.1125,-11.4705,-0.1447,0.1235,-0.0192,50
0.121,2,9.4652,-1.9309,-10.6485,-0.011,-0.0095,-0.0005,84,0.619,11,8.7789,1.0125,-11.2971,0.0186,0.2562,-0.0244,50
0.173,3,9.5269,-1.8538,-10.6657,-0.0214,0.0067,0.0011,84,0.67,12,8.8366,1.0348,-10.9368,0.1495,0.342,-0.0342,50
0.225,4,9.4995,-1.8754,-10.6911,-0.0455,0.0476,0.0144,84,0.722,13,8.6472,1.2434,-10.5168,0.346,0.2979,-0.0488,50
0.277,5,9.538,-1.9075,-10.7059,-0.089,0.1034,0.0243,84,0.774,14,8.881,0.8362,-10.8267,-0.0676,0.2085,-0.0622,50
0.328,6,9.5842,-1.9366,-10.6237,-0.1255,0.1672,0.0232,84,0.826,15,8.9457,1.1379,-10.7446,0.2059,0.0713,-0.1382,50
0.38,7,9.5934,-1.9478,-10.5302,-0.1067,0.2069,0.0126,84,0.878,16,8.8469,0.6116,-10.7764,-0.0155,-0.1622,-0.1412,50
0.432,8,9.4872,-2.0338,-10.2019,-0.0987,0.1383,-0.0393,84,0.929,17,9.412,0.3193,-10.4697,0.2117,-0.6607,-0.2333,50
0.484,9,9.3624,-2.0761,-10.0877,0.032,-0.1666,-0.1838,84,0.981,18,9.7772,1.6341,-10.8534,0.351,-1.1019,-0.1782,50
0.536,10,9.5113,-1.5629,-12.8448,0.2833,-0.595,-0.2984,84,1.033,19,10.0181,5.0242,-11.5104,-0.3083,-1.188,0.0575,50
0.587,11,9.8757,-1.2028,-14.9344,0.7103,-1.1076,-0.4682,84,1.085,20,9.9473,4.2192,-10.9993,-0.9021,-0.1922,0.4296,50
0.639,12,8.5714,-1.5084,-13.5606,0.0887,-1.4029,-0.3057,84,1.136,21,10.2875,3.6897,-13.0586,-0.1507,0.5447,0.7781,50
0.691,13,8.9633,-1.0612,-9.8684,-0.1555,-1.1851,0.0505,84,1.188,22,5.6757,5.818,-16.1024,-0.7535,0.904,0.7923,50
0.743,14,9.8012,-3.7371,-8.5149,-0.076,-1.0832,0.0249,84,1.24,23,3.0185,3.092,-15.3617,-1.1951,-0.007,0.2558,50
0.794,15,10.2524,-2.1292,-10.2419,0.0145,-0.7547,0.0874,84,1.292,24,3.0653,4.1951,-19.1929,-0.2229,0.0949,-0.0992,50
0.846,16,10.2782,-2.1612,-12.5649,-0.1826,-0.2908,0.2082,84,1.344,25,7.3545,2.7003,-11.4,-0.6868,0.1877,0.0452,50
0.898,17,11.8226,-1.3341,-13.7714,-0.2631,0.4661,0.2607,84,1.395,26,4.4416,2.0036,-13.3052,-0.4033,0.0562,0.0358,50
0.95,18,12.6427,-1.8301,-11.7421,-0.8672,1.0185,0.6492,84,1.447,27,5.9062,2.8147,-14.2089,0.2096,0.7153,0.0186,50
1.002,19,9.4742,-2.6065,-16.564,-1.3082,0.1972,0.193,84,1.499,28,9.4279,1.7763,-12.0804,0.6732,1.207,0.5691,50
1.054,20,7.0702,-1.871,-14.8564,-1.5062,-0.4365,-0.1072,84,1.551,29,3.5459,3.2565,-16.798,1.166,1.5659,-0.0942,50
1.106,21,6.3267,-0.5004,-8.2588,-1.7163,-0.992,-0.297,84,1.603,30,4.6494,-0.2231,-18.8762,0.1739,0.4761,-0.7243,50
1.157,22,9.8832,0.6427,-7.3254,-0.5761,-1.2706,-0.7829,84,1.654,31,2.6251,-4.238,-11.1689,0.5017,-0.0721,-1.0983,50
1.209,23,12.479,0.6543,-9.3998,-1.01,-1.2886,-0.3455,84,1.706,32,7.0332,2.1627,-8.9862,0.2912,0.2944,-0.6617,50
1.261,24,9.3133,0.7165,-12.2042,-0.0606,-1.0322,-0.5703,84,1.758,33,10.2505,-2.3386,-11.4087,0.2341,-0.449,-0.8508,50
1.313,25,4.4911,-0.3914,-10.589,0.6323,-0.075,-0.6086,84,1.81,34,12.5985,-2.5159,-11.337,0.8225,-0.9945,-1.2923,50
1.364,26,1.2785,-1.4773,-10.6182,1.138,0.6236,-0.739,84,1.862,35,3.7223,1.0953,-10.9595,0.2187,-1.0206,-0.4589,50
1.416,27,0.2295,-0.9912,-12.9076,1.4861,1.1335,-0.2396,84,1.913,36,-0.2721,-0.0484,-11.9633,0.3475,-0.3721,0.1671,50
1.468,28,1.3088,-1.0293,-15.0915,1.7612,1.2391,0.0408,84,1.965,37,2.4592,5.1223,-7.7909,-0.2617,-0.8852,0.4478,50
1.52,29,4.2152,-0.7903,-18.9626,1.5656,0.2664,0.1684,84,2.017,38,3.9367,3.9293,-9.4825,-0.2957,-0.3428,0.2527,50
1.572,30,7.0388,2.6463,-11.966,1.3853,-0.2619,0.15,84,2.069,39,4.1662,3.5137,-11.0328,0.3766,0.1886,0.1303,50
1.623,31,10.403,0.1051,-8.6991,1.6875,-0.471,-0.4565,84,2.12,40,5.5421,3.071,-12.5797,0.0941,0.4954,0.0848,50
1.675,32,7.4956,-1.3891,-10.1312,0.9824,-0.5169,-0.1802,84,2.172,41,7.1036,2.8245,-12.6286,-0.0794,0.6587,0.2171,50
1.727,33,8.4036,-2.2266,-11.493,0.4767,-0.3452,-0.0614,84,2.224,42,7.1464,2.8169,-12.9871,0.0281,0.6714,0.2439,50
1.779,34,8.477,-1.678,-12.0127,0.5019,-0.1062,-0.0398,84,2.276,43,7.3717,3.0822,-13.0611,-0.0132,0.6537,0.2249,50
1.83,35,8.5647,-2.1334,-12.2815,0.1155,0.2309,0.0697,84,2.328,44,7.4762,3.4203,-12.9493,-0.2963,0.5347,0.2869,50
1.882,36,8.832,-2.0626,-11.871,0.2952,0.4135,0.0395,84,2.379,45,7.3523,2.7301,-13.8556,-0.8206,0.3723,0.4624,50
1.934,37,8.7105,-2.5692,-11.4457,0.1617,0.4457,0.045,84,2.431,46,8.2035,2.231,-13.8263,-0.9215,0.2848,0.4837,50
1.986,38,8.8545,-2.3809,-11.398,0.3546,0.4202,0.033,84,2.483,47,7.9598,2.6315,-13.5886,-0.7266,0.1995,0.3988,50
2.038,39,8.975,-2.381,-11.2892,0.3554,0.401,0.0333,84,2.534,48,7.9085,2.6242,-13.5406,-0.6088,0.1239,0.3724,50
2.09,40,9.1499,-2.2403,-10.979,0.3158,0.3548,0.0616,84,2.586,49,7.7314,2.3918,-13.3678,-0.5298,0.033,0.3031,50
2.141,41,9.4318,-2.1121,-10.9973,0.1804,0.3685,0.1088,84,2.638,50,7.442,2.1703,-13.436,-0.392,-0.2492,0.1154,50
2.193,42,9.4456,-2.1066,-10.3739,0.0369,0.3482,0.1289,84,2.69,51,7.6649,2.3625,-13.102,-0.1963,-0.6342,0.0641,50
2.245,43,9.734,-2.0806,-10.1748,-0.1077,0.201,0.06,84,2.742,52,8.2456,2.7562,-13.8134,0.1569,-0.8762,-0.0184,50
2.297,44,9.4622,-2.0217,-10.8637,0.3067,-0.1245,-0.2712,84,2.793,53,8.5329,3.0911,-14.9682,-0.01,-0.3454,0.0239,50
2.349,45,8.882,-1.9031,-10.7475,0.5933,-0.3382,-0.4812,84,2.845,54,11.345,3.2027,-15.6165,-0.0614,0.3003,0.3825,50
2.4,46,8.1954,-1.8091,-11.0631,0.7402,-0.4434,-0.5725,84,2.897,55,10.486,2.5283,-14.5485,0.5109,0.9037,0.1682,50
2.452,47,7.4735,-1.4281,-11.32,0.8305,-0.5713,-0.6131,84,2.949,56,5.9484,5.2461,-17.7249,0.5499,0.0768,-0.25,50
2.504,48,10.7203,-1.5193,-5.6778,0.5918,-1.0903,-0.2071,84,3.001,57,3.9138,2.133,-14.428,-0.0467,-0.0732,-0.5822,50
2.556,49,8.2043,-1.534,-8.3689,0.2949,-1.1802,0.0575,84,3.053,58,3.4805,-0.0032,-11.7288,0.6374,-0.1032,-0.4647,50
2.607,50,9.7092,-1.6421,-10.4657,-0.0254,-0.5766,0.2843,84,3.105,59,0.2967,4.6198,-16.5414,0.9111,-0.1421,-0.4161,50
2.659,51,12.352,-2.4007,-10.7937,-0.3246,0.2575,0.2987,84,3.156,60,1.4098,5.418,-17.2662,0.5176,-0.4057,-0.5003,50
2.711,52,10.21,-2.291,-10.0934,-0.8706,0.8663,0.6457,84,3.208,61,6.0705,3.0494,-19.135,0.6844,-0.4418,-0.6221,50
2.763,53,6.7222,-5.9666,-12.1985,-1.3106,0.4199,0.6479,84,3.26,62,8.1557,-1.065,-16.3221,0.8461,0.0626,-0.9201,50
2.815,54,5.8628,-3.5207,-11.8584,-0.4229,-0.3613,0.1558,84,3.312,63,5.8974,3.5093,-14.4532,0.3139,-0.2374,0.0088,50
2.866,55,4.4521,-0.7999,-12.1359,0.3392,-0.9315,-0.2215,84,3.364,64,9.0637,-2.7355,-11.5339,0.5633,0.5117,0.6868,50
2.918,56,1.0768,-0.7339,-16.6334,0.9054,-0.9409,-0.6609,84,3.415,65,10.4435,3.2956,-11.7193,0.4866,1.0584,1.1211,50
2.97,57,6.0517,-5.7727,-14.13,1.0623,-1.3586,-0.0296,84,3.467,66,7.4629,3.8683,-13.0647,-0.3219,1.3136,1.0593,50
3.022,58,-0.9074,-0.3348,-18.3176,1.0849,-0.4557,0.0852,84,3.519,67,4.9349,6.667,-14.9027,-0.3984,1.3379,0.5585,50
3.074,59,4.6035,-0.3088,-18.3062,0.3394,0.2193,0.5225,84,3.571,68,2.1303,3.2992,-15.5954,-0.8822,0.8891,-0.0226,50
3.125,60,7.9588,0.1307,-16.1812,0.0193,0.8384,0.6186,84,3.623,69,6.5823,-2.8889,-19.3634,-1.321,0.37,-0.2446,50
3.177,61,9.4543,3.5961,-16.3499,-0.6611,1.2903,1.1047,84,3.674,70,9.8439,-7.4052,-22.1135,-1.6412,-0.3967,-0.8499,50
3.229,62,9.9134,-2.5989,-15.055,-0.2787,0.7582,0.1883,84,3.726,71,11.1012,-3.6472,-19.8846,-1.0798,0.1332,-0.4523,50
3.281,63,7.2757,-4.2981,-15.7164,0.4731,-0.1201,-0.3697,84,3.778,72,13.2194,-5.2524,-16.8825,-0.4358,0.7822,-0.0449,50
3.333,64,5.7208,-3.232,-10.7049,-0.0535,-0.7145,-0.2132,84,3.83,73,9.9824,0.6117,-20.3028,0.3566,1.2558,-0.5681,50
3.384,65,9.441,0.7618,-7.5413,-0.566,-0.7873,0.3216,84,3.882,74,12.4029,-1.0493,-19.4938,0.0096,0.2498,-1.0754,50
3.436,66,5.9965,5.9079,-13.5089,-0.1853,-1.248,0.123,84,3.933,75,7.6384,-0.3955,-14.6558,-0.6701,-0.3767,-0.8342,50
3.488,67,9.6423,5.7992,-15.9988,-0.6402,-0.5329,0.3914,84,3.985,76,10.2946,-1.2005,-11.3801,-0.8681,-0.6986,-0.7828,50
3.54,68,8.472,7.5247,-13.9459,0.1467,0.2894,0.4555,84,4.037,77,9.1776,-6.173,-7.8059,0.0411,-0.3845,-1.2427,50
3.592,69,8.9668,2.8894,-9.0744,-0.1291,0.8006,0.2671,84,4.089,78,11.8155,-1.9938,-6.8111,-0.312,-0.74,-0.5446,50
3.643,70,8.9102,-1.378,-8.6428,-0.5403,1.2626,0.4095,84,4.141,79,13.7408,-4.2721,-12.0005,0.4469,-0.2867,-1.0494,50
3.695,71,6.6904,-3.3863,-9.8952,0.2822,1.5999,0.3205,84,4.192,80,15.1459,-0.4471,-11.1748,-0.2104,-0.0805,-0.7484,50
3.747,72,5.6862,-4.6414,-13.9404,-0.1952,1.846,0.6853,84,4.244,81,12.6253,0.835,-15.0049,0.5211,0.3016,-0.3459,50
3.799,73,2.6184,-1.9994,-18.1792,0.534,1.4446,0.7577,84,4.296,82,13.9332,-3.818,-9.4846,0.7954,0.9051,-0.0826,50
3.851,74,-1.0467,2.0096,-19.3565,0.7877,0.9261,0.2471,84,4.348,83,14.5545,-0.6152,-6.2364,0.7118,1.3455,0.1204,50
3.903,75,-6.0881,0.6809,-11.5432,1.1439,1.3483,0.4735,84,4.4,84,12.4446,0.7447,-10.4495,-0.0388,1.667,0.2289,50
3.954,76,-2.3187,-0.4092,-14.1095,0.4745,1.6595,0.5059,84,4.452,85,8.4292,4.7061,-15.6077,-0.4117,1.9016,-0.0836,50
4.006,77,2.2632,1.5784,-14.3053,0.6625,1.4175,0.6588,84,4.503,86,5.7278,2.7467,-17.808,-0.9594,0.7211,-0.7256,50
4.058,78,5.107,1.0538,-15.0234,0.0495,1.7128,0.9925,84,4.555,87,9.2977,-3.2922,-20.9782,-1.0394,-0.1379,-0.1872,50
4.11,79,8.9931,2.9316,-13.2474,-0.3805,1.9284,1.2762,84,4.607,88,9.2884,-5.7743,-23.292,-1.4357,-0.7674,0.1429,50
4.162,80,1.4535,-3.0974,-15.5373,-0.9424,1.0719,0.5278,84,4.659,89,10.146,-0.4074,-19.4117,-0.7034,-0.5234,0.1435,50
4.213,81,2.622,-5.1152,-16.7453,-1.363,0.1089,-0.1658,84,4.71,90,12.5211,-1.1103,-17.3998,-0.4382,0.3029,0.7252,50
4.265,82,4.1644,-5.754,-14.8529,-0.9839,-0.5939,-0.5686,84,4.762,91,11.006,2.1674,-20.6803,0.3548,0.887,-0.0234,50
4.317,83,7.0502,-5.616,-8.5993,-0.924,-1.0834,-0.2498,84,4.814,92,12.977,0.1504,-22.5054,-0.4181,-0.0194,-0.5004,50
4.369,84,10.4113,-3.6596,-14.281,-0.578,-1.4641,-0.3649,84,4.866,93,9.544,0.2248,-20.7231,-0.7527,-0.6399,-0.6976,50
4.421,85,12.8644,0.7786,-17.1131,-1.0658,-1.3919,-0.0768,84,4.918,94,11.9496,2.6626,-15.6211,-0.8266,-1.116,-0.5316,50
4.472,86,12.4609,-0.7234,-16.3562,-0.3319,-0.5939,-0.0911,84,4.969,95,9.8576,-0.6583,-8.7932,-0.2975,-1.4753,-0.8027,50
4.524,87,10.5624,-0.0618,-17.9791,-0.349,0.0775,0.1094,84,5.021,96,12.3118,2.7531,-6.4984,0.0574,-1.6152,-0.7923,50
4.576,88,8.2378,-3.9967,-13.2038,-0.93,0.7349,0.7576,84,5.073,97,14.103,-1.8955,-10.6819,0.7156,-1.2069,-0.8172,50
4.628,89,9.7062,-2.9294,-12.409,-0.0022,1.2148,0.9694,84,5.124,98,15.4103,-2.6759,-11.2959,0.4399,-0.9581,-0.7616,50
4.679,90,9.6918,-5.368,-17.0615,0.6696,1.4204,1.1294,84,5.176,99,13.4997,-1.0847,-14.5258,0.5635,-0.3212,-0.4648,50
4.731,91,6.2555,-1.1434,-20.4571,1.1636,1.0485,0.8703,84,5.228,100,14.4097,-1.9282,-9.7754,1.0368,0.4505,-0.1937,50
4.783,92,0.946,0.5507,-20.2865,1.5258,0.465,0.4092,84,5.28,101,14.5445,2.257,-7.3693,0.7838,1.0138,0.3092,50
4.835,93,5.1517,5.7538,-22.8108,1.0307,0.6929,-0.3754,84,5.332,102,12.6395,3.3633,-7.3877,-0.0988,1.4249,0.758,50
4.887,94,2.7806,4.0787,-23.4892,0.2957,0.6497,-0.1087,84,5.383,103,8.8845,6.4123,-13.3731,-0.6506,1.7249,0.8387,50
4.938,95,5.0197,2.052,-21.3951,0.2937,0.6756,0.1262,84,5.435,104,3.1098,5.3593,-16.0255,-0.4062,1.1976,0.386,50
4.99,96,7.4825,1.7981,-20.0399,-0.0309,1.1714,0.3175,84,5.487,105,-3.2029,2.757,-18.5092,-0.6575,1.4435,-0.055,50
5.042,97,10.7268,4.2762,-17.3671,-0.6395,1.5333,0.8956,84,5.539,106,2.7797,0.1436,-18.1612,-0.4901,0.6674,0.5205,50
5.094,98,11.9946,2.424,-20.6801,-0.6763,0.4457,-0.0193,84,5.59,107,7.146,1.9093,-14.7793,-0.5322,0.2332,0.5722,50
5.146,99,10.1773,-0.4924,-18.7538,-0.8287,-0.3481,-0.4933,84,5.642,108,7.1694,1.2308,-14.0387,-0.2863,0.3535,0.5829,50
5.197,100,11.1512,-0.2856,-16.5067,-0.6599,-0.9275,-0.4616,84,5.694,109,7.9162,0.6911,-12.9808,-0.4237,0.4073,0.6043,50
5.249,101,13.2122,-3.1154,-10.982,-1.1569,-1.2856,-0.2172,84,5.746,110,8.3558,0.1337,-12.0435,-0.0827,0.6106,0.4992,50
5.301,102,10.8532,-2.9972,-16.0201,-0.1678,-1.2738,-0.2586,84,5.798,111,8.3692,-0.2098,-11.1115,0.0602,0.7931,0.4769,50
5.353,103,12.101,0.5788,-15.8688,-0.7977,-0.7373,0.0815,84,5.849,112,8.0458,-0.4543,-10.7667,0.2377,0.8785,0.4198,50
5.405,104,12.5017,-0.1058,-15.811,-0.0148,-0.4647,-0.0226,84,5.901,113,8.3336,-0.6251,-9.6429,0.3707,0.8219,0.307,50
5.457,105,10.9701,-0.6622,-15.7352,-0.1009,-0.3065,-0.0767,84,5.954,114,8.4386,-0.844,-9.2464,0.3457,0.7107,0.3023,50
5.508,106,10.0555,-1.1478,-14.2163,0.264,-0.666,-0.3773,84,6.005,115,8.527,-0.6947,-8.9361,0.3949,0.5607,0.2499,50
5.56,107,9.912,-2.4573,-10.6653,-0.1136,0.1923,0.0622,84,6.057,116,8.6609,-0.9814,-8.4176,0.2745,0.4551,0.1995,50
5.612,108,10.8842,-2.6278,-11.9216,0.4014,0.8187,0.5271,84,6.109,117,8.9661,-1.3019,-8.4266,0.238,0.353,0.1274,50
5.664,109,7.9037,2.6745,-16.7058,-0.1686,0.7169,0.4785,84,6.16,118,8.5166,-0.6002,-9.6856,0.7632,-0.096,-0.0805,50
5.715,110,7.3348,3.1849,-15.9432,-0.5026,0.6864,0.5433,84,6.212,119,8.496,-0.5551,-10.5728,0.9017,-0.7072,-0.2364,50
5.767,111,7.878,2.3459,-15.1096,-0.1481,0.4413,0.3215,84,6.264,120,8.552,-0.1002,-10.8909,0.6326,-1.183,-0.3361,50
5.819,112,8.4998,1.7279,-14.8504,-0.1459,0.4015,0.3444,84,6.316,121,7.7649,-0.5618,-10.3545,0.1485,-1.4967,-0.2965,50
5.871,113,8.3486,0.7629,-14.7865,-0.152,0.2611,0.2929,84,6.368,122,8.8577,1.4412,-4.9494,0.0588,-0.705,0.0137,50
5.923,114,8.6523,0.535,-14.5297,-0.0133,0.2873,0.2281,84,6.419,123,7.2947,-2.3936,-8.0283,-0.0801,-0.2623,0.2394,50
5.974,115,8.6349,0.1679,-14.2071,0.0337,0.4018,0.213,84,6.471,124,7.9718,-0.8708,-8.2963,-0.0725,-0.1174,0.1446,50
6.026,116,8.8013,-0.1486,-13.8826,0.0844,0.4569,0.2062,84,6.523,125,8.4318,0.1083,-8.7953,0.1806,-0.0414,0.11,50
6.078,117,8.8457,-0.5312,-13.4397,0.0455,0.4481,0.1975,84,6.575,126,8.6101,-0.5468,-9.3345,-0.0576,0.0093,0.1398,50
6.13,118,8.902,-0.7564,-13.1137,0.0471,0.3579,0.13,84,6.626,127,8.7332,-0.2527,-9.5335,-0.0027,0.0303,0.1018,50
6.182,119,9.0553,-0.9337,-12.9208,-0.0077,0.1826,0.0243,84,6.678,128,8.8047,-0.2291,-9.7399,-0.0122,0.0289,0.0903,50
6.233,120,9.0277,-0.7391,-13.0661,-0.0048,0.123,-0.0455,84,6.73,129,8.8204,-0.1432,-9.8737,0.0193,0.0039,0.071,50
6.285,121,9.1418,-0.6255,-13.0208,0.0001,0.1541,-0.0014,84,6.782,130,8.8432,-0.1623,-10.0392,-0.0257,-0.0171,0.0684,50
6.337,122,9.1439,-0.9198,-12.7986,-0.0301,0.1405,0.021,84,6.834,131,8.8752,-0.154,-10.1988,-0.0032,-0.0219,0.0715,50
6.388,123,9.2016,-0.7706,-12.8276,-0.0353,0.0793,-0.0086,84,6.885,132,8.9227,-0.1686,-10.285,-0.0065,-0.0103,0.0718,50
6.44,124,9.1864,-0.778,-12.787,0.0039,0.0702,0.0229,84,6.937,133,8.9767,-0.1228,-10.3071,0.0063,-0.0007,0.0809,50
6.492,125,9.1626,-0.8058,-12.7522,0.0192,0.08,0.0247,84,6.989,134,9.0547,-0.2151,-10.2492,-0.0126,-0.0058,0.0718,50
6.544,126,9.1716,-0.7703,-12.647,0.0241,0.0581,0.0409,84,7.041,135,9.4436,0.1415,-9.6639,-0.0084,-0.1243,0.0492,50
6.596,127,9.1923,-0.9067,-12.6717,0.0413,0.0343,0.0443,84,7.092,136,10.2686,0.8181,-9.1987,0.6639,-0.1835,-0.3164,50
6.647,128,9.2177,-0.8267,-12.714,0.0543,0.0471,0.0603,84,7.144,137,9.6065,0.9455,-10.3376,0.7352,-0.3629,-0.5199,50
6.699,129,9.1825,-0.9603,-12.6658,0.0477,0.0468,0.0765,84,7.196,138,7.9273,0.4094,-11.6177,-0.1405,-0.4351,-0.3656,50
6.751,130,9.2132,-1.1187,-12.5945,0.0814,0.045,0.0819,84,7.248,139,5.3453,-0.3189,-12.1022,-0.6546,-0.6888,-0.1967,50
6.803,131,9.1659,-1.13,-12.6214,0.124,0.0085,0.0838,84,7.3,140,3.924,2.4446,-14.3437,-0.4538,-0.593,-0.1346,50
6.855,132,9.2842,-1.1008,-12.6866,0.1264,-0.0077,0.0782,84,7.352,141,2.4432,1.9682,-17.8455,-0.6549,-0.7671,-0.7611,50
6.906,133,9.2705,-1.2034,-12.7023,0.1535,0.0102,0.0742,84,7.403,142,4.9424,1.1064,-17.0127,-0.5126,-0.0842,-0.4902,50
6.958,134,9.1087,-1.3496,-12.4942,0.1575,-0.0326,0.0299,84,7.455,143,8.191,0.5322,-15.412,0.139,0.5562,-0.1543,50
7.01,135,9.0619,-1.6222,-11.5892,0.0193,-0.3955,-0.1897,84,7.507,144,8.9145,-0.1322,-13.1791,0.4494,1.0562,0.158,50
7.062,136,8.2944,-0.3896,-13.9995,0.1999,-0.4404,-0.3119,84,7.559,145,8.6399,2.0608,-12.978,0.0358,0.6499,0.1246,50
7.113,137,10.1608,0.8651,-13.5536,0.2583,-0.8378,-0.2933,84,7.61,146,6.2432,-0.8692,-11.073,-0.4317,0.4593,0.0713,50
7.165,138,9.9772,0.5975,-14.5049,0.0754,-0.8589,-0.1429,84,7.662,147,4.5654,-1.3292,-11.4987,-0.4333,0.4067,0.2063,50
7.217,139,9.4416,1.2723,-15.9146,-0.3792,-0.0674,-0.0066,84,7.714,148,3.5152,0.0583,-16.3735,-0.9934,-0.069,0.6188,50
7.269,140,12.1566,1.4802,-14.3678,-0.5324,0.4265,0.2952,84,7.766,149,7.6829,-5.2543,-19.9313,-0.5258,-0.374,0.0866,50
7.321,141,8.4718,0.9446,-18.4911,-0.425,0.9896,0.5665,84,7.818,150,4.6983,-2.6916,-20.4879,-0.86,-0.3815,0.1713,50
7.372,142,6.0822,1.3062,-19.7802,-0.8197,0.0489,0.0137,84,7.869,151,7.9091,-2.4409,-18.5588,-0.2104,0.3901,0.2699,50
7.424,143,4.8379,0.2838,-15.1462,-0.7247,-0.6377,-0.3438,84,7.921,152,10.8897,-4.0892,-15.8094,0.501,0.9697,0.4445,50
7.476,144,4.7889,-0.7704,-12.2148,-0.3,-0.4322,-0.2269,84,7.973,153,2.4752,2.3077,-18.0011,1.0404,0.3803,0.8933,50
7.528,145,5.2542,-3.1641,-15.4843,-0.2528,-0.2674,0.0017,84,8.025,154,4.9481,-0.7954,-15.8414,0.2698,-0.3893,-0.0193,50
7.579,146,9.1005,-2.2459,-14.843,0.0047,-0.6155,-0.0962,84,8.077,155,-1.8613,4.7116,-16.3731,0.8716,-0.1392,0.4509,50
7.631,147,11.9077,-3.1721,-17.3153,-0.5595,-1.0736,-0.2317,84,8.128,156,0.074,-0.6738,-15.5758,-0.0409,0.3314,0.0561,50
7.683,148,10.3284,-2.6924,-16.3347,-1.0835,-0.4914,-0.052,84,8.18,157,4.164,0.9087,-13.3937,0.154,-0.4052,-0.574,50
7.735,149,7.8701,-4.2741,-16.4294,-1.4121,0.1485,0.2577,84,8.232,158,8.1564,1.121,-14.6625,0.5944,-0.9625,-0.3819,50
7.787,150,9.8467,-6.1395,-14.3702,-0.3541,0.3993,0.1804,84,8.284,159,11.0702,-1.6253,-15.9036,0.1197,-1.0026,-0.4702,50
7.839,151,8.2612,-4.3897,-13.2207,0.2244,0.8597,0.6468,84,8.335,160,11.7131,2.13,-18.4521,0.4953,-0.6757,-0.2383,50
7.89,152,4.8238,-3.7514,-17.6539,0.8403,0.9401,0.117,84,8.387,161,13.666,-0.2021,-12.0742,0.3963,0.1918,0.5064,50
7.942,153,1.2079,-4.3748,-18.9542,1.0894,0.5581,-0.1501,84,8.439,162,13.479,2.918,-9.9411,-0.0222,0.825,0.9937,50
7.994,154,6.1473,2.159,-20.2425,1.3801,-0.2661,0.2669,84,8.491,163,11.8466,2.1571,-12.0446,0.1201,1.2871,0.9343,50
8.046,155,9.7523,5.7535,-16.1988,1.3782,-0.8676,0.3699,84,8.543,164,8.5655,4.413,-16.4725,0.4611,1.6243,0.3876,50
8.098,156,10.3518,4.3489,-16.7086,0.7096,-0.5169,0.5666,84,8.594,165,3.4919,3.8473,-20.0036,-0.3406,1.3666,-0.1204,50
8.149,157,11.1619,3.6814,-16.6361,0.0127,0.3011,0.8281,84,8.646,166,7.6659,8.1001,-11.9917,0.1609,0.3306,-0.6142,50
8.201,158,13.4122,2.8482,-14.3061,-0.666,0.8981,1.2661,84,8.698,167,4.0376,11.2039,-16.7333,-0.0111,-0.2304,-0.2893,50
8.253,159,14.0097,-3.1583,-14.3018,-1.1613,-0.0179,0.6812,84,8.75,168,4.2582,10.0666,-16.3552,0.6666,-0.037,-0.2436,50
8.305,160,11.7717,-3.3463,-13.317,-0.8576,-0.6865,-0.1768,84,8.802,169,8.0541,9.4115,-14.0588,0.4242,0.658,0.5,50
8.357,161,10.4674,-0.9636,-10.9942,-0.1388,-1.1744,-0.647,84,8.854,170,9.0031,7.6386,-18.2419,0.9843,1.1436,-0.1597,50
8.408,162,9.9684,-0.6404,-11.8,-0.7546,-1.0905,-0.4335,84,8.905,171,10.655,7.7536,-21.2949,0.0413,0.1678,-0.7879,50
8.46,163,12.5411,-1.4864,-10.5985,-0.0388,-1.4594,-0.3776,84,8.957,172,11.4588,0.3621,-12.9342,0.4491,-0.5443,-1.2465,50
8.512,164,14.4188,-0.056,-14.1553,-0.6999,-1.3034,-0.353,84,9.009,173,13.4805,4.7812,-6.8322,-0.1141,-1.0251,-0.8753,50
8.564,165,13.7562,1.7217,-12.6189,-0.4564,-0.7882,-0.1125,84,9.061,174,9.3365,0.3777,-3.3603,-0.1567,-0.7965,-0.8649,50
8.616,166,12.752,0.325,-17.205,-0.5229,-0.5498,0.0081,84,9.113,175,8.7683,5.5678,-10.4337,0.5603,-0.0515,-0.4399,50
8.667,167,9.0549,-0.6453,-11.5837,-0.3543,0.2771,0.5802,84,9.164,176,6.4854,0.7128,-15.5962,-0.2682,-0.2644,-0.9872,50
8.719,168,11.308,-2.9542,-11.0007,0.4174,0.8806,0.8722,84,9.216,177,8.1781,-1.6477,-16.3976,0.479,0.2345,-0.9111,50
8.771,169,12.196,-4.6768,-15.9708,0.9811,1.2444,0.504,84,9.268,178,7.9484,-0.4117,-19.9489,0.0038,0.6593,-0.4977,50
8.823,170,8.5467,1.9385,-18.3189,1.2024,0.9176,0.1045,84,9.32,179,10.7521,-5.5973,-13.8525,0.5968,1.1661,0.0154,50
8.875,171,4.6021,3.2957,-20.3299,1.5541,0.1558,-0.3118,84,9.372,180,10.6719,-1.246,-10.9709,0.4847,1.4815,0.0669,50
8.926,172,8.6246,3.0772,-22.8425,0.5229,0.4541,-0.5637,84,9.424,181,10.5735,-1.5102,-11.144,-0.3223,1.7662,0.4894,50
8.978,173,11.5604,6.3815,-16.5025,0.8186,0.6719,0.0248,84,9.475,182,7.5005,3.7224,-16.1146,-0.7599,1.974,1.0376,50
9.03,174,11.6666,4.2026,-16.9993,0.5276,0.8267,0.1867,84,9.527,183,3.313,4.1269,-19.7423,-0.7575,1.2701,0.5285,50
9.082,175,12.1127,3.2157,-16.7354,0.1161,1.2817,0.2139,84,9.579,184,7.5352,-2.2848,-22.39,-1.1765,0.316,0.2063,50
9.134,176,13.798,5.5611,-20.0168,-0.4715,1.6138,0.82,84,9.631,185,3.9337,2.1763,-19.7207,-0.2361,-0.3814,0.5134,50
9.185,177,10.2679,0.0468,-22.4244,-0.8624,0.5044,0.0388,84,9.683,186,5.3548,3.9048,-16.797,0.1613,-0.1278,0.6011,50
9.237,178,9.3454,-3.1545,-18.6878,-1.2825,-0.3052,0.0011,84,9.734,187,8.9088,1.3275,-14.9536,0.3682,0.4687,0.9155,50
9.289,179,8.8491,-3.9587,-15.9603,-0.4823,-0.8962,-0.0381,84,9.786,188,7.7469,-0.4322,-18.22,0.8849,0.9225,0.7565,50
9.341,180,8.4917,-2.5406,-10.1658,0.2109,-1.3275,-0.258,84,9.838,189,9.7586,1.9887,-20.1979,-0.0152,0.0065,0.241,50
9.393,181,11.4634,-5.1116,-15.4243,0.1709,-1.4633,-0.5677,84,9.89,190,7.8002,1.6371,-18.3037,-0.6608,-0.6621,-0.4955,50
9.444,182,13.6322,0.3706,-14.3991,-0.4093,-1.098,-0.1419,84,9.942,191,4.1369,-2.34,-10.7511,-0.7225,-1.141,-0.7292,50
9.496,183,13.8313,-0.6728,-13.6974,0.2912,-0.8574,-0.265,84,9.993,192,5.8644,1.1219,-15.8278,-0.1416,-0.8716,-0.258,50
9.548,184,11.8661,-0.9474,-17.8587,-0.3021,-0.673,-0.2716,84,10.045,193,9.3974,-1.4969,-8.9441,0.2364,-1.3023,-0.5223,50
9.6,185,10.4991,-0.5624,-10.45,-0.8899,0.1872,0.4088,84,10.097,194,8.5087,0.7772,-11.6464,0.5782,-1.1822,-0.3039,50
9.652,186,12.9284,-5.6475,-9.4303,-0.4833,0.8149,0.9761,84,10.149,195,11.1014,-0.7215,-10.0977,0.5552,-1.5296,-0.6288,50
9.703,187,14.7015,-6.0124,-10.7681,-0.18,1.2571,1.3901,84,10.201,196,11.5439,0.3777,-6.2443,1.0799,-0.6404,-0.5217,50
9.755,188,9.3423,-1.8351,-15.8639,0.5451,1.5929,1.3769,84,10.252,197,10.5721,-0.0023,-4.0101,1.4628,0.2175,-0.413,50
9.807,189,6.2189,1.4565,-19.5831,1.0744,0.6463,0.3985,84,10.304,198,12.8333,0.5973,-3.7605,0.3905,0.8437,0.1568,50
9.859,190,9.8045,6.415,-22.2975,0.3177,-0.2017,-0.0453,84,10.356,199,13.2951,2.6234,-9.5499,0.3574,1.3008,0.1366,50
9.911,191,12.4215,9.8484,-17.1738,0.8284,-0.8206,0.1269,84,10.408,200,8.7262,4.2113,-14.9511,-0.2325,1.6343,0.4042,50
9.963,192,11.7776,6.4351,-17.3311,0.4477,-0.1583,0.5292,84,10.46,201,11.4861,8.0178,-18.8932,0.1777,0.5294,-0.3681,50
10.014,193,13.6473,4.2739,-14.4124,0.4459,0.5628,0.6025,84,10.511,202,13.5003,2.7612,-19.7151,0.8044,-0.2804,-0.9401,50
10.066,194,6.8302,6.3971,-18.5237,0.2325,0.4593,0.7635,84,10.563,203,10.4843,-0.0099,-17.564,-0.0184,-0.8169,-0.2439,50
10.118,195,7.6185,5.811,-18.6147,0.2848,-0.3382,-0.0642,84,10.615,204,12.7372,-2.292,-10.2113,-0.6905,-0.7906,0.501,50
10.17,196,5.7366,3.0558,-12.1742,-0.2549,-0.9202,-0.1619,84,10.667,205,12.8013,1.762,-10.3937,-0.8017,-0.5005,0.1754,50
10.221,197,8.4396,-3.0068,-10.9279,-0.2506,0.0067,0.5596,84,10.719,206,9.8927,3.2955,-12.807,0.0896,-0.1945,-0.3493,50
10.273,198,5.51,3.1574,-15.9806,0.384,-0.4524,0.5872,84,10.77,207,11.2111,2.9824,-12.6375,0.0804,0.2185,-0.2277,50
10.325,199,7.3165,3.7433,-18.8372,-0.1741,0.2873,0.3883,84,10.822,208,11.778,2.0632,-12.1868,0.2478,0.1007,-0.2496,50
10.377,200,10.1776,7.5422,-12.0359,0.5433,-0.2305,0.2257,84,10.874,209,10.8191,1.3744,-12.1916,0.3217,0.1219,-0.2414,50
10.429,201,5.5137,2.8789,-12.3054,0.5474,-0.4097,-0.3342,84,10.926,210,9.735,0.7873,-12.0097,0.1449,0.0765,-0.2694,50
10.48,202,9.0651,4.5361,-11.7242,0.243,-0.8672,-0.5627,84,10.977,211,8.8546,-0.0312,-12.2577,-0.0384,-0.1343,-0.3237,50
10.532,203,7.371,2.5137,-12.6067,-0.4972,-0.3698,-0.2636,84,11.029,212,8.5921,0.9236,-12.286,-0.175,-0.228,-0.4694,50
10.584,204,6.2702,1.6002,-15.1453,0.2397,-0.0212,-0.0137,84,11.081,213,8.533,2.0961,-12.4068,-0.0267,-0.1579,-0.6061,50
10.636,205,5.7352,2.1859,-18.7334,-0.4005,-0.0305,0.266,84,11.133,214,9.2404,1.7383,-12.2913,-0.0902,-0.0698,-0.6378,50
10.688,206,5.5437,0.8764,-20.0159,-0.8337,-0.5982,0.6488,84,11.185,215,9.7795,1.0626,-11.8145,0.2221,-0.1068,-0.9489,50
10.739,207,5.2198,0.3692,-18.7643,-0.6519,-1.11,0.9081,84,11.236,216,9.3709,-0.1855,-13.0228,0.4674,-0.1543,-1.1684,50
10.791,208,4.8181,-0.0841,-16.7188,-1.151,-1.1252,0.9917,84,11.288,217,6.9286,2.6027,-17.081,-0.054,0.1482,-0.2066,50
10.843,209,4.8981,0.9054,-15.6506,-0.831,-0.7211,1.0617,84,11.34,218,7.0904,-1.4636,-17.4437,-0.0097,-0.2469,0.5296,50
