right_leg_timestamp,right_leg_index,right_leg_accel_x,right_leg_accel_y,right_leg_accel_z,right_leg_gyro_x,right_leg_gyro_y,right_leg_gyro_z,right_leg_battery_percentage,left_leg_timestamp,left_leg_index,left_leg_accel_x,left_leg_accel_y,left_leg_accel_z,left_leg_gyro_x,left_leg_gyro_y,left_leg_gyro_z,left_leg_battery_percentage
0.085,1,5.2607,6.8658,-10.6552,0.6267,0.8143,-0.7978,90,0.15,2,7.1665,1.2662,-11.5511,0.1405,0.6878,-1.4762,51
0.137,2,6.3808,8.0962,-9.9917,0.4868,0.604,-0.3855,90,0.202,3,5.8366,0.0606,-12.1925,-0.5745,0.8156,-1.2707,51
0.189,3,9.179,6.3528,-11.9386,0.1532,0.2765,0.3964,90,0.253,4,3.9116,-1.9367,-13.3044,-1.0964,0.8316,-0.8593,51
0.24,4,11.9479,9.9884,-15.6167,-0.5548,0.1202,0.9364,90,0.305,5,2.6759,-6.7103,-7.1024,-1.3512,0.2371,0.0328,51
0.292,5,8.6579,8.4266,-16.6247,-1.0802,-0.4418,0.1542,90,0.357,6,3.2943,-6.9685,-13.1648,-1.6632,0.5822,0.7043,51
0.344,6,7.197,5.5036,-14.3215,-0.9351,0.23,-0.5615,90,0.409,7,7.5216,-7.2732,-14.5393,-1.1301,0.4611,0.2417,51
0.396,7,4.8962,1.9343,-13.244,-0.2707,0.0472,-1.0384,90,0.461,8,10.3314,-6.7124,-14.1055,-0.5322,0.9452,-0.495,51
0.448,8,3.7401,2.5229,-12.9838,-0.3813,-0.5378,-0.7649,90,0.512,9,12.6576,-10.1958,-18.276,-0.4718,1.3706,-1.0081,51
0.499,9,4.1168,4.6938,-9.3495,-0.9535,0.171,-0.7284,90,0.564,10,7.5684,-3.578,-16.8811,0.3303,0.5179,-0.0554,51
0.551,10,8.2704,1.7551,-13.8492,-0.4517,-0.0968,-0.4382,90,0.616,11,5.5979,-0.5716,-13.2199,0.214,0.032,0.6399,51
0.603,11,11.3019,2.1734,-12.4397,-0.3809,-0.0773,-0.8741,90,0.668,12,5.1218,0.6728,-12.74,0.5844,-0.2238,0.9141,51
0.655,12,10.5821,3.0245,-14.6126,-0.3544,-0.1296,-0.3113,90,0.72,13,4.6825,0.2001,-12.4698,0.0186,-0.7505,1.3475,51
0.707,13,7.4565,4.9226,-15.4743,-0.1626,0.0687,0.4477,90,0.772,14,5.8298,0.5949,-17.0822,0.3973,-1.1741,0.9938,51
0.758,14,10.7078,-1.6443,-10.8789,-0.78,0.3709,0.985,90,0.823,15,9.3721,-4.092,-17.4922,0.0431,-0.9968,1.3234,51
0.81,15,10.5039,-3.228,-11.0584,0.1073,-0.3522,1.3967,90,0.875,16,11.9575,-6.8066,-17.3957,0.07,-0.4495,0.6582,51
0.862,16,10.1383,0.8575,-13.049,0.7548,-0.427,1.2562,90,0.927,17,13.7684,-3.0033,-17.0597,0.4788,0.3184,-0.0027,51
0.914,17,6.7429,4.9528,-13.6977,1.2274,0.1255,0.3457,90,0.979,18,10.6714,-1.1929,-16.6964,0.0632,0.0676,0.0489,51
0.966,18,3.903,8.9667,-18.0021,1.4598,-0.3312,-0.4204,90,1.03,19,7.3804,2.2962,-13.1736,-0.2047,0.6261,-0.2747,51
1.018,19,4.6989,5.1495,-16.2654,1.404,-0.4008,-0.9299,90,1.082,20,5.7785,1.527,-12.995,-0.8265,1.1419,-0.8669,51
1.069,20,3.7241,6.7184,-10.8232,0.8751,-0.7655,-0.0691,90,1.134,21,4.3733,-1.6722,-14.3922,-1.2328,1.2942,-1.0294,51
1.121,21,7.3373,3.66,-12.1951,0.425,-0.3403,0.6209,90,1.186,22,2.2929,-3.4425,-15.2621,-1.5688,0.8678,-0.4445,51
1.173,22,3.255,8.0232,-14.2854,-0.365,-0.5444,1.0675,90,1.238,23,6.7799,-7.8093,-8.5312,-0.8378,0.0388,0.2547,51
1.225,23,3.2849,5.9538,-12.5167,-0.3942,-1.0707,0.1116,90,1.289,24,5.0877,-7.6447,-11.1201,-1.2884,0.6644,0.8662,51
1.277,24,2.2676,2.687,-10.7891,-0.2183,-0.758,-0.4043,90,1.341,25,8.8305,-8.3156,-13.2469,-0.902,-0.1819,0.0598,51
1.328,25,2.4896,1.9621,-10.6945,-0.8346,-1.2266,-0.2863,90,1.393,26,11.2915,-6.1362,-13.0454,-0.7052,0.5522,-0.6278,51
1.38,26,2.8194,-1.0114,-9.1164,-1.2843,-0.5648,-0.368,90,1.445,27,10.1832,-9.7753,-17.5023,0.1578,1.0855,-0.7256,51
1.432,27,6.7547,4.2066,-14.6584,-0.5987,-0.0906,-0.9426,90,1.497,28,6.907,-7.347,-15.5463,-0.3154,0.1301,0.1508,51
1.484,28,10.1956,5.6717,-17.583,-0.797,0.4921,-0.8994,90,1.548,29,5.2933,-4.9821,-13.2757,-0.9072,-0.3844,0.7904,51
1.535,29,12.707,5.4758,-14.0429,-0.3333,-0.0464,-1.0837,90,1.6,30,3.7633,-4.3323,-12.3061,-1.3392,-0.6997,1.1251,51
1.587,30,11.5816,2.9632,-14.4193,-0.0569,0.1359,-0.7398,90,1.652,31,2.7884,-6.2791,-16.9627,-0.4802,-1.1009,0.9657,51
1.639,31,8.2236,3.7851,-15.4444,0.3454,0.6437,0.1061,90,1.704,32,7.1524,0.7094,-13.1039,0.2561,-1.4703,0.1282,51
1.691,32,7.7918,0.0104,-14.5998,0.1976,0.6844,0.7552,90,1.756,33,5.411,-2.662,-16.3629,-0.0853,-1.1626,0.7558,51
1.743,33,7.0072,-0.2574,-13.973,0.8199,0.5673,1.2289,90,1.807,34,9.0665,-3.1006,-17.6922,0.6098,-0.3623,0.0262,51
1.794,34,6.3195,1.4786,-13.6794,1.2749,0.5025,1.1113,90,1.859,35,4.9305,-1.035,-15.8202,-0.0349,0.4205,-0.1329,51
1.846,35,5.2678,4.6637,-13.1768,1.607,0.651,0.5638,90,1.911,36,3.6668,1.0627,-16.8273,0.1317,0.3024,-0.4882,51
1.898,36,6.9288,-1.8333,-17.6219,1.7851,0.1991,0.691,90,1.963,37,2.7915,1.7642,-13.9528,0.1342,0.5753,-1.01,51
1.95,37,5.6931,1.0765,-13.8279,1.3464,0.8237,-0.0195,90,2.015,38,1.2944,-0.0228,-14.3212,-0.1998,1.0494,-1.3937,51
2.002,38,9.4208,1.6642,-14.5113,1.29,0.051,0.6516,90,2.066,39,1.5151,-1.9463,-14.6427,-0.8229,1.0523,-1.0552,51
2.054,39,12.1415,-4.0224,-16.8065,1.0154,0.3204,0.7815,90,2.118,40,1.5715,-2.9259,-14.6387,-1.2777,0.6478,-0.2888,51
2.105,40,3.5372,1.7898,-11.9501,0.4576,0.6115,1.2481,90,2.17,41,3.3062,3.1567,-13.9712,-0.2578,-0.0942,-0.0926,51
2.157,41,6.8347,1.4422,-12.9917,-0.3127,0.0221,0.2369,90,2.222,42,-1.2826,1.096,-15.0077,-0.4069,0.6162,0.6127,51
2.209,42,6.0684,-0.5972,-12.0407,-0.9034,-0.151,-0.3457,90,2.273,43,4.1812,-2.7089,-13.3045,-0.0678,0.0351,-0.224,51
2.261,43,5.2868,-2.5934,-10.5879,-0.8664,-0.4294,-0.8484,90,2.325,44,7.236,0.9763,-13.7543,0.1766,0.7106,-0.8349,51
2.313,44,4.3895,-1.9669,-9.3632,-0.6655,-0.2224,-1.1888,90,2.377,45,1.4427,-4.5843,-15.8504,0.8036,1.2036,-1.1764,51
2.364,45,8.4694,-5.5203,-14.8386,-0.2123,-0.7806,-0.2269,90,2.429,46,1.8272,-4.0485,-15.9809,0.354,0.2496,-0.1782,51
2.416,46,11.4471,-2.2948,-12.1664,-0.523,-0.3673,-0.4056,90,2.481,47,2.3083,-2.6114,-13.245,-0.2163,-0.4846,0.5503,51
2.468,47,13.3968,-1.1958,-12.0247,-0.4134,-0.1646,-0.3731,90,2.532,48,1.9309,-0.8478,-12.1412,0.5038,-0.9244,0.7625,51
2.52,48,13.0122,-1.3055,-13.0329,-0.1958,0.3485,-0.2967,90,2.584,49,1.2324,2.0241,-10.6818,1.0424,-0.6663,0.5086,51
2.571,49,8.7855,1.7839,-13.1149,0.4393,0.8374,0.4612,90,2.636,50,6.0168,6.7695,-11.2192,1.4355,-1.1531,-0.034,51
2.623,50,7.215,-1.2026,-12.114,0.1197,1.1977,0.9647,90,2.687,51,9.5086,-0.2964,-14.9666,0.7646,-0.4879,0.5996,51
2.675,51,5.976,-1.5299,-12.0521,0.7639,1.0657,1.3818,90,2.739,52,12.0571,-0.4035,-14.6451,0.9802,0.3289,-0.1395,51
2.727,52,4.9007,1.4125,-13.8399,1.2341,0.5862,1.2114,90,2.791,53,8.3177,0.3606,-15.1477,0.4196,0.925,-0.352,51
2.779,53,4.4719,4.402,-15.1036,1.3618,0.5797,0.4632,90,2.843,54,10.6205,1.7772,-14.0145,-0.2064,0.0083,-0.6605,51
2.83,54,3.1044,8.5647,-19.0282,1.1777,0.0868,-0.2269,90,2.895,55,6.3347,0.7275,-13.0711,-0.5633,0.5184,-1.0938,51
2.882,55,5.4829,8.026,-16.4109,0.4744,-0.0073,-0.4332,90,2.946,56,4.67,-0.1729,-13.0736,-1.0653,0.8568,-1.2986,51
2.934,56,9.0617,6.7418,-14.9784,0.2876,0.1065,0.3616,90,2.998,57,3.2236,-2.0449,-15.3019,-1.4546,0.833,-0.7441,51
2.986,57,9.2188,10.2724,-18.9368,-0.4653,-0.3671,0.5044,90,3.05,58,0.6666,-3.9363,-16.363,-1.7387,0.6482,-0.0534,51
3.038,58,7.4822,4.2472,-16.5476,-1.0148,-0.742,-0.3059,90,3.102,59,5.6038,-3.7245,-16.5098,-1.1875,-0.1937,-0.1879,51
3.09,59,8.3613,2.626,-15.3312,-0.9986,-1.1547,-0.8928,90,3.154,60,-1.3827,-7.1867,-18.9978,-1.1008,0.3957,0.0398,51
3.141,60,7.7535,0.7875,-13.8531,-1.404,-1.0688,-1.1392,90,3.205,61,4.1081,-5.8454,-18.3526,-0.49,0.7346,-0.6424,51
3.193,61,6.4679,-1.392,-12.2381,-1.6999,-0.8705,-1.1102,90,3.257,62,8.1156,-2.9122,-16.3096,-0.3174,0.899,-1.1403,51
3.245,62,8.2214,2.1035,-6.845,-0.9556,-0.3436,-0.8937,90,3.309,63,3.7093,-0.066,-17.8133,0.443,1.3411,-0.4716,51
3.297,63,10.6946,-1.7615,-11.5552,-0.8382,0.4276,-0.7535,90,3.361,64,3.5214,-2.6055,-15.7992,-0.3538,0.312,0.3362,51
3.349,64,13.0711,-0.708,-9.564,-0.3822,-0.3611,-0.7902,90,3.413,65,2.506,-2.046,-14.0192,-0.8987,-0.4297,0.9257,51
3.4,65,13.7713,-0.8231,-11.9323,-0.01,-0.3377,-0.6212,90,3.464,66,1.8301,-0.9225,-11.867,-0.6457,-0.9149,1.0007,51
3.452,66,9.6342,0.7743,-16.7136,-0.1233,0.4319,0.0729,90,3.516,67,2.2587,2.2397,-16.6422,0.2034,-0.3367,0.173,51
3.504,67,7.2885,-0.4473,-15.3247,-0.7652,-0.2207,0.558,90,3.568,68,6.7658,1.4262,-20.1274,-0.5286,-0.9125,0.1633,51
3.556,68,5.429,-1.5598,-12.7953,-0.2307,0.1327,0.7442,90,3.62,69,10.0553,-1.5935,-20.1876,-0.0037,-0.7393,-0.0111,51
3.608,69,4.7139,-1.257,-12.1673,0.5082,-0.1965,0.7948,90,3.671,70,10.649,0.463,-18.6887,0.672,0.0902,-0.6786,51
3.659,70,3.518,1.0973,-12.9719,1.0474,0.3603,0.5287,90,3.723,71,6.2864,2.2557,-17.5296,1.1651,0.5775,-0.6913,51
3.711,71,2.2939,2.6365,-12.5795,1.369,0.9413,0.1732,90,3.775,72,6.4064,5.1829,-14.1373,1.4745,0.5343,-1.175,51
3.763,72,6.859,-3.3128,-11.1041,0.5581,0.3515,0.538,90,3.827,73,6.2046,4.5236,-12.4517,0.9285,0.592,-1.529,51
3.815,73,9.5715,1.7218,-13.4715,0.4154,-0.1328,0.2649,90,3.879,74,5.0465,1.1016,-13.2602,0.0006,0.7282,-1.2625,51
3.867,74,12.2514,1.811,-14.5803,0.205,0.4009,0.8711,90,3.93,75,4.5178,-0.8932,-14.3923,-0.6766,0.2782,-0.4775,51
3.918,75,10.4545,6.6737,-18.6462,-0.5256,0.0939,0.9151,90,3.982,76,4.5009,-5.9385,-8.0543,-1.1176,-0.2656,0.3318,51
3.97,76,7.5757,4.1651,-18.4042,-0.8903,-0.5119,-0.0061,90,4.034,77,7.9662,-6.8623,-13.8596,-1.4926,0.1532,0.9225,51
4.022,77,10.7948,3.2096,-16.7412,-0.3085,-1.047,-0.6785,90,4.086,78,9.6133,-7.6169,-14.1712,-1.1124,-0.3158,0.0019,51
4.074,78,8.191,-0.2377,-14.3319,-0.1844,-1.1918,-1.1634,90,4.137,79,12.1335,-2.9384,-13.5466,-0.4972,0.4545,-0.67,51
4.126,79,7.1316,-2.1418,-10.7827,-0.7587,-0.8022,-0.7533,90,4.189,80,6.2127,-1.6152,-15.3979,0.3118,1.0167,-0.0372,51
4.177,80,10.4707,3.2118,-10.6029,-0.4,-1.1807,-0.21,90,4.241,81,5.454,-1.4016,-12.2391,-0.2678,0.5451,0.6532,51
4.229,81,12.9077,1.3876,-12.7953,-0.5195,-0.776,-0.4656,90,4.293,82,3.3014,-2.375,-12.7596,-0.5018,0.2599,0.6995,51
4.281,82,14.6864,0.398,-12.9385,-0.4489,-0.7823,-0.2545,90,4.345,83,2.8348,-0.6718,-12.1685,0.3074,-0.115,1.0316,51
4.333,83,13.5164,2.3625,-14.5622,-0.7782,-0.2212,0.3277,90,4.396,84,1.7868,0.935,-11.2599,0.683,-0.3085,1.1134,51
4.385,84,9.0856,2.4359,-13.2216,0.0257,0.5169,0.9169,90,4.448,85,1.4233,-4.6144,-8.4664,0.7981,-0.8654,0.8966,51
4.436,85,6.8857,-0.408,-12.0602,0.6953,0.988,0.615,90,4.5,86,6.1561,-6.6146,-7.9757,0.4973,-1.2984,0.3889,51
4.488,86,5.2164,-1.428,-13.0673,1.184,1.3292,1.1266,90,4.552,87,9.6103,-7.6696,-9.9477,0.2691,-0.8164,0.263,51
4.54,87,5.9428,0.1794,-15.3846,1.5406,1.183,1.0545,90,4.604,88,10.2544,-3.5284,-10.1679,0.3137,-0.0741,-0.2186,51
4.592,88,4.5389,2.7218,-16.8302,1.801,1.006,0.5041,90,4.655,89,5.8629,-4.0399,-11.9308,-0.4481,0.6305,0.0246,51
4.643,89,2.4591,7.3384,-19.0015,1.3165,1.4124,-0.1017,90,4.707,90,4.5915,-1.9392,-11.4081,-0.0362,1.0483,-0.55,51
4.695,90,7.0605,3.8096,-11.2841,0.3296,1.3926,-0.4669,90,4.759,91,4.6601,-1.1967,-11.0065,-0.0439,1.0842,-1.0728,51
4.747,91,7.2644,4.6904,-9.2419,0.1117,0.344,0.2288,90,4.811,92,3.765,-1.5099,-11.4611,-0.7091,1.0384,-1.1098,51
4.799,92,10.5676,0.3663,-13.4365,-0.2783,0.5992,0.8028,90,4.863,93,2.9406,-2.0521,-12.1778,-1.1946,0.766,-0.7994,51
4.851,93,6.2453,5.1514,-14.2285,-0.8783,0.0562,1.2637,90,4.914,94,4.7004,-6.7945,-16.8691,-0.8639,1.0799,-0.0458,51
4.902,94,4.8848,1.9604,-12.8069,-1.2485,-0.5113,0.2483,90,4.966,95,8.5478,-10.2557,-11.4218,-0.9744,0.9399,0.5815,51
4.954,95,4.0599,1.6713,-11.0639,-0.5759,-0.8335,-0.4663,90,5.018,96,9.6997,-9.876,-13.2091,-0.7548,0.0929,-0.0556,51
5.006,96,2.9615,-0.2698,-10.9214,-1.0844,-0.8505,-0.6098,90,5.07,97,12.1966,-4.5941,-13.3889,-0.4403,0.7528,-0.712,51
5.058,97,2.5162,-0.2132,-10.8864,-1.4667,-1.0144,-0.2047,90,5.121,98,5.6993,-6.3936,-15.1505,0.2788,1.2344,-0.6228,51
5.11,98,7.1022,0.8395,-5.3613,-1.2478,-0.5573,0.0795,90,5.173,99,5.2142,-7.4084,-14.0327,-0.4544,0.2341,0.2258,51
5.161,99,10.4492,-0.2103,-6.2043,-1.0512,-0.0663,-0.2536,90,5.225,100,4.4584,-3.7764,-12.7189,-1.0087,-0.494,0.8452,51
5.213,100,12.8921,0.5224,-6.6005,-0.6729,-0.4752,-0.1471,90,5.277,101,1.7296,-3.4825,-11.9332,-1.4133,-0.6061,1.0011,51
5.265,101,12.6286,0.9565,-8.3223,-0.5408,0.023,0.1161,90,5.329,102,0.968,-2.368,-11.0976,-0.3585,-0.8921,0.742,51
5.317,102,8.9212,1.826,-10.5912,-0.2096,0.6952,0.7476,90,5.38,103,3.493,-0.35,-14.2985,0.413,-1.2825,0.2914,51
5.369,103,6.3654,-2.012,-10.4847,0.4687,1.032,0.9399,90,5.432,104,7.6667,-3.497,-14.5166,0.3086,-0.5538,0.6024,51
5.42,104,5.4377,-0.8577,-10.6857,1.0186,1.0256,1.2452,90,5.484,105,9.5039,-2.1755,-14.1268,0.6199,0.2808,-0.1552,51
5.472,105,4.8451,0.4743,-11.6296,0.8716,1.4012,1.0943,90,5.535,106,6.7119,-1.6182,-14.0403,0.1662,0.8083,-0.3365,51
5.524,106,4.0359,1.1586,-12.1446,1.3127,1.512,0.1902,90,5.587,107,7.1459,0.4222,-12.8153,0.796,0.6375,-0.9043,51
5.576,107,3.8417,-4.3914,-16.8685,1.5135,1.6462,0.1742,90,5.639,108,5.7323,1.761,-10.6568,1.2556,0.714,-1.3314,51
5.628,108,7.6161,0.5574,-20.3163,1.1944,0.6057,0.041,90,5.691,109,5.7736,0.8642,-10.423,0.4756,0.6363,-1.5822,51
5.679,109,10.8243,0.0667,-18.2573,0.452,0.0945,0.7031,90,5.743,110,4.8862,-0.2643,-11.3993,-0.33,0.6869,-1.0514,51
5.731,110,8.9945,5.4006,-21.2086,-0.3453,0.314,1.0145,90,5.794,111,4.6962,-5.4897,-5.712,-0.9179,-0.0323,-0.1455,51
5.783,111,6.1702,1.4645,-22.3833,-0.9272,-0.1314,0.0664,90,5.846,112,8.5448,-9.3034,-12.15,-1.2377,-0.5064,0.3453,51
5.835,112,7.6264,2.2364,-20.5106,-0.4635,-0.7693,-0.6256,90,5.898,113,11.3537,-9.0816,-12.5377,-0.6716,-0.0397,-0.4194,51
5.887,113,6.4071,1.2465,-16.9624,0.3382,-1.1833,-1.1306,90,5.95,114,13.4037,-5.3916,-13.9072,-0.5207,0.656,-0.9775,51
5.938,114,5.4392,0.4862,-14.371,0.2945,-1.3235,-1.3853,90,6.002,115,7.4958,-6.2989,-16.5202,0.2674,0.7468,-0.5896,51
5.99,115,5.0065,-2.3695,-18.4935,0.1213,-1.1199,-0.9969,90,6.053,116,5.074,-4.5743,-14.7395,0.008,0.5741,0.25,51
6.042,116,8.9197,-0.0544,-18.9063,0.0218,-0.6516,-0.7746,90,6.105,117,4.8759,-3.1938,-13.1435,-0.0857,0.1719,0.6774,51
6.094,117,11.7758,0.2969,-15.9147,-0.0682,-0.3671,-0.5862,90,6.157,118,3.1153,-1.3359,-11.9481,0.5559,-0.229,0.894,51
6.146,118,10.4221,2.5765,-16.1714,-0.402,-0.0574,0.0189,90,6.209,119,3.419,2.4055,-6.1125,0.9929,-0.4647,0.7212,51
6.197,119,7.0211,3.2665,-15.8873,-0.4516,0.4939,0.6916,90,6.261,120,7.6126,6.434,-9.7257,0.5019,-1.0059,0.3167,51
6.249,120,5.5332,-0.0207,-12.6831,0.3469,1.0344,1.0051,90,6.312,121,10.6733,0.6727,-9.9888,0.8416,-1.2045,-0.1101,51
6.301,121,5.3408,-1.0199,-12.4516,0.9297,1.3132,1.4011,90,6.364,122,9.5791,3.0134,-10.0848,0.4679,-0.3918,-0.4452,51
6.353,122,5.3643,1.5156,-15.8497,1.3551,0.8079,0.9561,90,6.416,123,5.9978,1.0349,-11.7089,-0.1634,0.2091,-0.4474,51
6.405,123,3.4769,2.7312,-15.9984,1.6125,0.6535,0.0456,90,6.468,124,4.3239,2.4861,-11.8481,-0.7892,0.6382,-0.5864,51
6.457,124,2.4864,3.301,-9.0923,0.5024,1.1325,-0.6403,90,6.519,125,3.5197,2.4581,-12.425,-1.0989,0.6514,-0.9675,51
6.508,125,6.4868,3.9014,-6.5146,0.1923,0.7787,0.1966,90,6.571,126,3.2718,1.6794,-12.5382,-1.4791,0.5797,-1.0273,51
6.56,126,10.0001,-2.2382,-10.4665,-0.092,1.2467,0.6117,90,6.623,127,2.9997,0.5275,-13.5609,-1.7566,0.4412,-0.5057,51
6.612,127,5.2815,0.0143,-8.6557,-0.7424,1.5201,1.1242,90,6.675,128,5.5163,-4.9118,-7.2896,-1.917,-0.2663,0.3113,51
6.664,128,3.5436,1.3152,-10.062,-1.2171,0.6156,0.1668,90,6.726,129,9.1433,-8.8817,-10.7037,-2.0431,0.3494,0.7977,51
6.715,129,3.3325,-0.0863,-10.2545,-1.415,-0.2241,-0.5126,90,6.778,130,11.7905,-6.1885,-11.3466,-1.0069,0.8155,-0.0892,51
6.767,130,2.477,-1.1099,-9.8589,-1.6439,-0.0478,-0.816,90,6.83,131,6.959,-9.8134,-16.2624,-0.0602,1.2801,-0.6516,51
6.819,131,4.0507,-3.7128,-6.1103,-0.8195,0.4027,-0.1387,90,6.882,132,6.0573,-6.9983,-15.9845,-0.0024,0.3933,0.2048,51
6.871,132,8.2221,-7.9468,-11.0187,-1.0023,0.9142,-0.1164,90,6.934,133,5.0023,-4.3194,-15.0648,-0.6788,-0.3797,0.8298,51
6.923,133,11.2666,-1.9663,-12.3622,-1.0078,0.125,-0.0574,90,6.985,134,3.9893,-1.7192,-13.188,-0.1451,-0.9439,0.9859,51
6.974,134,13.4886,-4.0261,-11.8054,-0.8103,-0.0773,0.0247,90,7.037,135,4.137,-4.3763,-15.2294,0.5688,-1.2781,0.7871,51
7.026,135,10.2144,-4.2382,-13.3997,-0.4832,0.3711,-0.114,90,7.089,136,4.4713,-6.7894,-19.0963,0.4954,-1.2443,0.7621,51
7.078,136,8.2069,-2.7106,-12.1853,0.3239,0.4814,0.2184,90,7.141,137,8.3807,-8.3053,-18.6677,0.2504,-0.7345,0.6603,51
7.13,137,6.3874,-2.6621,-11.6298,0.9129,0.8021,0.224,90,7.193,138,10.5981,-5.5236,-17.1544,0.6881,0.1481,-0.0201,51
7.182,138,5.9495,-1.9874,-12.3559,1.3428,1.0806,-0.0515,90,7.244,139,9.5074,-2.8326,-18.015,0.1553,0.6937,-0.1874,51
7.233,139,4.0063,0.3169,-14.7674,1.6566,1.3927,-0.6151,90,7.296,140,8.0346,-1.5432,-15.5349,0.4881,0.3716,-0.5773,51
7.285,140,1.4934,5.5832,-8.1938,1.8856,0.7795,-0.9928,90,7.348,141,6.0816,0.0654,-13.8819,-0.1751,0.7983,-0.9149,51
7.337,141,5.1335,4.769,-9.2149,1.5514,0.087,-0.7838,90,7.4,142,5.3544,-0.3536,-14.1366,-0.8049,1.0507,-1.1988,51
7.389,142,6.7764,5.9747,-8.6377,1.1446,0.1339,0.0995,90,7.452,143,4.4934,-1.3993,-14.5124,-1.2645,0.8817,-0.8747,51
7.441,143,10.2114,2.3319,-12.1831,0.2332,0.72,0.4994,90,7.504,144,3.17,-2.0643,-15.3872,-1.2712,0.3756,-0.4752,51
7.492,144,6.3815,4.6971,-12.2702,-0.5051,1.1063,1.0422,90,7.555,145,3.8099,-6.8034,-8.6225,-1.0539,-0.3091,-0.2688,51
7.544,145,4.0623,4.1656,-11.8665,-1.0115,0.5999,0.0866,90,7.607,146,-0.3514,-7.7479,-10.2058,-0.6066,0.4594,0.4405,51
7.596,146,3.7039,1.0451,-12.6569,-1.3259,-0.2355,-0.5934,90,7.659,147,4.8608,-7.6282,-10.4765,-0.2856,-0.2232,-0.3499,51
7.648,147,2.4729,0.3908,-10.838,-1.6108,-0.0834,-0.8859,90,7.711,148,7.0644,-4.2066,-11.7186,-0.2444,0.522,-0.9268,51
7.7,148,0.9438,5.6101,-14.1487,-1.1559,-0.335,-0.6152,90,7.763,149,3.1244,1.4834,-16.5339,0.4963,1.066,-0.3102,51
7.752,149,4.6722,-1.1425,-14.3604,-1.0497,0.4339,-0.3709,90,7.814,150,2.6641,-2.0657,-15.2276,1.0369,0.1914,0.4539,51
7.803,150,8.6757,2.5926,-14.9455,-0.9352,-0.3396,-0.5895,90,7.866,151,2.6019,-0.3997,-13.0176,1.4315,-0.2345,0.9129,51
7.855,151,11.5977,0.9688,-14.199,-0.5761,-0.8775,-0.7238,90,7.918,152,1.8668,-0.0348,-11.9909,1.4713,-0.3472,1.0832,51
7.907,152,8.5439,-0.6668,-17.0586,-0.2674,0.0379,-0.5923,90,7.97,153,3.0973,2.4699,-16.313,1.6457,-0.1975,0.5003,51
7.959,153,6.0289,-0.0083,-14.5609,0.4715,0.0582,0.2455,90,8.022,154,7.3778,-3.1696,-9.2982,0.8583,-0.8109,0.5331,51
8.01,154,4.6883,-3.4114,-14.5835,1.0207,0.5112,0.7065,90,8.073,155,10.5019,-6.5469,-8.9498,0.4783,-0.4786,-0.2231,51
8.062,155,4.6744,-1.8701,-14.5261,1.4215,0.4341,0.7432,90,8.125,156,10.0176,0.5017,-8.6813,0.0316,0.3034,-0.3568,51
8.114,156,4.0571,0.7021,-15.0879,1.714,0.568,0.395,90,8.177,157,6.0213,0.6684,-11.7724,-0.654,0.3377,0.0193,51
8.166,157,3.0644,5.8644,-19.0167,0.8735,-0.0634,-0.3644,90,8.229,158,3.267,1.2016,-11.2328,-0.5497,0.9314,-0.4299,51
8.218,158,7.5023,9.632,-12.5047,-0.0377,0.206,-0.7741,90,8.28,159,3.4561,1.3432,-11.48,-0.8168,1.0557,-0.9852,51
8.269,159,9.36,8.6857,-12.2543,-0.1672,0.4902,-0.2095,90,8.332,160,3.0344,0.4602,-12.3895,-1.2732,1.2054,-0.9738,51
8.321,160,11.8052,5.6009,-15.8461,-0.777,0.7932,0.2701,90,8.384,161,1.5975,-1.7391,-16.0171,-1.6063,1.1831,-0.2195,51
