right_leg_timestamp,right_leg_index,right_leg_accel_x,right_leg_accel_y,right_leg_accel_z,right_leg_gyro_x,right_leg_gyro_y,right_leg_gyro_z,right_leg_battery_percentage,left_leg_timestamp,left_leg_index,left_leg_accel_x,left_leg_accel_y,left_leg_accel_z,left_leg_gyro_x,left_leg_gyro_y,left_leg_gyro_z,left_leg_battery_percentage
0.032,0,7.5983,-2.8697,-12.0057,1.4947,0.2989,-1.687,87,0.081,1,8.253,-1.6554,-11.4702,1.9422,0.4773,0.6578,51
0.084,1,8.3831,3.2574,-15.4082,1.7674,-0.3014,-1.5611,87,0.133,2,6.7184,-1.7356,-12.0324,1.6948,0.5698,1.0706,51
0.136,2,8.9464,-2.8173,-14.8715,0.6147,0.0098,-0.8615,87,0.185,3,2.843,0.8419,-12.9084,1.3742,0.3752,1.3683,51
0.188,3,9.7699,0.3637,-14.2849,0.707,-0.0611,-0.4898,87,0.237,4,6.6439,-0.9872,-17.4023,1.0032,0.5034,1.6387,51
0.24,4,9.3445,-0.9317,-13.7233,0.3406,0.077,-0.1835,87,0.288,5,7.988,-5.3002,-17.1497,1.2025,-0.2994,0.8957,51
0.291,5,8.9969,-1.7537,-13.0783,0.0092,0.0206,-0.2168,87,0.34,6,8.8215,-2.636,-17.8854,1.5523,0.077,0.0013,51
0.343,6,8.7913,-2.2288,-12.8687,0.1924,-0.3492,-0.6973,87,0.392,7,7.2856,-7.2206,-15.9956,1.8076,0.5789,0.2502,51
0.395,7,5.6525,-1.0201,-14.4106,0.5098,-0.4889,-1.0894,87,0.444,8,10.4293,-1.6637,-14.3812,1.1681,0.6211,0.7275,51
0.447,8,6.3617,0.9303,-13.9809,0.1833,-0.3133,-1.41,87,0.496,9,5.189,0.7001,-13.6723,0.1754,1.0123,0.7605,51
0.499,9,9.2528,2.0196,-15.0806,0.0675,-0.0224,-1.079,87,0.547,10,1.3152,-3.4855,-15.7561,0.7563,0.4415,-0.0001,51
0.55,10,12.0189,-3.0269,-13.5673,0.6064,0.5373,-0.5883,87,0.599,11,6.0772,-3.8602,-14.4739,1.2266,0.1495,-0.216,51
0.602,11,7.1715,-4.9794,-16.0746,0.3977,0.1237,-0.6887,87,0.651,12,9.5527,2.4748,-14.1561,1.4588,-0.1326,-0.2037,51
0.654,12,5.8473,-5.1825,-11.8842,0.9668,0.1699,-0.987,87,0.703,13,12.0892,0.5996,-17.9496,1.1844,-0.0968,0.2301,51
0.706,13,-0.6702,-9.0195,-12.6145,0.0645,0.8024,-0.0733,87,0.755,14,13.9406,1.6785,-16.8662,1.1789,0.024,0.8483,51
0.758,14,1.1715,-7.3499,-13.6464,0.7236,1.1943,0.6243,87,0.806,15,11.3215,3.3721,-16.129,0.7515,-0.3563,0.6865,51
0.809,15,2.1348,-0.1407,-13.0695,1.0873,0.8955,1.1334,87,0.858,16,8.397,7.7533,-13.5186,1.2232,-0.1415,-0.1704,51
0.861,16,-0.0113,3.6246,-12.7461,1.3161,0.3557,0.2975,87,0.91,17,8.432,9.7926,-12.6424,0.2727,-0.5847,-0.7958,51
0.913,17,5.2575,7.9973,-6.7186,1.2992,0.4264,-0.119,87,0.962,18,11.2713,2.109,-16.6994,-0.478,-0.4933,-1.2522,51
0.965,18,9.1029,8.1384,-12.9084,1.6214,-0.3622,-0.0553,87,1.014,19,13.3436,-3.7576,-16.0048,-1.026,-0.229,-1.2474,51
1.017,19,11.6061,3.364,-11.6472,0.8101,-0.1181,0.2377,87,1.065,20,11.3032,-7.439,-17.4403,-1.1603,-0.5316,-0.2388,51
1.068,20,10.9695,2.0764,-11.2836,0.837,0.1522,0.1292,87,1.117,21,11.6396,-5.5708,-15.7588,-0.9049,-0.4015,-0.299,51
1.12,21,9.25,1.5411,-11.2561,1.2874,-0.0253,-0.2871,87,1.169,22,11.1244,-4.2953,-14.9777,-0.6179,-0.5454,-0.3358,51
1.172,22,6.5505,3.6624,-13.2586,1.5195,-0.2305,-0.6559,87,1.221,23,10.0407,-3.2383,-12.7081,-0.5372,-0.3125,-0.3787,51
1.224,23,4.8344,4.0546,-12.2467,1.3093,-0.6054,-0.8355,87,1.273,24,9.8306,-2.1925,-11.9577,-0.5518,-0.2909,-0.2471,51
1.276,24,8.7941,-2.2778,-15.1974,1.0749,-1.1152,-0.8301,87,1.324,25,9.6466,-1.5172,-11.8243,-0.5664,-0.0849,-0.1525,51
1.327,25,5.2404,-1.9969,-16.5506,0.66,-0.4183,-1.0653,87,1.376,26,9.5441,-1.1243,-11.5624,-0.4754,0.0707,-0.062,51
1.379,26,7.9766,-0.9923,-16.956,-0.1935,-0.3563,-0.1379,87,1.428,27,9.4699,-1.0526,-11.1337,-0.4826,0.1443,-0.0554,51
1.431,27,7.4574,-0.4567,-18.0171,-0.8165,-0.1449,0.4411,87,1.479,28,9.3992,-0.5365,-10.667,-0.5889,0.1899,-0.0622,51
1.483,28,7.1624,-0.9293,-18.4896,-1.2711,-0.5352,0.4455,87,1.531,29,9.5214,-0.0868,-10.3794,-0.7369,0.2932,0.0134,51
1.535,29,6.8725,-1.3703,-16.8727,-1.6029,-1.0322,0.1231,87,1.583,30,9.5979,0.1743,-9.4724,-1.1148,0.5424,0.0759,51
1.586,30,5.7045,-2.7689,-15.6719,-1.8451,-1.1599,0.6358,87,1.635,31,10.1721,0.4754,-8.9765,-1.4907,0.8402,0.1812,51
1.638,31,6.0813,-1.0988,-18.8227,-1.9718,-1.2556,1.1418,87,1.687,32,10.0189,0.7812,-9.4815,-1.765,1.0969,0.3409,51
1.69,32,7.9133,0.4606,-15.3473,-2.1143,-0.9317,1.511,87,1.738,33,9.7698,0.295,-10.0748,-1.9653,1.2625,0.4002,51
1.742,33,9.11,-1.1207,-11.1838,-2.0499,-0.8886,1.4633,87,1.79,34,8.6288,1.7788,-10.1714,-2.1114,0.9763,0.3435,51
1.794,34,9.2188,-2.1591,-12.5188,-1.2003,-0.8382,1.1895,87,1.842,35,8.3575,2.1882,-11.1029,-2.2181,0.5973,0.1889,51
1.845,35,9.5019,-2.7896,-13.4924,-1.1352,-0.7418,1.1604,87,1.894,36,8.2253,2.3496,-12.3412,-2.2959,0.7581,-0.2371,51
1.897,36,9.4964,-1.6765,-12.6765,-0.9761,-0.708,1.033,87,1.945,37,9.5911,-1.6813,-12.4009,-2.3527,1.0058,-0.4575,51
1.949,37,9.161,-1.3951,-13.169,-0.8251,-0.6,0.9727,87,1.997,38,6.8182,-1.9993,-11.743,-1.5426,0.0674,-0.6299,51
2.001,38,9.3912,-1.3147,-12.7566,-0.6283,-0.4451,0.8592,87,2.049,39,5.4409,-0.0743,-11.8185,-0.6612,0.722,-0.4674,51
2.053,39,9.5532,-1.2759,-12.6218,-0.4143,-0.299,0.6958,87,2.101,40,6.4956,-0.3956,-10.516,-0.6828,0.322,-0.517,51
2.105,40,9.4786,-1.2023,-12.4516,-0.3183,-0.1983,0.4738,87,2.153,41,7.1159,-0.3292,-10.9898,-0.5599,0.1863,-0.6082,51
2.156,41,9.3852,-1.2191,-12.3248,-0.2826,-0.1591,0.2153,87,2.205,42,7.6667,0.0356,-11.097,-0.4662,0.1643,-0.5503,51
2.208,42,9.5427,-0.9991,-12.3736,-0.2791,-0.1143,-0.0156,87,2.256,43,8.0703,0.0574,-11.0439,-0.375,0.1227,-0.3524,51
2.26,43,9.6637,-0.4429,-12.4367,-0.291,-0.0292,-0.1465,87,2.308,44,8.3533,0.1094,-11.1881,-0.2652,0.122,-0.1999,51
2.312,44,9.8516,-0.1403,-12.4882,-0.304,0.1417,-0.1636,87,2.36,45,8.5275,0.1289,-11.0879,-0.1588,0.1679,-0.0294,51
2.364,45,9.6814,0.2075,-12.0388,-0.2892,0.2547,-0.0927,87,2.412,46,8.6588,0.0307,-11.1198,-0.0717,0.1909,0.1359,51
2.415,46,9.5353,0.3905,-11.6079,-0.2702,0.3217,0.0008,87,2.463,47,8.7558,-0.0493,-11.0913,-0.0156,0.1397,0.3019,51
2.467,47,9.5637,0.4499,-11.6022,-0.3666,0.2987,0.0628,87,2.515,48,8.924,-0.2251,-10.827,0.0793,0.1044,0.4768,51
2.519,48,9.271,0.7446,-12.3452,-0.9423,0.1772,0.2061,87,2.567,49,10.2482,-0.1965,-10.8278,0.1991,0.0189,0.8079,51
2.571,49,9.005,0.4152,-12.476,-1.3629,-0.0093,0.3767,87,2.619,50,11.1943,0.1573,-10.6137,0.3585,0.0441,1.2564,51
2.622,50,9.571,-0.9365,-10.5132,-1.3881,-0.1892,0.3496,87,2.67,51,11.2238,0.0357,-11.004,0.2752,0.0929,1.5973,51
2.674,51,10.3137,-0.484,-10.8448,-0.611,-0.3844,0.1737,87,2.722,52,8.528,0.7658,-10.7852,0.1653,0.1701,1.1638,51
2.726,52,10.1264,-0.1644,-11.3546,-0.5777,-0.3854,0.1859,87,2.774,53,6.8729,1.3037,-10.4671,0.0324,0.1194,0.2734,51
2.778,53,10.3252,0.3413,-11.5294,-0.1868,-0.3819,0.1745,87,2.826,54,6.7136,1.5089,-10.4856,-0.1101,0.0423,-0.4718,51
2.83,54,10.0631,-0.1486,-11.8137,-0.2598,-0.3652,0.2729,87,2.878,55,8.1209,1.2135,-11.3894,-0.1249,-0.0555,-1.0158,51
2.881,55,9.8204,-0.2529,-11.925,-0.2267,-0.3025,0.2341,87,2.929,56,8.4805,-4.4111,-12.0149,-0.6845,0.3493,-0.5758,51
2.933,56,9.6621,-0.5782,-12.0148,-0.2249,-0.2919,0.1226,87,2.981,57,11.3067,1.2996,-15.1553,-0.4846,-0.4115,-0.8396,51
2.985,57,9.6845,-0.4657,-12.2785,-0.2044,-0.2677,0.017,87,3.033,58,10.6955,0.9974,-14.0242,-0.2089,-0.3034,-0.6699,51
3.037,58,9.5801,-0.2985,-12.3973,-0.1689,-0.2148,-0.0378,87,3.085,59,10.1529,0.6248,-13.2842,-0.1782,-0.2971,-0.4655,51
3.089,59,9.4162,-0.2486,-12.4966,-0.1615,-0.1628,-0.0673,87,3.137,60,9.8771,0.5267,-12.8097,-0.1181,-0.2085,-0.3326,51
3.14,60,9.3151,-0.2326,-12.5335,-0.1835,-0.1304,-0.1114,87,3.188,61,9.9046,0.2845,-12.793,-0.0736,-0.118,-0.2028,51
3.192,61,9.3554,-0.6374,-12.4437,-0.1711,-0.1272,-0.2527,87,3.24,62,9.7061,0.1311,-12.3804,-0.0255,-0.0887,-0.087,51
3.244,62,9.8643,-0.4559,-12.4054,-0.2553,-0.1553,-0.4069,87,3.292,63,9.4718,0.0135,-12.0986,0.0073,-0.0585,-0.0217,51
3.296,63,10.1723,-0.4195,-12.2163,-0.3963,-0.2401,-0.5847,87,3.344,64,9.3123,-0.077,-11.8512,0.0189,-0.0293,0.0032,51
3.348,64,10.1216,-0.0359,-12.5367,-0.4639,-0.3872,-0.8094,87,3.395,65,9.2473,-0.2875,-11.6769,0.0046,0.0185,0.0213,51
3.399,65,9.705,0.5894,-12.9872,-0.5063,-0.4741,-0.9289,87,3.447,66,9.1423,-0.2454,-11.5549,-0.0077,0.0434,0.0275,51
3.451,66,8.7764,0.7375,-12.8526,-0.5214,-0.3707,-0.7035,87,3.499,67,9.0584,-0.3384,-11.3912,-0.0148,0.0416,-0.0003,51
3.503,67,8.0558,0.5769,-12.5674,-0.4143,-0.1394,-0.2617,87,3.551,68,8.9999,-0.3435,-11.3177,-0.0076,0.0335,-0.0459,51
3.555,68,7.8977,0.5094,-12.4578,0.0096,0.1057,0.3011,87,3.603,69,8.9595,-0.3245,-11.2189,0.0084,0.0349,-0.0894,51
3.607,69,8.0691,1.276,-15.5347,0.5413,0.2826,0.823,87,3.655,70,8.9353,-0.2719,-11.2033,-0.0031,0.0093,-0.1298,51
3.658,70,8.4711,4.4059,-17.0282,-0.1399,0.2629,0.9163,87,3.706,71,8.9467,-0.1319,-11.2396,-0.0138,0.0027,-0.1358,51
3.917,75,8.8762,0.143,-13.4221,0.0389,0.113,0.4134,87,3.758,72,8.9502,-0.0574,-11.1596,-0.0216,0.0151,-0.1232,51
3.969,76,9.0317,-0.1532,-13.0627,0.0208,0.0828,0.3192,87,3.81,73,8.9583,-0.0308,-11.1536,-0.0191,0.0044,-0.0841,51
4.021,77,9.1365,-0.231,-12.8369,0.0441,0.0476,0.2391,87,3.862,74,8.9443,-0.0192,-11.1382,-0.0107,0.0129,-0.0636,51
4.073,78,9.1813,-0.339,-12.7103,0.0313,0.0401,0.1942,87,3.913,75,8.9553,0.0125,-11.1317,-0.0182,0.0105,-0.0467,51
4.124,79,9.2385,-0.4691,-12.5867,0.0363,0.0297,0.1646,87,3.965,76,8.9558,0.0336,-11.1099,-0.0137,0.0149,-0.0286,51
4.176,80,9.286,-0.5747,-12.5089,0.0334,0.0212,0.1383,87,4.017,77,8.9614,0.0569,-11.0835,-0.0165,0.0119,-0.0149,51
4.228,81,9.2899,-0.633,-12.4321,0.0215,0.0157,0.1113,87,4.069,78,8.9514,0.0531,-11.08,-0.0086,0.0096,-0.0015,51
4.28,82,9.3304,-0.6779,-12.415,0.017,0.0034,0.0821,87,4.121,79,8.9554,0.0384,-11.063,-0.0041,0.0051,0.0,51
4.332,83,9.3491,-0.7116,-12.3794,0.0111,0.0014,0.0655,87,4.172,80,8.9597,0.0288,-11.0645,-0.0023,0.003,0.0021,51
4.383,84,9.3491,-0.7402,-12.352,0.0098,-0.0025,0.0551,87,4.224,81,8.9597,0.0445,-11.0581,-0.0003,0.0081,0.0089,51
4.435,85,9.335,-0.7611,-12.3502,0.0076,-0.0008,0.0511,87,4.276,82,8.9603,0.0276,-11.0457,-0.0015,0.0098,0.0117,51
4.487,86,9.3332,-0.8015,-12.3332,0.0054,0.0004,0.0484,87,4.327,83,8.9644,0.0143,-11.0398,-0.0037,0.0141,0.0092,51
4.539,87,9.317,-0.832,-12.3386,0.0027,-0.0008,0.0442,87,4.379,84,8.9634,0.0084,-11.022,-0.0082,0.0159,0.0048,51
4.591,88,9.3086,-0.881,-12.3122,-0.0006,-0.0021,0.0379,87,4.431,85,8.9647,0.0077,-11.0228,-0.0161,0.0214,0.0015,51
4.642,89,9.3053,-0.89,-12.3102,0.001,-0.0043,0.0294,87,4.483,86,8.976,0.0316,-10.9941,-0.024,0.0301,0.012,51
4.694,90,9.3198,-0.8389,-12.309,0.0044,-0.0045,0.0256,87,4.535,87,8.9774,0.0188,-10.9793,-0.0344,0.0356,0.0459,51
4.746,91,9.3257,-0.8559,-12.327,0.0151,0.0008,0.0267,87,4.586,88,8.971,-0.0285,-10.9484,-0.0331,0.0141,0.0862,51
4.798,92,9.3066,-0.8851,-12.3216,0.019,0.0119,0.0339,87,4.638,89,8.9815,-0.0419,-10.9778,-0.046,0.0114,0.0713,51
4.85,93,9.3261,-0.9115,-12.3049,-0.0151,0.033,0.0339,87,4.69,90,8.9789,-0.0539,-10.926,-0.0379,-0.0024,0.0223,51
4.901,94,9.3903,-0.9228,-12.3101,-0.0436,0.0459,0.0192,87,4.742,91,8.9895,-0.0333,-10.9841,-0.0165,-0.0281,0.0144,51
4.953,95,9.4068,-0.9209,-12.3211,-0.0661,0.0753,0.0218,87,4.793,92,8.9613,0.0186,-10.9823,-0.0132,-0.0211,0.0702,51
5.005,96,9.4391,-1.0513,-12.2721,-0.0839,0.0923,0.0042,87,4.845,93,9.3557,-0.1616,-11.1971,-0.0964,0.0161,0.1401,51
5.057,97,9.5153,-1.1315,-12.1616,-0.1601,-0.0074,-0.1747,87,4.897,94,9.5364,0.6751,-11.1942,0.0117,0.023,0.6193,51
5.108,98,9.3839,-0.4856,-12.8065,-0.0367,-0.2321,-0.5479,87,4.949,95,7.8159,-0.3061,-11.339,-0.0111,-0.0631,1.0128,51
5.16,99,8.3106,1.4326,-14.4764,0.6498,-0.805,-1.0739,87,5.001,96,8.4048,-0.5755,-10.4958,0.2766,-0.1619,1.2038,51
5.212,100,5.3776,1.8252,-10.9543,-0.1154,-0.9998,-1.4568,87,5.052,97,8.5492,-1.8663,-10.7477,0.3497,-0.3062,0.463,51
5.264,101,9.1906,1.3579,-8.3748,0.5201,-0.6526,-1.0237,87,5.104,98,11.3569,-1.0081,-11.9916,0.6922,-0.1322,-0.2931,51
5.315,102,8.5779,4.2377,-9.8484,0.4251,0.0071,-0.1366,87,5.156,99,10.5133,-6.0325,-10.7952,0.8329,0.0008,-0.3611,51
5.367,103,9.1398,-0.5911,-10.4451,-0.365,0.6835,0.5781,87,5.208,100,12.7903,-4.8523,-10.2564,-0.0692,0.5262,0.4168,51
5.419,104,7.2201,4.0347,-15.6282,-0.9416,0.6127,0.6887,87,5.259,101,7.6149,-1.2392,-9.0241,-0.7276,0.8779,0.9846,51
5.471,105,5.764,2.1866,-13.5289,-0.8218,0.3125,1.0474,87,5.311,102,5.0114,-0.1047,-9.9906,-0.8854,0.4932,0.0496,51
5.523,106,4.7477,1.9006,-12.0178,-0.9269,0.1976,1.4422,87,5.363,103,3.9335,-0.0361,-8.1219,0.0285,0.4551,-0.6269,51
5.574,107,4.5689,3.0358,-11.0166,-0.426,0.07,1.3821,87,5.415,104,3.6868,0.0649,-7.1057,0.6954,0.7094,-0.5297,51
5.626,108,5.0674,5.2771,-12.2586,0.3657,-0.2271,0.3347,87,5.467,105,7.808,-1.8792,-11.9519,-0.0288,0.9536,-0.4202,51
5.678,109,4.0598,-1.3856,-16.0267,-0.055,-0.288,-0.2681,87,5.518,106,9.7673,0.7574,-11.1638,0.4191,0.8026,0.3345,51
5.73,110,-2.3611,-2.7681,-19.7019,-0.4163,-0.5449,-0.212,87,5.57,107,7.1518,-0.734,-11.9424,0.1847,0.821,0.2203,51
5.782,111,3.5425,0.4233,-16.7161,-0.6603,0.2807,0.5225,87,5.622,108,6.4534,4.7565,-11.2371,0.4167,0.7546,-0.5106,51
5.833,112,4.5769,5.6609,-20.205,-0.1656,0.7681,0.3602,87,5.674,109,5.2555,2.719,-12.36,-0.3652,0.5111,-0.9986,51
5.885,113,6.9624,5.0182,-20.1871,0.358,-0.1128,-0.4111,87,5.725,110,3.8633,-0.5235,-13.2825,-0.1449,0.4782,-1.397,51
5.937,114,4.1437,2.52,-17.1913,0.9378,-0.7557,-0.9741,87,5.777,111,-1.0054,-5.6789,-11.0621,0.1654,-0.2135,-1.691,51
5.989,115,4.3972,0.4462,-15.4157,1.361,-1.219,-1.0562,87,5.829,112,3.6049,-3.753,-7.2748,0.318,0.0786,-0.5538,51
6.041,116,8.0747,2.2442,-12.6048,0.3181,-1.2048,-0.0931,87,5.881,113,3.6137,-3.0213,-7.7437,0.2872,0.2305,-0.2449,51
6.092,117,7.1665,-3.5992,-15.0043,0.0245,-0.6688,-0.1773,87,5.933,114,5.5292,-2.6733,-8.0912,0.5755,-0.0146,-0.7951,51
6.144,118,10.4961,-2.8073,-13.8055,-0.6573,-0.3597,0.3939,87,5.984,115,9.1527,-1.3148,-9.39,0.368,-0.0712,-1.2517,51
6.196,119,11.9222,-0.797,-13.8875,-0.2727,-0.0565,0.4712,87,6.036,116,9.0927,-6.2564,-14.7895,-0.4085,-0.2478,-1.2375,51
6.248,120,8.9703,-2.0172,-12.168,-0.8742,0.4249,0.9622,87,6.088,117,10.2669,-6.6182,-13.3665,-0.4527,-0.8477,-0.2228,51
6.3,121,7.1978,-6.6837,-10.3935,-1.2294,0.6663,1.38,87,6.14,118,5.7643,-2.815,-12.4566,-1.0073,-0.7613,0.5011,51
6.351,122,7.8287,-5.4532,-10.6409,-1.0617,0.9305,1.6849,87,6.191,119,8.9998,-1.1918,-12.0892,-1.1895,-1.2224,0.662,51
6.404,123,7.8263,-2.576,-11.4569,-0.6673,0.7318,1.9075,87,6.243,120,8.8203,-0.721,-8.1525,-0.2731,-1.16,1.1635,51
6.455,124,5.3662,2.5511,-11.6377,-0.3717,0.1023,1.4445,87,6.295,121,11.5547,-5.823,-10.1557,-0.8764,-1.5134,0.8118,51
6.507,125,9.1822,-3.3751,-16.4548,0.1635,-0.5987,1.394,87,6.347,122,13.5504,-3.1494,-7.3929,-0.3232,-1.0882,0.6247,51
6.559,126,11.9669,1.6091,-16.8272,0.4051,-1.1104,1.1516,87,6.399,123,13.0349,-1.9168,-9.3044,-0.6594,-0.635,1.1153,51
6.611,127,13.9997,1.0117,-16.6119,0.2467,-0.3104,1.3727,87,6.451,124,10.8966,-3.2724,-10.4795,0.0749,-0.5273,0.5197,51
6.663,128,13.4387,0.3343,-14.0695,0.8566,0.4518,1.5638,87,6.502,125,7.5783,1.5628,-11.6076,0.7294,-0.5868,-0.2921,51
6.714,129,11.8566,5.5959,-15.5147,1.3017,0.0389,0.5727,87,6.554,126,6.4978,1.9591,-11.7422,1.1091,-0.1835,-0.8846,51
6.766,130,11.6727,3.6737,-16.9335,0.7335,-0.645,-0.256,87,6.606,127,4.6336,1.5707,-11.0679,0.4093,0.0419,-1.2977,51
6.818,131,10.5179,3.1118,-15.7803,0.4302,-1.1441,-0.8609,87,6.657,128,6.4415,-4.1504,-16.0591,0.6355,0.7155,-1.6168,51
6.87,132,7.9929,-0.0448,-12.9224,0.8787,-1.5084,-1.2632,87,6.709,129,4.4853,-7.1477,-19.1675,0.6872,0.2844,-1.0694,51
6.921,133,11.0993,-4.7292,-8.5284,-0.0339,-0.5869,-0.2442,87,6.761,130,5.8037,-6.9099,-17.322,0.6333,-0.0775,-1.0111,51
6.973,134,13.3665,-5.2126,-13.5028,0.651,-0.9904,-0.6997,87,6.813,131,9.3531,-3.4897,-16.9712,0.5677,0.399,-1.4094,51
7.025,135,10.5217,-6.2507,-14.6233,-0.2001,-0.2341,0.1653,87,6.865,132,7.4812,-7.8437,-20.3675,0.6703,0.8676,-0.8774,51
7.077,136,7.9065,-5.0557,-12.1779,0.3485,0.3637,0.5014,87,6.916,133,9.1058,-3.9437,-18.1399,-0.1878,0.3226,0.04,51
7.129,137,7.6575,-6.4488,-10.3871,-0.3686,0.9415,0.9498,87,6.968,134,4.3824,0.0185,-15.1555,-0.8141,0.0084,0.7081,51
7.18,138,7.6605,-6.2936,-10.8038,-0.4871,1.2847,1.3696,87,7.02,135,3.9585,-1.2537,-16.5621,-1.0822,-0.6606,0.3955,51
7.232,139,7.3924,-3.6137,-11.2892,-0.3118,1.4975,1.6773,87,7.072,136,4.5352,0.0027,-12.6225,-0.1152,-0.549,0.3684,51
7.284,140,5.6017,0.7648,-13.236,-0.0613,1.4006,1.8159,87,7.124,137,8.4273,-0.5884,-12.564,-0.7597,-0.6766,0.7533,51
7.336,141,4.1326,5.9101,-17.6651,0.6248,0.8452,0.7516,87,7.175,138,11.2679,-0.6702,-11.5619,-0.2833,-0.4967,0.2877,51
7.387,142,8.2819,6.189,-13.9591,0.4006,0.9573,-0.1255,87,7.227,139,11.352,1.0049,-11.7499,0.1627,-0.408,0.8507,51
7.439,143,11.2381,5.69,-15.3702,0.3073,1.2888,0.5367,87,7.279,140,9.1168,-0.5765,-10.7487,0.7227,-0.2807,0.5523,51
7.491,144,10.0791,0.8543,-15.0085,0.7676,1.619,1.0694,87,7.331,141,9.9773,4.8714,-10.925,0.4051,-0.0092,-0.2683,51
7.543,145,7.4435,0.9613,-18.684,0.5891,0.5946,0.1065,87,7.382,142,9.192,4.8134,-11.7152,0.0401,0.1943,-0.8673,51
7.595,146,8.5172,1.1637,-18.0713,1.1065,-0.2394,-0.5963,87,7.434,143,7.8569,1.3903,-13.4614,0.3443,0.1865,-1.3044,51
7.646,147,5.1102,-0.8386,-15.6099,1.237,-0.8481,-1.1051,87,7.486,144,6.3878,-3.7388,-12.0003,-0.2667,-0.1572,-1.5317,51
7.699,148,5.2758,-1.5395,-13.5689,0.9756,-1.134,-0.3946,87,7.538,145,6.2865,2.5634,-11.3714,0.1421,-0.4238,-0.7422,51
7.751,149,8.3052,1.9858,-13.2586,0.0368,-0.7648,0.3897,87,7.59,146,6.4024,2.4159,-11.961,0.1036,-0.1807,-0.7076,51
7.802,150,11.3272,-3.7866,-13.4848,0.7034,-0.772,-0.2167,87,7.641,147,6.2446,1.3513,-11.9596,0.3288,-0.7986,-0.693,51
7.854,151,13.5329,-3.3174,-13.2557,-0.1619,-0.6094,-0.0139,87,7.693,148,9.6749,-4.3106,-14.1055,0.6966,-0.455,-1.1772,51
7.906,152,13.7072,-7.0745,-9.9841,-0.1425,-0.2384,0.5029,87,7.745,149,9.9908,-7.8003,-14.4192,1.1642,-0.6073,-0.1788,51
7.958,153,9.553,-7.1617,-7.5705,-0.7792,0.5044,1.0448,87,7.797,150,7.6648,-3.432,-13.0078,0.1726,-0.4961,0.5498,51
8.01,154,10.2188,-7.4764,-9.898,0.0572,0.6632,1.4403,87,7.848,151,5.6569,-1.5435,-13.5037,-0.5511,-1.0032,0.5423,51
8.061,155,9.2392,-4.7679,-11.7611,0.0946,0.9645,1.7289,87,7.9,152,4.7237,-0.5415,-13.0282,0.2416,-0.655,0.6971,51
8.113,156,6.3386,-0.2399,-13.7233,0.3813,0.7071,1.9031,87,7.952,153,3.9903,4.8966,-12.0827,0.851,-0.1272,1.0434,51
8.165,157,5.2352,5.1768,-15.3045,0.9549,0.159,1.0093,87,8.004,154,5.9898,5.2932,-16.7997,0.5429,0.5429,0.6724,51
8.217,158,9.0866,-1.4588,-15.7018,0.3596,-0.5573,1.0765,87,8.056,155,9.4889,4.7657,-10.8928,0.7884,0.4478,0.7056,51
8.268,159,1.3332,4.2872,-19.184,0.8383,-0.742,0.9189,87,8.107,156,9.1816,3.0297,-11.2567,0.2427,0.5031,0.9429,51
8.32,160,3.541,3.6381,-18.1105,0.154,0.1368,1.3389,87,8.159,157,6.7378,1.0172,-11.2336,0.6685,0.3062,0.2417,51
8.372,161,7.8501,1.6505,-16.5037,0.757,0.7782,1.6549,87,8.211,158,7.7543,5.5247,-13.788,0.8733,-0.1247,-0.495,51
8.424,162,4.9981,2.2635,-18.8611,0.0442,0.034,0.5338,87,8.263,159,8.2455,6.1259,-15.0805,0.2631,-0.4798,-1.0327,51
8.476,163,6.2795,1.8407,-17.9097,0.6819,-0.6486,-0.2844,87,8.315,160,6.2641,4.4332,-15.3766,-0.4766,-0.7942,-1.4251,51
8.527,164,3.7492,2.5634,-14.9407,0.5844,-1.1468,-0.8816,87,8.366,161,-0.9008,-2.0612,-8.6148,-1.0249,-0.7108,-1.7115,51
8.579,165,4.1022,0.5425,-13.3985,-0.2487,-1.4444,-0.3817,87,8.418,162,4.4599,-5.4136,-3.6797,-0.086,-0.9037,-0.5688,51
8.631,166,8.2597,-4.429,-8.2032,-0.8567,-0.6943,0.3991,87,8.47,163,6.5704,-3.7931,-7.2286,-0.0669,-0.6069,-0.3765,51
8.683,167,11.294,-5.6588,-13.3387,0.0513,-1.1801,-0.2617,87,8.522,164,8.4444,-3.2943,-7.4629,0.0925,-0.8469,-0.5609,51
8.735,168,13.5086,-3.9493,-12.6353,-0.4568,-0.6956,-0.0176,87,8.573,165,9.8742,-2.1282,-8.4882,-0.0469,-0.7385,-1.0807,51
8.786,169,12.0713,-5.0765,-12.117,0.2527,-0.373,0.0308,87,8.625,166,5.0402,-6.85,-9.8794,-0.7113,0.146,-1.223,51
8.838,170,11.0399,-5.1661,-10.136,-0.2795,0.4061,0.7002,87,8.677,167,4.6033,-5.7219,-9.4062,-1.1962,-0.1978,-0.2122,51
8.89,171,10.3228,-7.3978,-10.5339,-0.8762,0.8042,1.1888,87,8.729,168,3.2402,-1.8752,-9.0529,-1.5501,-0.3619,0.4666,51
8.942,172,9.8124,-5.7806,-11.3514,-0.5343,0.9904,1.5454,87,8.781,169,3.7981,-0.2797,-7.9034,-1.1441,-0.6703,0.8892,51
8.994,173,7.7075,0.1919,-13.6265,-0.0041,0.9265,1.8056,87,8.832,170,4.4979,2.075,-7.2184,-0.1603,-0.566,1.3293,51
9.045,174,6.4729,4.9002,-14.9973,0.3747,0.2892,1.2764,87,8.884,171,8.4001,6.0509,-12.0455,-0.1096,-0.6029,0.865,51
9.097,175,9.9803,-0.3575,-8.3616,0.9265,-0.3895,0.3392,87,8.936,172,11.248,4.2779,-9.1412,0.3016,-0.6506,0.9115,51
9.149,176,1.9599,-1.3738,-14.1076,0.853,0.3941,-0.4265,87,8.988,173,11.3025,0.5917,-10.1538,-0.0443,-0.6725,1.2145,51
9.201,177,6.6962,-1.7661,-13.7639,0.1752,0.8636,0.3589,87,9.04,174,7.9403,-0.1072,-12.202,0.5613,0.0536,0.6752,51
9.253,178,10.1529,-0.3962,-14.4814,0.577,0.9542,0.8542,87,9.091,175,8.8158,4.0303,-12.7583,1.0844,0.3544,0.0148,51
9.305,179,9.7557,-1.5464,-13.3995,0.5492,0.023,-0.0506,87,9.143,176,5.7243,5.8292,-11.3493,0.626,0.6845,-0.6449,51
9.356,180,8.7891,-2.2762,-9.9714,0.38,-0.5687,-0.7109,87,9.195,177,1.4459,8.1082,-11.1123,0.3187,0.317,-1.1421,51
9.408,181,11.5007,3.6907,-12.9445,0.2647,-0.8706,0.1589,87,9.247,178,0.573,9.582,-11.1798,0.5923,0.5772,-0.5158,51
9.46,182,4.8804,2.1062,-13.5833,0.7948,0.043,-0.2989,87,9.299,179,3.0054,6.0185,-9.6638,0.3626,-0.2455,-0.3887,51
9.512,183,6.0039,1.7183,-12.4363,0.3638,0.3167,-0.5244,87,9.351,180,5.0864,4.5024,-11.336,0.3467,-0.583,-0.5681,51
9.564,184,7.3555,1.8868,-12.319,0.5068,0.1367,-0.3008,87,9.403,181,5.7691,3.5654,-11.2765,0.3786,-0.3884,-0.6272,51
9.615,185,7.4702,0.108,-12.3953,0.0994,0.0083,-0.3872,87,9.454,182,6.8499,2.6199,-11.2798,0.2426,-0.3865,-0.5922,51
9.667,186,7.592,0.1109,-11.9081,-0.1757,-0.1533,-0.4172,87,9.506,183,7.4845,1.9529,-11.526,0.1831,-0.3335,-0.5358,51
