right_leg_timestamp,right_leg_index,right_leg_accel_x,right_leg_accel_y,right_leg_accel_z,right_leg_gyro_x,right_leg_gyro_y,right_leg_gyro_z,right_leg_battery_percentage,left_leg_timestamp,left_leg_index,left_leg_accel_x,left_leg_accel_y,left_leg_accel_z,left_leg_gyro_x,left_leg_gyro_y,left_leg_gyro_z,left_leg_battery_percentage
0.553,10,7.1313,0.3388,-13.9291,-0.1069,-1.1553,0.3851,77,0.003,0,8.7451,0.192,-13.2402,-1.065,-0.3897,0.8072,51
0.605,11,8.4856,0.0545,-16.4042,-0.1585,-0.8008,0.0953,77,0.055,1,9.1604,-0.5318,-13.374,-0.9001,-0.6636,1.1268,51
0.656,12,11.4589,2.1139,-16.7957,0.0639,0.0467,-0.4726,77,0.107,2,8.4481,-0.5978,-12.6603,-0.9677,-0.9249,1.5027,51
0.708,13,7.7676,-0.1265,-18.5266,0.5792,0.5029,-0.5983,77,0.158,3,6.9138,0.1875,-9.1361,-0.8639,-1.0511,1.6014,51
0.76,14,6.6201,1.8302,-13.4641,0.746,0.3039,-0.5231,77,0.21,4,6.0699,0.7308,-8.5041,-0.8306,-1.4224,1.1904,51
0.812,15,6.4179,0.5603,-10.7403,0.4371,0.8596,-0.5125,77,0.262,5,9.1434,-2.362,-10.7205,-0.2744,-0.5555,0.3004,51
0.863,16,5.6945,0.8203,-11.6339,0.5711,1.3057,-0.6084,77,0.314,6,10.8042,0.1259,-11.5568,0.3287,0.2317,-0.4521,51
0.915,17,2.5925,-1.5586,-15.1488,0.959,1.4813,-0.6733,77,0.365,7,7.4516,-4.0318,-16.4159,0.9146,0.8541,-0.4833,51
0.967,18,6.2157,-5.0418,-8.4722,1.3765,0.5817,-0.9898,77,0.417,8,5.1758,-3.0578,-17.4077,1.3422,-0.0434,-0.0424,51
1.019,19,1.5311,-5.7195,-14.1883,0.8283,-0.1705,-0.5712,77,0.469,9,5.4432,-0.8308,-12.3773,1.2979,-0.1581,0.1417,51
1.071,20,5.1443,-3.7264,-16.068,-0.0707,0.4992,-0.5107,77,0.521,10,3.0303,0.551,-10.8506,0.9599,0.0104,0.037,51
1.122,21,8.5625,-3.3603,-15.1249,-0.7221,1.0427,-0.0142,77,0.573,11,2.5369,-0.0645,-9.6101,1.0685,-0.472,-0.17,51
1.174,22,5.3186,-3.3243,-17.8407,-0.1525,0.0876,0.2309,77,0.624,12,6.752,5.2451,-4.9036,1.2658,-1.011,-0.6858,51
1.226,23,3.4936,-2.7967,-14.6747,-0.6172,-0.6095,0.7621,77,0.676,13,8.4404,0.6477,-7.8619,1.2852,-0.4222,-0.2808,51
1.278,24,1.9318,-1.2591,-11.0759,-0.1306,-0.7395,0.699,77,0.728,14,11.2775,-0.1534,-8.9459,0.9821,0.2747,-0.8203,51
1.33,25,3.0899,-1.1519,-10.1169,-0.2222,-0.3604,0.4157,77,0.78,15,8.0132,0.403,-11.1254,0.0397,0.8854,0.0778,51
1.381,26,3.3071,-0.9714,-9.4591,-0.0721,-0.1346,0.3566,77,0.831,16,9.4115,-1.3307,-9.2472,-0.4081,-0.0206,0.2621,51
1.433,27,7.6794,0.0591,-14.9085,-0.212,-0.2913,0.9308,77,0.883,17,7.0657,1.6508,-9.9359,0.367,0.67,0.1912,51
1.485,28,5.5399,-2.7312,-17.7172,0.1565,-0.5217,0.7621,77,0.935,18,4.1694,2.8582,-11.1611,-0.4092,1.1739,-0.2256,51
1.537,29,8.2868,-5.6183,-13.7399,-0.299,0.2976,0.3344,77,0.987,19,2.4738,0.2028,-14.152,-0.9758,1.5417,-0.836,51
1.589,30,8.8364,-2.4244,-12.2243,0.4583,-0.2451,-0.2274,77,1.039,20,1.0898,-0.5708,-16.5376,-0.9885,1.8057,-0.4,51
1.64,31,7.959,-1.7091,-11.3412,-0.1807,-0.7397,-0.4335,77,1.09,21,0.6106,0.177,-19.0906,-0.3866,2.0028,0.3884,51
1.692,32,3.801,-3.3001,-8.437,-0.1634,0.1303,-0.7245,77,1.142,22,2.7461,-1.8445,-18.4126,-0.0769,0.795,-0.3879,51
1.744,33,0.3054,-3.7723,-7.8051,-0.3317,0.7735,-0.7921,77,1.194,23,6.1204,0.8684,-19.722,0.4869,1.2652,-0.9545,51
1.796,34,1.3436,-5.3639,-13.7014,-0.4361,1.2429,-0.4984,77,1.246,24,2.9325,-1.5439,-19.9966,1.0301,1.3597,-0.5712,51
1.848,35,-0.6033,-4.4802,-17.4097,-0.6033,0.8488,-0.0426,77,1.298,25,4.7654,0.8229,-20.2875,1.4159,0.3256,0.1292,51
1.9,36,-5.7645,-4.2728,-10.1223,0.1953,1.2579,0.3087,77,1.349,26,3.2932,4.8365,-14.1735,1.5732,0.9226,0.7746,51
1.951,37,1.0586,2.2335,-11.8178,-0.1397,0.6964,0.3738,77,1.401,27,-1.9764,5.4337,-12.5843,1.2332,0.4565,-0.106,51
2.003,38,6.0384,4.2551,-10.5602,-0.137,1.1866,-0.2358,77,1.453,28,0.9637,4.0018,-8.3846,1.5551,-0.3336,-0.7488,51
2.055,39,1.5458,1.1988,-15.7122,-0.5585,1.3816,0.3556,77,1.505,29,5.4431,-2.3761,-6.8329,1.3644,-0.492,-0.6459,51
2.107,40,5.4261,5.273,-17.3037,0.1306,0.3349,0.4555,77,1.556,30,1.3262,-7.031,-12.0666,1.3603,0.3259,0.1901,51
2.159,41,-0.4829,0.4245,-11.5369,-0.0978,-0.116,0.4804,77,1.608,31,6.0852,-5.8008,-13.2968,1.1882,-0.3889,-0.2845,51
2.21,42,2.0503,-0.3858,-8.7276,-0.0945,0.3195,0.3485,77,1.66,32,6.9001,-4.1004,-15.9622,0.5723,0.4011,0.1392,51
2.262,43,2.44,1.0665,-8.4656,-0.6302,0.6794,0.5218,77,1.712,33,9.6622,-0.0497,-14.6722,0.6741,-0.374,0.1822,51
2.314,44,1.6885,2.2159,-9.3171,-1.1352,0.1315,0.6449,77,1.764,34,6.6101,2.0118,-13.98,-0.1851,0.412,0.2188,51
2.366,45,6.4981,6.9692,-14.8049,-0.1911,-0.2607,1.0044,77,1.815,35,4.0234,1.1022,-17.4683,-0.576,0.9857,-0.5062,51
2.418,46,10.0083,8.5176,-18.8102,-0.6389,-0.8637,0.6413,77,1.867,36,1.5713,-1.0467,-20.0102,-0.6609,1.2003,-1.0409,51
2.469,47,6.4184,2.724,-18.3173,-0.288,-0.4143,0.055,77,1.919,37,1.1655,-3.1046,-19.0962,-0.7475,0.4246,-0.8035,51
2.521,48,9.9502,4.9605,-17.6574,-0.6148,-0.9758,0.087,77,1.971,38,0.1952,-7.5627,-21.9185,-1.2226,0.9169,-0.8411,51
2.573,49,1.9379,2.7652,-10.3031,-0.2215,-0.0338,-0.1971,77,2.022,39,-0.5539,-4.6573,-14.8271,-1.235,1.3532,-0.7856,51
2.625,50,1.3448,0.5031,-12.4221,-0.6914,0.6537,-0.2303,77,2.074,40,1.5831,-5.7237,-18.8027,-0.3802,0.3208,-1.2448,51
2.677,51,3.4942,0.9069,-15.8608,-1.0431,1.1554,0.0597,77,2.126,41,2.4027,-3.5458,-19.2117,-0.0743,0.9191,-1.5799,51
2.728,52,1.7568,-0.5126,-17.3622,-0.1268,1.2363,-0.0609,77,2.178,42,1.2042,-4.5579,-17.8811,0.6204,0.5809,-0.7537,51
2.78,53,1.4285,-0.8744,-15.9625,0.5839,0.2289,0.0248,77,2.23,43,3.4337,-3.949,-18.7451,0.7288,-0.2428,0.1017,51
2.832,54,6.3083,4.7137,-9.0706,1.1027,-0.1351,-0.6275,77,2.281,44,1.8072,-0.4447,-15.3729,1.035,0.3665,0.7236,51
2.884,55,9.8698,8.7922,-4.0361,1.4258,-0.7704,-0.1445,77,2.333,45,0.7769,1.7776,-13.832,0.8672,-0.249,0.6735,51
2.936,56,12.4692,3.5827,-4.3946,0.5203,0.1161,0.2487,77,2.385,46,1.3799,3.4251,-9.0465,1.1498,-0.6172,0.2587,51
2.987,57,7.8066,1.3688,-7.2795,0.0719,-0.0894,-0.3742,77,2.437,47,3.3235,3.1625,-14.5837,0.3227,0.2153,-0.4826,51
3.039,58,6.9375,-0.1197,-9.8162,0.0741,-0.7387,-0.1916,77,2.488,48,7.543,0.2097,-17.2756,0.5702,0.4482,0.3282,51
3.091,59,6.7148,-0.5794,-4.5802,-0.6212,-1.2125,0.1471,77,2.54,49,8.1838,-3.5732,-17.5694,0.1948,-0.3061,-0.3504,51
3.143,60,6.7604,-0.5162,-5.4275,-0.8346,-1.2129,0.2073,77,2.592,50,11.0902,-1.83,-16.8545,-0.0834,0.4616,-0.9222,51
3.194,61,5.5928,-0.159,-5.6632,0.0674,-0.8801,0.2825,77,2.644,51,8.7537,-1.8979,-18.7788,-0.738,1.0218,-0.417,51
3.246,62,4.5396,-0.685,-6.1688,-0.1711,-0.88,0.4704,77,2.695,52,8.2463,-4.7391,-15.1156,-0.186,0.079,-0.3134,51
3.298,63,8.579,-5.737,-1.9182,-0.4622,-1.3156,0.8817,77,2.747,53,5.9104,0.7296,-13.5854,0.4806,0.6141,0.293,51
3.35,64,0.9371,-9.4242,-9.4049,0.3222,-0.2819,0.3074,77,2.799,54,3.1259,1.7983,-14.0871,-0.3263,1.1331,-0.2634,51
3.402,65,5.9497,-3.2713,-10.5522,-0.4401,-0.2795,0.6811,77,2.851,55,1.6417,-0.5946,-15.8482,-0.9152,1.512,-0.8605,51
3.454,66,5.9608,-1.5945,-15.7064,0.1383,0.4743,0.0876,77,2.903,56,0.6556,-2.9084,-16.6845,-1.345,1.3286,-0.2568,51
3.505,67,9.6162,0.9075,-12.9064,-0.5743,-0.3272,-0.1991,77,2.954,57,5.5958,-2.8165,-20.1583,-1.3208,1.3166,0.1766,51
3.557,68,5.2482,-2.1709,-10.3647,-1.0852,0.4396,0.1006,77,3.006,58,1.7341,-5.0755,-22.6383,-0.9149,0.2951,-0.3886,51
3.609,69,4.3717,-2.496,-13.8653,-0.8786,0.9992,0.7511,77,3.058,59,3.7582,-0.963,-18.7445,-0.8621,0.9004,-0.6244,51
3.661,70,3.271,2.5119,-17.3097,-1.0257,1.3937,0.7491,77,3.11,60,5.7585,-5.9997,-21.6618,-1.3028,1.3401,-0.8253,51
3.713,71,1.5355,1.6031,-18.4453,-0.072,1.197,0.226,77,3.162,61,3.2539,-8.7614,-23.7909,-0.7454,1.5217,0.0766,51
3.765,72,1.757,3.6483,-15.2588,0.5999,0.2489,-0.2216,77,3.213,62,5.937,-1.1023,-23.0828,0.1307,0.4438,0.5911,51
3.817,73,6.5481,8.0146,-8.5525,1.1143,0.5221,-0.4896,77,3.265,63,4.4217,4.4489,-20.168,-0.3551,0.9411,1.1118,51
3.868,74,9.6366,9.0757,-12.5755,0.8664,-0.2923,0.141,77,3.317,64,2.5703,5.369,-13.607,-0.158,0.5235,0.1829,51
3.92,75,11.2685,1.8415,-17.1831,0.9729,0.4644,0.4351,77,3.369,65,6.4245,5.8599,-10.82,-0.4782,0.94,-0.5379,51
3.972,76,4.9249,4.8591,-20.5458,0.0348,-0.275,0.0021,77,3.421,66,9.8062,9.5689,-14.0933,-0.0123,1.0331,-0.9381,51
4.023,77,6.8743,3.4983,-16.1958,-0.4129,-0.8741,-0.2272,77,3.472,67,3.3858,6.241,-18.2671,0.2565,0.4295,-0.413,51
4.075,78,5.9145,2.7438,-12.1065,-0.2601,-1.3066,-0.1989,77,3.524,68,7.5884,5.1661,-16.6113,0.4793,-0.3061,-0.8962,51
4.127,79,6.4008,-0.231,-10.4048,-0.72,-1.0155,-0.0625,77,3.576,69,6.1413,4.9269,-17.0459,-0.2284,0.4616,-0.6424,51
4.179,80,6.0964,-2.6429,-9.7775,-0.4901,-0.8124,0.13,77,3.628,70,9.251,2.9825,-15.6043,0.3858,-0.3299,-0.176,51
4.231,81,3.6595,-0.2103,-12.2887,-0.3279,-0.9284,-0.0515,77,3.679,71,6.1659,5.0803,-14.3638,0.6523,0.4442,0.1566,51
4.282,82,-0.9629,-1.9434,-16.9737,0.2712,-1.2138,-0.3151,77,3.731,72,1.5524,3.9985,-17.9212,-0.201,1.0091,-0.5571,51
4.334,83,4.563,0.1384,-18.6499,-0.4491,-0.2076,0.4266,77,3.783,73,-0.2694,0.1154,-17.9305,-0.0797,1.3024,-1.078,51
4.386,84,4.9273,-1.2402,-17.1058,0.2212,0.4672,-0.2875,77,3.835,74,-1.8911,-2.1984,-16.7042,-0.4538,0.3112,-1.0298,51
4.438,85,3.1458,-2.3669,-15.6872,0.0699,1.0193,-0.2111,77,3.887,75,3.7371,3.6877,-20.1727,-1.0058,-0.0934,-0.4053,51
4.49,86,6.3416,-1.0808,-12.7358,-0.2663,1.0818,-0.1226,77,3.938,76,1.4363,-2.4499,-22.7041,-1.1569,0.6168,0.3845,51
4.541,87,3.0952,-2.1859,-13.1184,0.4822,1.4679,-0.2326,77,3.99,77,6.1656,-0.0826,-20.6421,-0.5015,0.3785,-0.0551,51
4.593,88,4.4117,-2.7543,-15.9579,0.2486,1.7497,0.3369,77,4.042,78,9.6172,2.5486,-19.38,-0.8034,-0.1347,-0.7117,51
4.645,89,1.4952,-0.1087,-17.644,-0.4687,1.9553,0.7264,77,4.094,79,7.2078,0.9993,-21.4526,-0.0346,0.5867,0.0328,51
4.697,90,0.3187,1.2301,-18.7278,-0.5691,1.0979,0.6187,77,4.146,80,7.4151,0.0727,-17.2529,0.5676,-0.2386,0.7034,51
4.749,91,5.4983,-4.3393,-11.0843,-0.7527,0.2007,0.8321,77,4.197,81,7.578,3.5122,-13.7114,0.6253,0.0605,1.1937,51
4.801,92,0.1773,-8.3888,-10.6585,-1.1404,0.3047,-0.0667,77,4.249,82,4.3524,6.0489,-11.6441,1.1139,0.5608,1.5267,51
4.853,93,5.3952,-11.3596,-13.4805,-1.1784,0.8115,0.6287,77,4.301,83,3.704,6.3335,-8.6399,0.7493,-0.0568,0.5816,51
4.904,94,1.4525,-2.9388,-17.8436,-0.6632,1.2706,0.4297,77,4.353,84,2.9216,2.1834,-8.9015,-0.0518,0.617,-0.2469,51
4.956,95,2.4378,-0.1237,-18.1658,0.0836,0.254,-0.3604,77,4.405,85,7.2496,-3.3548,-7.6315,-0.1542,0.9852,0.4926,51
5.008,96,0.3667,-2.1894,-11.8056,-0.5299,0.7912,-0.0187,77,4.456,86,10.4084,-2.6016,-10.9123,-0.0246,0.1092,0.089,51
5.06,97,1.9333,-2.3135,-11.2777,0.1854,0.0287,0.3717,77,4.508,87,10.6512,-0.3324,-11.5411,-0.3554,0.7436,-0.5081,51
5.112,98,3.5826,-2.9662,-10.6918,0.0948,-0.0579,0.3942,77,4.56,88,8.0127,-1.5111,-10.6948,-0.9132,0.0566,0.1567,51
5.163,99,3.7781,-1.3838,-9.8384,-0.4007,-0.58,0.7277,77,4.612,89,6.1723,0.1502,-10.1394,-0.1349,0.7263,-0.1926,51
5.215,100,8.0231,-5.4528,-12.835,-0.6298,-0.2355,0.195,77,4.664,90,3.9201,1.5669,-10.1395,-0.055,1.2151,-0.8086,51
5.267,101,7.5594,-2.9686,-16.8359,-0.3954,0.3809,0.4253,77,4.715,91,1.9849,-0.5882,-14.1965,-0.7172,1.5718,-1.2615,51
5.319,102,10.7829,-1.3456,-12.8725,-0.6659,-0.3853,0.2508,77,4.767,92,0.0108,-2.5499,-14.6689,-0.1314,1.1527,-1.1934,51
5.371,103,11.1392,-2.491,-11.8506,-0.6035,-0.4006,-0.0573,77,4.819,93,-0.9985,-4.3269,-13.34,-0.773,0.8479,-0.7717,51
5.422,104,7.4009,-1.2953,-9.5369,-1.1157,0.386,0.4508,77,4.871,94,4.3885,-4.4153,-17.7173,-0.9519,0.9659,-0.1171,51
5.474,105,6.0453,-2.5831,-11.4865,-0.1378,0.9601,0.1448,77,4.922,95,3.4425,-5.8398,-20.9121,-0.7212,0.0384,-0.7569,51
5.526,106,3.2502,-2.5715,-15.2635,0.576,1.379,0.2909,77,4.974,96,5.6508,-3.3724,-19.5573,-0.724,0.6666,-0.8096,51
5.578,107,1.6936,0.8788,-19.1448,0.5994,1.4155,0.6055,77,5.026,97,9.2415,-0.1898,-22.255,-0.8792,0.9922,-1.2623,51
5.63,108,0.1165,2.2519,-18.4012,0.8343,0.9632,0.3974,77,5.078,98,2.7973,-2.0044,-17.337,-0.4725,1.4091,-0.3321,51
5.681,109,-4.7899,2.7029,-21.4349,0.2698,1.2787,0.6738,77,5.13,99,3.2329,0.3666,-16.9026,0.3298,0.3616,0.438,51
5.733,110,-6.3229,1.7302,-19.4215,-0.2718,1.6116,0.0403,77,5.181,100,5.1228,1.9361,-13.788,0.3971,0.6111,1.0,51
5.785,111,0.651,6.4371,-19.1434,0.4782,0.5028,0.7072,77,5.233,101,3.732,2.9776,-11.6775,0.4492,-0.1943,1.0862,51
5.837,112,4.4679,-0.539,-18.8999,0.1192,1.0453,1.1883,77,5.285,102,-0.0375,7.4653,-5.915,1.0025,0.0548,0.579,51
5.889,113,-1.1292,0.6512,-15.4041,-0.5693,1.4407,0.9397,77,5.337,103,5.0899,10.7406,-1.7093,1.0344,-0.6268,0.4374,51
5.94,114,2.2285,1.5743,-13.0897,0.2047,0.3781,0.0249,77,5.388,104,6.8132,4.3907,-5.9912,0.7786,-0.7479,0.4152,51
5.992,115,0.5816,1.112,-9.4814,0.1928,0.8901,-0.6051,77,5.44,105,10.0898,2.9924,-8.0942,0.4386,-0.3964,-0.3638,51
6.044,116,0.398,1.4747,-12.6698,-0.1583,0.3851,-0.3892,77,5.492,106,9.2365,2.9828,-9.3841,0.0753,0.3956,-0.8897,51
6.096,117,1.6254,-1.4875,-14.8245,0.0478,-0.3923,-0.8364,77,5.544,107,6.1534,2.1847,-10.1853,-0.4719,-0.1171,-0.2278,51
6.148,118,-0.204,2.8791,-18.8244,-0.199,0.3894,-0.1251,77,5.596,108,9.6083,0.3662,-5.8637,0.0999,-0.7484,-0.0278,51
6.199,119,5.1169,-3.1357,-11.1548,-0.8205,0.1601,-0.7653,77,5.647,109,6.4705,2.1134,-6.751,-0.0457,0.1387,-0.0815,51
6.251,120,5.0843,-1.9643,-16.0612,-1.0875,0.7952,0.0502,77,5.699,110,4.1155,3.1452,-9.181,-0.7104,0.7282,-0.7216,51
6.303,121,8.9765,-4.6931,-14.1767,-0.7017,-0.0687,-0.6374,77,5.751,111,2.9072,0.415,-12.0314,-1.1956,1.1664,-1.1981,51
6.355,122,8.3838,-2.332,-13.9521,-0.9345,0.0771,-0.1792,77,5.803,112,1.7242,-4.9939,-16.7622,-1.5496,1.5363,-1.4879,51
6.407,123,8.6298,-4.5618,-8.8184,-1.3209,-0.3773,0.4273,77,5.855,113,2.0622,0.6908,-17.4195,-1.4702,1.8062,-0.7187,51
6.458,124,7.5595,-4.6915,-10.7117,-0.5844,0.403,0.601,77,5.906,114,3.6806,-1.2327,-17.995,-0.7354,0.6515,-1.1422,51
6.51,125,4.1755,-4.5047,-14.9473,0.1876,0.9724,1.0374,77,5.958,115,2.6196,-1.4536,-18.439,-0.9711,1.1604,-0.8295,51
6.562,126,1.2123,1.0216,-18.9141,0.3601,1.3881,1.4349,77,6.01,116,5.9994,-6.3577,-21.4388,-1.0804,1.5319,-1.2768,51
6.614,127,-0.4462,2.8977,-19.0588,-0.2787,0.8169,1.4045,77,6.062,117,2.8335,-6.9518,-21.8372,-1.1936,1.803,-0.2515,51
6.666,128,4.9401,7.4667,-11.3259,-0.5834,-0.0772,0.9107,77,6.114,118,2.72,-5.3788,-20.5466,-0.2137,0.6491,0.4968,51
6.717,129,-1.7187,0.2125,-5.6821,-0.6351,0.622,0.6961,77,6.165,119,2.3095,-2.3056,-17.7012,0.1223,1.1587,1.0429,51
6.769,130,2.5386,2.8306,-11.3599,-1.1198,0.9959,1.1858,77,6.217,120,2.2807,1.3044,-14.2819,0.2474,0.1789,1.3945,51
6.821,131,7.1186,3.086,-16.2958,-0.4731,1.4052,1.347,77,6.269,121,-2.8114,6.2442,-7.8158,0.8552,0.7465,0.5552,51
6.873,132,4.9836,0.8887,-19.8983,-0.9836,0.3522,0.309,77,6.32,122,3.0654,5.8308,-13.6855,0.3812,0.303,0.8235,51
6.925,133,4.2897,2.3236,-17.2767,-0.1397,0.9237,-0.4485,77,6.372,123,0.496,-0.1504,-13.2389,0.1277,-0.0918,0.4642,51
6.976,134,2.7184,2.2296,-15.6599,-0.7756,0.0007,-0.8472,77,6.424,124,4.9273,-1.5519,-14.9863,0.1014,-0.5063,-0.3326,51
7.028,135,3.8473,-1.5535,-14.3928,-0.8612,-0.3957,-0.6625,77,6.476,125,6.7434,0.4327,-14.5112,0.2431,0.3132,-0.9142,51
7.08,136,5.0388,-3.6151,-13.0418,-0.5794,-0.4883,-0.3483,77,6.528,126,5.1467,-1.6506,-12.9091,-0.4996,0.9136,-0.7417,51
7.132,137,8.9433,2.7134,-17.5234,0.0811,-1.0254,-0.5741,77,6.579,127,4.8326,-4.1352,-11.9319,-0.7533,0.0341,0.1157,51
7.184,138,6.5127,3.4608,-18.9961,0.539,-1.3795,-0.5215,77,6.631,128,4.7752,2.2741,-12.2101,0.1249,0.0761,-0.0705,51
7.235,139,9.1104,4.8439,-20.3413,-0.2171,-0.3285,0.2167,77,6.683,129,2.891,3.5044,-12.9995,-0.5859,0.7076,-0.4538,51
7.287,140,11.9149,4.942,-13.8419,0.3348,-0.8269,-0.4467,77,6.735,130,1.1736,-2.7391,-16.2136,-1.1047,1.2014,-1.0026,51
7.339,141,11.8854,1.5875,-10.8206,0.0506,-0.7008,-0.2691,77,6.786,131,5.9738,3.293,-19.8146,-0.4205,1.3631,-0.0514,51
7.391,142,10.2168,-1.0232,-11.7109,-0.6383,-0.7116,0.4813,77,6.838,132,1.4765,1.8206,-14.34,-0.1282,1.6798,0.5077,51
7.443,143,6.804,-0.9365,-12.4803,0.2107,0.159,1.0288,77,6.89,133,2.3956,0.862,-15.8803,0.0462,0.5592,-0.0315,51
7.494,144,6.8022,-0.686,-13.5732,0.8303,0.7944,1.4286,77,6.942,134,5.8799,2.0169,-15.807,-0.4448,0.9346,-0.4629,51
7.546,145,4.6671,2.8276,-16.7214,0.3522,1.2581,1.494,77,6.994,135,7.2112,-3.8248,-19.5178,-0.7516,1.3403,-0.5833,51
7.598,146,1.0043,4.6322,-16.6949,0.7371,0.9936,0.7597,77,7.045,136,3.3406,-6.4117,-20.7875,-0.9027,1.3775,0.2545,51
7.65,147,5.9081,8.7327,-15.0345,1.1745,1.4035,0.7918,77,7.097,137,7.3541,-2.0688,-23.1528,-0.2019,0.3386,0.527,51
7.702,148,0.9737,9.6854,-18.6794,0.3981,0.6888,1.2492,77,7.149,138,4.0994,0.6557,-17.8236,0.5237,0.9321,1.0649,51
7.753,149,3.8932,5.3646,-20.4503,-0.0042,1.1811,1.5828,77,7.201,139,1.0442,2.4565,-14.6638,0.2965,0.283,0.1451,51
7.805,150,1.2361,9.2672,-22.9304,-0.3892,1.4002,1.1136,77,7.253,140,5.8794,7.085,-9.1014,0.1709,-0.3157,-0.2308,51
7.857,151,2.3077,12.1155,-23.6151,0.3395,0.3485,0.1387,77,7.304,141,3.4744,2.3842,-12.2119,0.7053,0.2419,0.5119,51
7.909,152,0.8874,3.6054,-16.5279,-0.2151,0.0286,-0.5493,77,7.356,142,7.653,0.7174,-14.8976,0.6682,-0.1709,-0.0018,51
7.961,153,4.9887,2.4233,-15.2974,-0.2872,-0.6262,-0.2031,77,7.408,143,8.0995,-1.3869,-13.1545,-0.0935,0.489,-0.281,51
8.013,154,4.1221,0.3035,-15.4132,0.0212,-0.7164,-0.2644,77,7.46,144,7.1209,-1.3096,-15.0726,0.4567,0.166,0.0393,51
8.064,155,8.2743,3.2304,-11.4217,0.202,-1.1679,0.4847,77,7.512,145,6.9939,0.438,-14.45,0.3024,0.8061,0.2112,51
8.116,156,8.925,6.1554,-16.341,0.4408,-1.3261,-0.3202,77,7.563,146,4.3051,2.3717,-14.7919,-0.3508,1.2733,-0.2335,51
8.168,157,9.8291,8.4329,-19.9312,-0.3327,-1.3769,-0.3511,77,7.615,147,0.7044,1.5928,-15.0693,-0.7881,1.6143,-0.8418,51
8.22,158,10.8693,1.7034,-18.2361,0.4337,-0.7222,-0.2137,77,7.667,148,-1.5319,-4.1343,-18.9794,-1.2044,1.545,-1.2858,51
8.271,159,9.3675,1.1192,-17.0056,0.4886,0.1513,0.3079,77,7.719,149,0.3404,2.2747,-18.9291,-0.2187,0.7341,-0.3421,51
8.323,160,12.0926,0.8245,-16.8934,0.1871,0.5742,0.9025,77,7.771,150,-2.3323,0.4132,-21.7965,-0.7139,1.2207,0.4307,51
8.375,161,8.1235,0.6755,-17.3728,0.711,1.0974,1.3352,77,7.823,151,-0.4936,0.326,-18.9572,-0.6084,0.2241,-0.1471,51
8.427,162,4.9882,3.4276,-17.2643,1.128,1.4793,1.6199,77,7.874,152,2.7408,4.3473,-20.5823,-0.5308,0.8344,-0.774,51
8.479,163,2.3433,3.7344,-17.6025,0.4695,1.0882,1.7213,77,7.926,153,2.0719,-0.2388,-23.0031,-0.5177,1.294,-0.5106,51
8.53,164,0.9853,4.8202,-17.0675,1.0192,0.8739,0.6166,77,7.978,154,-1.4132,-1.8499,-22.9826,-0.3582,1.4487,0.3077,51
8.582,165,5.9849,8.8699,-13.8538,0.2334,1.3162,0.5643,77,8.03,155,0.4453,1.4122,-21.3472,0.1454,0.3905,0.7749,51
8.634,166,5.632,8.0654,-18.116,0.0251,0.2872,1.051,77,8.081,156,0.9609,2.335,-16.714,0.1572,0.7413,1.2459,51
8.686,167,6.7842,2.6602,-21.2267,0.4233,0.8439,1.427,77,8.133,157,-4.2926,4.6943,-12.0363,0.7894,1.226,1.5169,51
8.738,168,1.0979,7.0659,-22.1963,-0.3663,0.254,0.7543,77,8.185,158,1.9843,2.8803,-13.0264,0.7676,1.2419,1.4495,51
8.789,169,6.067,10.5089,-16.5857,0.4092,-0.4571,-0.1235,77,8.237,159,1.1898,-1.0489,-16.293,0.4627,0.6834,1.2793,51
8.841,170,2.1896,6.6844,-16.2547,-0.2616,0.3447,-0.4284,77,8.289,160,5.9857,-2.2018,-17.2498,0.3693,0.0809,0.2623,51
8.893,171,2.2568,4.3722,-17.3688,-0.6676,-0.4218,-0.1103,77,8.341,161,4.9584,-1.9889,-17.2955,-0.0303,0.744,-0.1326,51
8.945,172,5.6937,1.4449,-18.9384,-1.1412,-0.9813,-0.5801,77,8.392,162,5.8133,-1.9774,-16.0186,0.3787,-0.1238,-0.3685,51
8.997,173,9.4213,-1.7644,-13.2362,-1.3201,-0.9375,-1.0599,77,8.444,163,6.1303,-1.5312,-13.7283,0.6531,0.5946,-0.4351,51
9.049,174,7.3538,1.6435,-14.6606,-0.7536,-1.3292,-0.9128,77,8.496,164,5.0377,0.4607,-13.6423,0.1594,1.1189,-0.6425,51
9.1,175,7.689,2.333,-16.7279,-1.2252,-0.5608,-0.0166,77,8.548,165,3.1713,2.2176,-14.7612,-0.5607,1.5016,-0.8993,51
9.152,176,10.8775,1.8573,-20.2136,-0.2213,0.2426,-0.3573,77,8.6,166,-3.1581,-3.6783,-18.7545,-1.0863,1.7809,-1.3278,51
9.204,177,9.6534,-0.2616,-18.5513,-0.8367,-0.0097,0.2774,77,8.651,167,-2.3403,-4.6671,-11.0801,-0.7262,1.9847,-1.2305,51
9.256,178,7.7886,-4.4554,-15.1758,-0.553,0.5003,0.7769,77,8.703,168,-0.8393,-4.2644,-13.7841,-0.2667,0.7818,-1.4354,51
9.308,179,6.3612,-3.5689,-15.8876,0.2729,1.0435,1.2448,77,8.755,169,4.5047,-4.0385,-16.0378,-0.2835,1.2555,-1.3244,51
9.359,180,5.6264,1.9005,-19.2112,0.8757,1.4399,1.5862,77,8.807,170,8.405,-1.6189,-12.9217,-0.2908,1.1408,-1.638,51
9.411,181,1.82,6.7079,-20.1903,0.3616,1.6504,1.5401,77,8.859,171,7.5306,-6.4478,-17.412,-0.7336,1.4985,-0.9253,51
9.463,182,-0.9789,6.3642,-22.7407,0.8465,1.1531,0.45,77,8.91,172,4.7921,-7.2385,-18.0395,-0.3939,0.4306,0.005,51
9.515,183,-6.0386,-0.0573,-21.4712,0.8194,1.5199,-0.0085,77,8.962,173,8.6148,-0.141,-12.4825,0.1472,-0.111,0.684,51
9.567,184,0.8585,5.3101,-23.1887,0.1188,1.1056,0.6677,77,9.014,174,5.3299,3.678,-10.3539,0.4301,-0.0624,1.1796,51
9.618,185,5.8923,9.2275,-24.929,-0.3817,1.085,0.3592,77,9.066,175,0.5949,6.9094,-5.3173,0.9886,-0.2671,0.2349,51
9.67,186,3.3567,10.5979,-26.1992,-0.8935,0.1185,-0.4119,77,9.118,176,5.5515,10.335,-1.273,1.0583,-0.8617,-0.162,51
9.722,187,2.0785,6.2975,-21.7377,-0.8945,0.0125,-0.9746,77,9.169,177,4.2776,2.7625,-3.9733,0.7715,-0.7507,0.0137,51
9.774,188,1.5253,2.9088,-17.7253,-1.0004,-0.5135,-1.1713,77,9.221,178,8.0311,0.1363,-7.1148,0.5461,-0.743,-0.6614,51
9.826,189,1.905,-0.6683,-15.9068,-0.9948,-0.6411,-0.4328,77,9.273,179,9.2023,2.7433,-8.4837,0.5488,0.1427,-1.0114,51
9.877,190,3.4301,-1.3276,-15.0787,-0.8076,-0.4965,0.1238,77,9.325,180,6.7857,-0.8566,-10.0295,-0.2321,0.6573,-0.5965,51
9.929,191,7.7692,-5.954,-13.0319,-0.0144,-1.0353,0.4778,77,9.376,181,8.8823,-1.3913,-7.8676,-0.2021,-0.1816,-0.0467,51
9.981,192,10.8245,-1.8137,-17.5161,0.6661,-1.429,-0.3253,77,9.428,182,6.2601,1.3733,-9.0231,0.5271,0.5524,-0.2954,51
10.033,193,13.1659,1.1162,-20.7889,-0.1891,-0.8002,0.4403,77,9.48,183,3.6845,2.363,-9.9729,-0.2923,1.0881,-0.6494,51
10.085,194,13.5057,1.5314,-19.6933,-0.1933,-0.6168,0.4709,77,9.532,184,1.7988,-2.2064,-13.0198,-0.8904,1.4791,-1.1454,51
10.136,195,10.9801,-2.299,-17.3084,0.0656,-0.8209,0.6682,77,9.584,185,6.4301,3.6818,-17.4836,-0.9552,1.7628,-0.1567,51
10.188,196,10.6246,-3.7589,-14.731,0.3498,-0.1443,0.9991,77,9.635,186,3.465,3.5892,-20.7415,-1.0087,1.9715,0.566,51
10.24,197,7.6792,-3.4536,-13.9894,0.9318,0.573,1.245,77,9.687,187,7.6462,1.9616,-23.1193,-0.871,0.7721,-0.2313,51
10.292,198,5.5237,-2.0436,-15.9203,1.3566,1.0966,1.5412,77,9.739,188,8.0339,3.9448,-22.2928,-0.9912,0.8264,-0.8364,51
10.344,199,3.1559,3.8604,-16.3788,1.3232,1.2508,1.4635,77,9.791,189,6.0439,-2.4119,-24.2515,-1.3436,1.2881,-0.1901,51
10.395,200,6.0362,-2.4196,-19.9588,1.6423,0.9259,0.7931,77,9.842,190,3.0665,-5.4418,-22.9988,-0.4145,0.3341,0.5416,51
10.447,201,2.1016,-6.7014,-22.5717,1.0996,1.3541,0.2427,77,9.894,191,6.5087,0.1939,-24.7667,0.3722,-0.4229,0.8416,51
10.499,202,6.3007,-0.9984,-19.1733,1.4791,0.3149,0.1397,77,9.946,192,4.4078,2.3676,-21.2128,0.2816,0.3137,1.2946,51
10.551,203,6.5594,-1.8686,-21.8932,1.2677,0.5073,0.7797,77,9.998,193,2.5628,7.0201,-12.8743,0.8802,-0.3705,1.0138,51
10.603,204,-0.4982,3.9881,-17.7735,1.359,1.0486,0.395,77,10.05,194,6.9877,1.1964,-6.7885,0.0062,-0.6332,1.1087,51
10.655,205,4.1552,2.8136,-16.5718,0.6117,0.0919,-0.3857,77,10.101,195,6.3553,0.6118,-10.1945,0.464,-0.4326,0.7791,51
10.706,206,2.1416,-0.8509,-13.0696,-0.2288,0.1512,-0.3449,77,10.153,196,6.3375,0.4369,-12.2424,0.3757,0.294,-0.1028,51
10.758,207,3.7181,-2.3472,-11.4705,-0.7166,-0.563,0.1808,77,10.205,197,9.5621,-0.1936,-13.4076,0.1688,-0.3681,-0.7373,51
10.81,208,3.7221,-4.2065,-12.5437,-0.1142,-0.1332,-0.3173,77,10.257,198,7.1343,-0.746,-13.4911,-0.5539,0.3153,-0.3737,51
10.862,209,7.9823,2.2818,-17.1598,0.5279,-0.6977,-0.3037,77,10.309,199,8.7779,-2.1234,-11.242,0.1296,-0.1664,-0.4954,51
10.914,210,1.1261,4.8874,-16.6456,0.9656,0.0812,-0.4787,77,10.36,200,6.0915,-0.3612,-10.0044,0.7693,0.5028,-1.0289,51
10.965,211,3.3956,7.0567,-17.1528,0.0295,-0.0363,0.2851,77,10.412,201,4.6492,0.7621,-10.0765,-0.1156,0.7734,-1.1804,51
11.017,212,6.475,6.3875,-19.1562,0.0675,0.5176,0.6936,77,10.464,202,2.7451,-2.1691,-12.7036,-0.7614,1.2494,-1.4871,51
11.069,213,4.9807,5.081,-18.9538,-0.3488,0.8197,1.1018,77,10.516,203,3.5342,-6.8799,-17.2529,-0.5159,1.5968,-1.5898,51
11.121,214,6.7581,0.5221,-16.8303,0.2389,0.2336,1.4537,77,10.568,204,-0.5077,-4.643,-11.2371,0.2454,1.8504,-0.6054,51
11.173,215,6.0039,-0.3791,-15.1427,0.8509,0.8488,1.7386,77,10.619,205,1.0377,-3.9202,-13.6328,0.2055,0.6837,-1.0981,51
11.224,216,5.7677,1.5214,-16.1699,1.2975,1.2979,1.9466,77,10.671,206,2.4758,-0.1523,-14.6997,0.4764,1.184,-1.4728,51
11.276,217,3.659,5.9474,-15.8967,1.0232,1.3345,2.0781,77,10.723,207,2.7806,-5.408,-18.7096,-0.2553,1.5491,-1.1142,51
11.328,218,0.4747,9.6926,-16.7506,0.4058,1.2966,1.1486,77,10.775,208,1.4461,-5.9337,-20.2091,0.0393,0.8433,-0.1329,51
11.38,219,5.6122,12.426,-9.6413,0.6348,1.6247,0.5022,77,10.827,209,2.1883,-3.1343,-17.9191,0.7034,-0.0513,0.2829,51
11.432,220,-1.2281,6.0866,-4.4526,0.126,1.8641,-0.0304,77,10.878,210,2.5274,-0.4214,-14.7214,0.8251,0.2962,0.8197,51
11.483,221,3.1092,-0.411,-11.2546,0.5081,2.0051,0.6556,77,10.93,211,-0.3089,3.4566,-9.998,1.2769,0.6956,0.5885,51
11.535,222,-2.5633,5.052,-9.4306,0.0335,1.3981,0.2242,77,10.982,212,-0.8863,0.7413,-14.3159,0.2755,0.1784,0.7798,51
11.587,223,2.3328,1.7998,-9.8323,-0.6452,0.7895,-0.5104,77,11.034,213,0.847,0.6867,-11.8591,-0.1298,0.2775,1.2495,51
11.639,224,-0.8079,-3.8739,-11.9922,-0.5916,1.2546,-0.4958,77,11.085,214,5.7355,1.0314,-16.4382,0.0638,-0.0464,0.6202,51
11.691,225,0.0324,0.6123,-13.7255,-0.7041,0.2422,-0.7507,77,11.137,215,4.2378,0.8219,-14.4573,-0.3977,0.6511,0.3525,51
11.742,226,1.751,-1.2786,-16.1998,-0.1493,-0.1587,-0.4305,77,11.189,216,5.7624,-0.1239,-13.4508,-0.5079,-0.1916,0.3178,51
11.794,227,-1.0789,-1.5682,-19.8282,-0.4846,0.5625,-0.9882,77,11.241,217,7.1536,0.9795,-13.6094,-0.9674,-0.2181,0.2841,51
11.846,228,4.2845,2.0075,-18.6826,-0.5457,-0.2628,-0.4083,77,11.293,218,5.5347,0.1671,-14.0681,-0.645,0.5258,-0.0188,51
11.898,229,8.3928,5.6844,-21.2768,-0.2993,-0.6094,0.3715,77,11.344,219,2.9547,-1.1756,-14.8988,-0.9147,1.0687,-0.621,51
11.95,230,7.2058,4.201,-20.4799,0.055,-0.8923,0.8723,77,11.396,220,6.6315,-6.1548,-18.855,-1.3281,0.1132,-1.1054,51
12.001,231,3.1977,2.7566,-17.3983,0.2405,-0.7407,0.4185,77,11.448,221,-0.6327,-4.3174,-11.2535,-1.4545,0.7676,-0.1265,51
12.053,232,2.2282,2.01,-15.1295,0.283,-0.9589,0.1698,77,11.499,222,2.1264,-5.0828,-11.4443,-1.5269,-0.1066,-0.5946,51
12.105,233,2.8314,0.36,-13.8053,0.1649,-1.1822,0.1402,77,11.551,223,6.6249,-2.6135,-13.1526,-1.2643,-0.3607,-0.7459,51
12.157,234,3.1805,-2.9357,-12.1953,0.1309,-0.7788,0.3307,77,11.603,224,6.2607,-1.8473,-15.0189,-1.4909,0.4217,-0.5663,51
12.209,235,1.5958,3.2093,-11.3762,-0.502,-0.0834,0.6123,77,11.655,225,7.4994,1.8453,-11.7111,-0.4134,-0.359,-1.0847,51
12.261,236,6.4305,-2.8948,-7.5201,-1.0416,-0.338,-0.2141,77,11.707,226,6.5934,2.3316,-9.7301,0.1999,-0.2855,-1.4631,51
12.312,237,8.7863,0.4408,-11.9109,-1.3708,-0.9201,0.0643,77,11.758,227,4.4921,-2.2082,-12.5691,-0.5312,0.4766,-1.7392,51
12.364,238,7.6566,1.6466,-10.6858,-1.2672,-0.8653,0.0754,77,11.81,228,1.4735,-6.9084,-15.6719,-1.0647,0.9446,-1.5774,51
12.416,239,5.2784,4.1657,-10.3657,-0.6925,0.0454,0.3469,77,11.862,229,-0.1842,-4.2784,-12.1795,-1.4227,0.1662,-0.4709,51
12.468,240,4.0195,4.5629,-11.212,-0.4708,0.5279,0.7265,77,11.914,230,4.9829,-3.7925,-16.8703,-1.4617,0.4683,0.3166,51
12.519,241,4.371,4.2173,-10.093,0.1144,1.0016,0.9432,77,11.966,231,-1.8359,-5.3498,-15.2598,-1.3855,0.0157,0.4323,51
12.571,242,3.6327,3.9039,-12.6831,0.76,0.9157,0.5653,77,12.017,232,3.7774,-4.799,-11.3312,-0.6424,-0.6553,-0.2398,51
