right_leg_timestamp,right_leg_index,right_leg_accel_x,right_leg_accel_y,right_leg_accel_z,right_leg_gyro_x,right_leg_gyro_y,right_leg_gyro_z,right_leg_battery_percentage,left_leg_timestamp,left_leg_index,left_leg_accel_x,left_leg_accel_y,left_leg_accel_z,left_leg_gyro_x,left_leg_gyro_y,left_leg_gyro_z,left_leg_battery_percentage
0.037,0,9.4212,1.2325,-10.3993,0.2721,-0.3866,0.3289,91,0.702,13,8.655,0.001,-11.1258,1.3182,1.0665,-0.1815,51
0.089,1,10.0347,0.361,-9.6821,0.2566,-0.6258,0.4988,91,0.754,14,5.9116,-0.5444,-10.684,0.285,1.3773,-0.2513,51
0.141,2,8.6978,-0.3592,-10.3066,0.0309,-0.6725,1.0406,91,0.805,15,4.3554,-0.4085,-10.528,-0.2328,1.4202,-0.1914,51
0.192,3,9.199,-0.6553,-11.7151,0.1398,-0.7967,1.3379,91,0.857,16,3.1669,-0.1218,-10.5682,-0.4708,1.2458,-0.1228,51
0.244,4,8.4096,-1.0466,-12.6165,0.2423,-0.0843,0.5225,91,0.909,17,7.4286,1.3911,-15.6943,0.0294,0.5773,-0.6021,51
0.296,5,11.4035,1.3674,-11.6793,0.2395,0.5829,-0.2927,91,0.961,18,6.5748,0.9856,-12.7576,0.6961,0.0883,0.1266,51
0.348,6,8.4885,-1.606,-13.88,-0.5004,1.1037,0.4501,91,1.013,19,2.999,0.7358,-13.1588,0.7211,-0.4165,0.2655,51
0.4,7,6.0201,-5.0993,-15.8893,-0.1798,0.1322,0.522,91,1.064,20,2.5966,1.4541,-10.3238,0.7558,-0.9707,0.2648,51
0.452,8,4.5534,-3.0666,-13.1907,0.5453,-0.2057,-0.1155,91,1.116,21,2.0211,1.9041,-11.4004,1.2263,-1.2398,0.4313,51
0.504,9,2.6591,0.0585,-13.8211,0.4331,-0.064,0.1402,91,1.168,22,2.5716,4.2004,-11.6645,1.2245,-1.3993,0.1433,51
0.555,10,7.2065,0.9371,-12.222,0.7884,-0.7201,-0.5717,91,1.22,23,1.6934,3.1515,-10.0598,0.2166,-1.578,-0.3939,51
0.607,11,5.4458,-1.7734,-13.5494,0.7097,0.1528,-0.7499,91,1.271,24,3.7044,7.5923,-12.9257,0.8328,-1.4718,-0.7089,51
0.659,12,9.2404,1.7597,-12.535,0.6026,0.6991,-1.2213,91,1.323,25,7.8209,1.3837,-10.148,-0.052,-1.7242,-0.3705,51
0.711,13,8.8123,2.3985,-10.0713,-0.2266,1.0627,-0.8662,91,1.375,26,9.4944,0.7168,-11.8103,-0.0776,-1.0368,-0.3918,51
0.763,14,6.4299,0.4713,-11.0807,-0.6921,0.7547,-0.197,91,1.427,27,11.13,0.3355,-11.2943,-0.1344,-0.4346,-0.3462,51
0.814,15,5.5974,0.5976,-9.8576,0.1714,0.3652,-0.3204,91,1.479,28,10.4665,0.0814,-10.2951,0.5164,0.3222,-0.0406,51
0.866,16,4.2362,3.2181,-6.1723,0.6963,0.5506,-0.7472,91,1.53,29,7.8034,0.2623,-11.2829,0.7726,0.6538,0.1517,51
0.918,17,4.1765,2.0737,-6.8152,0.3488,1.0802,-1.2194,91,1.582,30,5.9331,0.246,-13.5675,0.3405,0.3412,0.1826,51
0.97,18,1.5734,-3.7235,-12.9789,0.7552,0.3878,-0.9457,91,1.634,31,4.6581,1.5336,-13.6894,-0.2138,-0.2582,-0.1009,51
1.022,19,-0.8496,-1.782,-16.7826,-0.042,0.9614,-0.0147,91,1.686,32,5.3525,2.3808,-13.6934,0.0185,-0.8552,-0.2422,51
1.073,20,3.6298,-1.1193,-17.1663,0.3709,0.0283,-0.6844,91,1.738,33,8.7266,2.7746,-14.0132,0.0072,-1.055,-0.2263,51
1.125,21,5.1193,-1.3353,-16.134,-0.4045,0.699,0.1715,91,1.789,34,10.64,1.9028,-16.1105,-0.052,-0.1933,-0.2295,51
1.177,22,4.5191,-2.8527,-15.4512,-0.3593,0.5542,0.5233,91,1.841,35,12.8828,-0.5151,-10.9795,0.4964,0.3758,-0.0136,51
1.229,23,4.9441,-0.7709,-13.227,-0.3801,0.2046,0.5148,91,1.893,36,9.5018,2.01,-15.9945,0.5471,0.0044,0.2369,51
1.281,24,4.2641,-1.4296,-12.9565,-0.4567,-0.1269,0.6631,91,1.945,37,7.9264,0.6122,-12.3967,0.9447,0.1525,0.3163,51
1.332,25,5.387,-0.2572,-12.3207,0.3432,-0.766,0.6967,91,1.996,38,5.9212,1.0327,-10.7621,0.1603,0.7961,0.2897,51
1.384,26,9.1974,-0.419,-11.0891,-0.1074,-1.074,0.9516,91,2.048,39,4.7894,1.5528,-9.9914,-0.1981,1.266,0.079,51
1.436,27,11.9784,-1.0494,-10.353,-0.0727,-1.4564,0.1727,91,2.1,40,4.2346,1.7416,-10.3957,-0.5714,1.6089,-0.1715,51
1.488,28,14.0081,-0.2936,-12.1386,-0.3559,-0.5788,-0.2315,91,2.152,41,5.2878,2.571,-10.3055,-1.0941,1.8592,-0.2371,51
1.539,29,15.4895,2.3342,-9.0366,-0.9054,0.2559,-0.7822,91,2.204,42,8.9766,-3.4204,-4.9136,-0.8972,0.7296,-0.6772,51
1.591,30,11.952,-3.5335,-6.5361,-1.336,0.8652,0.0868,91,2.256,43,11.6688,2.7958,-6.2067,-0.3937,-0.1343,-0.9634,51
1.643,31,7.0104,-2.9038,-7.9987,-0.2986,0.0312,-0.076,91,2.307,44,13.2129,-0.3687,-12.2637,-0.2166,-0.5852,-0.5703,51
1.695,32,5.7864,-2.0378,-8.5293,-0.2107,-0.5574,0.0114,91,2.359,45,8.411,-4.0403,-6.3428,-0.6965,-0.3234,-0.3142,51
1.746,33,4.3522,-1.0973,-7.5906,-0.7224,-0.5794,0.4472,91,2.411,46,8.262,-1.9942,-7.3908,-0.6583,-0.4745,-0.2319,51
1.798,34,7.1708,2.9132,-4.5708,-0.1868,-1.0963,-0.0203,91,2.463,47,9.4934,-1.5567,-6.1278,-0.3553,-0.649,-0.1717,51
1.85,35,10.4993,7.4781,-8.3422,0.3054,-0.7147,0.3763,91,2.515,48,9.4329,-1.2112,-6.1432,0.0017,-0.8538,-0.1776,51
1.902,36,7.4502,4.7295,-12.3936,-0.4521,0.1567,-0.1168,91,2.566,49,9.7191,-0.7656,-5.8346,-0.0031,-0.8016,-0.1556,51
1.954,37,9.1562,3.2489,-10.375,-0.6251,0.4083,-0.6821,91,2.618,50,9.9098,-1.2497,-5.1874,0.2392,-0.662,-0.1057,51
2.006,38,7.3737,1.9927,-10.8046,-0.9598,0.8347,-0.0378,91,2.67,51,10.7931,-2.007,-6.6872,0.717,-0.5844,-0.0147,51
2.057,39,6.9853,0.4522,-11.6221,-0.7035,0.8028,-0.1228,91,2.722,52,11.123,0.5724,-9.895,1.198,-0.931,0.0609,51
2.109,40,7.5324,0.1222,-10.5717,-0.443,0.3543,-0.0805,91,2.773,53,9.2223,1.8463,-11.1451,0.8891,-0.9785,0.3641,51
2.161,41,8.2675,-1.5931,-10.7929,-0.2166,0.0276,-0.5766,91,2.825,54,6.7236,0.9615,-13.284,0.8348,-1.226,0.478,51
2.213,42,8.9614,-0.5703,-11.799,-0.0742,-0.3273,-0.4299,91,2.877,55,5.8686,0.8577,-13.6286,0.6018,-1.5615,0.2694,51
2.264,43,8.1679,-1.0777,-13.2938,0.0864,-0.4784,0.146,91,2.929,56,3.5626,-0.1881,-10.0639,-0.103,-1.8065,-0.1014,51
2.316,44,8.204,-1.4497,-15.0259,-0.011,0.126,-0.0922,91,2.981,57,3.6787,0.4077,-15.3263,0.4994,-1.5402,-0.0363,51
2.368,45,11.2534,0.1434,-15.3412,0.3194,0.7703,-0.6964,91,3.032,58,2.8505,-1.7095,-19.167,0.8378,-1.7908,0.0979,51
2.42,46,8.3508,0.8003,-11.4886,-0.3211,0.6592,0.1473,91,3.084,59,7.1977,-1.3428,-18.974,0.0062,-0.622,-0.133,51
2.472,47,7.7943,-1.3435,-13.7291,0.4054,-0.1526,-0.4586,91,3.136,60,10.3705,-1.8469,-13.7453,0.0826,0.2185,0.0862,51
2.523,48,5.3881,0.3107,-12.2688,0.9644,0.567,-0.3786,91,3.187,61,9.3331,3.9442,-17.803,0.5004,-0.0171,0.0029,51
2.575,49,4.2672,-0.5868,-12.9314,0.0287,0.2687,-0.8131,91,3.239,62,7.6397,2.3432,-13.8299,0.2582,0.2008,0.0905,51
2.627,50,4.3331,-2.2289,-15.5922,0.6004,0.0854,-0.2643,91,3.291,63,5.946,2.7525,-13.0058,0.2689,0.8313,0.0343,51
2.679,51,0.6875,1.2435,-19.3848,-0.237,-0.2022,0.4848,91,3.343,64,4.9608,2.0739,-12.6491,-0.0439,1.2917,-0.3189,51
2.731,52,1.6602,4.6437,-21.9294,0.5026,-0.0561,0.6954,91,3.395,65,4.1691,2.9012,-12.2621,-0.6861,1.2743,-0.5216,51
2.782,53,6.2625,2.641,-18.0037,-0.146,0.6374,0.6686,91,3.446,66,4.0542,2.9635,-15.5948,-1.1778,0.342,-0.4973,51
2.834,54,7.3698,5.1041,-21.1448,-0.7817,0.2376,1.0312,91,3.498,67,8.0762,-3.1339,-19.363,-1.5367,-0.2147,0.0781,51
2.886,55,0.8161,1.1966,-15.8135,-1.2458,0.8518,0.0786,91,3.55,68,11.0117,-7.1429,-19.3659,-1.7602,-0.8073,-0.1694,51
2.938,56,0.7027,-0.5171,-14.5943,-0.5921,-0.0517,0.4673,91,3.602,69,13.1541,-4.6932,-16.194,-0.8161,0.0957,0.1976,51
2.99,57,1.474,0.3905,-14.073,-0.4728,-0.7112,0.293,91,3.654,70,14.7177,1.8669,-19.8003,0.0791,0.0687,-0.0365,51
3.041,58,2.0912,-0.1597,-13.0324,-1.0203,-0.7184,0.2387,91,3.705,71,14.9394,4.843,-16.8303,0.3711,-0.6166,0.4471,51
3.093,59,1.3611,-1.724,-10.9854,-1.4199,-0.3463,-0.2697,91,3.757,72,11.0115,3.5464,-16.2083,-0.4062,-1.1168,0.1423,51
3.145,60,6.2592,-3.2599,-5.4336,-1.1301,-0.5043,0.4809,91,3.809,73,8.8925,2.6133,-13.7534,-0.1734,-1.4819,-0.0834,51
3.197,61,3.874,2.4285,-7.8928,-0.7127,-1.0415,-0.2024,91,3.861,74,6.5495,2.7491,-11.1431,0.5481,-1.7434,-0.1164,51
3.248,62,3.8438,5.8336,-13.7654,0.1551,-1.4329,0.53,91,3.912,75,3.2694,1.6243,-6.5914,1.0224,-1.5121,-0.1565,51
3.3,63,4.6505,0.3763,-12.3246,-0.5621,-0.3674,1.0646,91,3.964,76,-0.1496,0.3898,-9.3537,0.3825,-0.7143,-0.3091,51
3.352,64,2.0052,-0.0406,-16.959,-0.3688,0.4102,0.9818,91,4.016,77,5.0081,3.2744,-13.1068,0.7476,-1.1881,-0.2666,51
3.404,65,2.839,-3.5483,-12.9885,0.3991,0.517,1.3943,91,4.068,78,8.7718,3.2391,-15.2969,0.0029,-0.1822,-0.3678,51
3.456,66,2.3443,-2.7638,-13.4717,0.9678,0.141,1.3149,91,4.12,79,3.1076,2.8799,-12.7156,0.6611,0.552,-0.2754,51
3.508,67,1.7579,-1.0757,-15.2063,0.7402,0.7813,1.5967,91,4.171,80,2.0665,2.3468,-14.6485,1.1572,0.6724,-0.4649,51
3.559,68,1.3416,-1.1068,-13.7185,0.8843,0.4254,1.2476,91,4.223,81,2.1591,1.2337,-13.1211,0.1675,-0.0549,-0.5297,51
3.611,69,3.6147,1.2626,-16.3679,1.3219,-0.229,0.2365,91,4.275,82,1.1158,0.9372,-11.1614,-0.5548,0.4256,-0.4193,51
3.663,70,4.0107,0.044,-15.3256,0.2896,-0.5256,0.7678,91,4.327,83,1.4018,1.2809,-10.6961,-1.082,0.9956,-0.0798,51
3.715,71,5.0831,2.0515,-12.0148,0.7106,0.2948,0.2036,91,4.378,84,1.3928,2.2009,-12.7719,-1.4668,1.4116,-0.1878,51
3.767,72,8.9756,2.3224,-16.7738,-0.1566,0.1501,0.8263,91,4.43,85,0.3482,2.5634,-15.7506,-1.5771,0.9899,-0.1439,51
3.818,73,5.3682,2.0142,-14.7401,-0.7895,0.7879,0.4797,91,4.482,86,-5.2185,-3.4259,-8.8877,-1.7849,1.3715,-0.4575,51
3.87,74,3.8005,0.0945,-13.6633,-0.9483,0.138,-0.3239,91,4.534,87,-2.1178,-1.555,-6.784,-1.5893,1.6859,-0.4702,51
3.922,75,2.9888,0.5443,-13.6817,-0.0155,-0.5727,-0.8904,91,4.586,88,-2.5685,-1.181,-12.9324,-0.4852,1.0021,-0.8623,51
3.974,76,7.1049,0.2474,-12.2506,-0.6819,-1.0914,-0.7098,91,4.637,89,1.1513,-1.0034,-13.3699,-1.0312,0.0646,-0.5905,51
4.026,77,4.6829,-1.4248,-11.8002,-1.1729,-0.1182,-1.1504,91,4.689,90,1.1799,-0.7101,-14.586,-0.2275,-0.3343,-0.6059,51
4.077,78,3.9108,-6.2769,-14.9512,-0.352,-0.7597,-0.9398,91,4.741,91,1.5452,0.3833,-13.9968,0.5087,-0.9108,-0.5504,51
4.129,79,2.0026,-8.8213,-13.4591,-0.5655,0.1239,-1.3599,91,4.793,92,1.8286,0.8737,-13.0518,1.0459,-1.3315,-0.0569,51
4.181,80,2.8038,-4.2871,-14.7586,0.2638,-0.583,-0.3343,91,4.845,93,-3.901,-2.8669,-6.918,0.0863,-1.3244,-0.2371,51
4.233,81,7.1532,-4.2229,-16.247,-0.2542,0.2529,0.1483,91,4.896,94,2.2702,-6.7844,-2.4413,-0.0768,-0.741,0.1622,51
4.285,82,4.7924,-6.0425,-14.9815,-0.8608,0.7924,0.0411,91,4.948,95,4.2765,-4.9452,-8.5028,0.1293,-0.8619,0.3193,51
4.336,83,3.9617,-5.6304,-18.4905,-0.5518,-0.0951,-0.0653,91,5.0,96,8.1011,-3.5722,-11.803,-0.2865,0.0559,-0.1423,51
4.388,84,2.7523,-7.0629,-17.2244,0.2563,0.4558,0.0345,91,5.052,97,11.0298,-0.4084,-9.5138,0.313,0.7258,-0.2049,51
4.44,85,2.8495,-4.5559,-14.8774,0.22,0.981,0.6581,91,5.104,98,9.5623,-0.5325,-9.6109,0.9031,0.9128,-0.0349,51
4.492,86,3.6005,-5.1578,-14.5074,0.6802,0.8745,1.107,91,5.156,99,7.3038,0.9034,-5.3412,-0.0179,1.3061,-0.3614,51
4.544,87,3.8872,-1.8286,-13.6563,1.173,0.7202,0.2061,91,5.207,100,4.2943,3.4465,-7.1404,0.2538,1.6382,-0.4617,51
4.595,88,1.9252,1.4784,-17.9719,1.281,1.204,0.0616,91,5.259,101,4.7704,2.006,-8.6656,-0.4919,1.8806,-0.8964,51
4.647,89,0.7037,2.3678,-19.2264,0.3413,0.2053,0.6636,91,5.311,102,3.9483,1.4385,-12.4892,-1.0361,1.9248,-1.0902,51
4.699,90,5.7794,-3.5089,-22.0371,0.3413,0.8238,1.1518,91,5.363,103,4.9604,1.6615,-16.2308,-1.4332,0.738,-0.799,51
4.751,91,5.2684,-3.6051,-14.2031,-0.0879,1.2796,0.1666,91,5.415,104,8.7376,0.3176,-13.2907,-0.5634,0.8857,-0.2333,51
4.803,92,4.079,-3.7365,-16.6382,0.6124,0.2605,0.1604,91,5.466,105,11.4944,2.7614,-13.7757,-0.0168,0.9934,-0.7882,51
4.854,93,3.5411,-1.2631,-17.6767,0.6266,-0.4833,-0.5569,91,5.518,106,13.5064,0.2152,-12.2399,-0.0844,1.41,-0.2297,51
4.906,94,5.1138,-0.8763,-17.713,-0.0221,-1.0261,-1.0805,91,5.57,107,14.9749,5.4492,-16.9144,0.6131,1.1213,-0.4279,51
4.958,95,2.6012,-3.6165,-10.3437,-0.6914,-0.0705,-1.0309,91,5.622,108,16.0466,9.2692,-16.0121,1.1221,0.1516,0.3681,51
5.01,96,3.7254,-4.9376,-10.3869,-0.1508,-0.7249,-0.6162,91,5.673,109,12.5465,8.1214,-16.1056,0.1419,-0.5561,0.245,51
5.062,97,7.9847,1.7482,-14.0564,-0.1137,-1.071,-1.1238,91,5.725,110,10.0949,4.9641,-13.8854,-0.5735,-1.0727,0.169,51
5.113,98,1.9879,5.5219,-16.3898,0.5521,-0.1033,-0.5672,91,5.777,111,7.9902,3.3775,-10.7159,0.1971,-1.4295,0.1545,51
