right_leg_timestamp,right_leg_index,right_leg_accel_x,right_leg_accel_y,right_leg_accel_z,right_leg_gyro_x,right_leg_gyro_y,right_leg_gyro_z,right_leg_battery_percentage,left_leg_timestamp,left_leg_index,left_leg_accel_x,left_leg_accel_y,left_leg_accel_z,left_leg_gyro_x,left_leg_gyro_y,left_leg_gyro_z,left_leg_battery_percentage
0.018,0,9.3262,-1.9873,-11.5244,0.0117,0.0135,-0.0005,86,0.498,9,7.6672,-0.1091,-12.9793,0.1012,-0.4087,0.5296,51
0.07,1,9.3542,-1.9687,-11.5122,0.007,0.0221,0.006,86,0.55,10,6.8968,-1.1741,-13.2752,-0.0529,-0.6964,0.6205,51
0.122,2,9.2469,-1.9788,-11.4579,-0.0089,-0.0014,0.0012,86,0.602,11,7.3059,-2.4548,-14.8268,0.3709,0.1147,-0.2141,51
0.173,3,9.2056,-2.0104,-11.3696,0.0079,-0.0748,-0.036,86,0.654,12,6.4758,-3.4559,-18.8024,0.602,0.4307,-0.5412,51
0.225,4,8.8269,-2.1455,-11.4647,-0.3138,-0.2803,-0.2778,86,0.705,13,4.7925,-3.9212,-21.5812,1.114,-0.2268,0.2853,51
0.277,5,8.9854,-1.964,-11.6289,-0.5015,-0.7613,-0.6352,86,0.757,14,5.3884,-3.1381,-17.2039,1.1084,-0.3438,0.8886,51
0.329,6,9.0448,-0.2615,-13.6155,-0.42,-0.8445,-0.8675,86,0.809,15,3.3832,-4.6098,-18.2118,0.5173,0.1731,0.7707,51
0.381,7,9.8398,0.4191,-15.4005,-0.4149,-0.7753,-0.8684,86,0.861,16,7.5865,-3.9516,-18.3406,0.3876,0.4886,0.9049,51
0.432,8,12.4473,1.3767,-12.5043,0.2322,-0.6948,-0.55,86,0.912,17,10.6542,-3.3851,-17.3639,0.61,0.7418,1.2813,51
0.484,9,11.0887,-1.2368,-12.8546,0.5528,-0.9322,-0.6403,86,0.964,18,9.9203,-2.1235,-18.916,0.4248,0.7302,1.25,51
0.536,10,7.7988,-2.1717,-9.1977,1.08,-0.0415,-0.4986,86,1.016,19,9.4201,3.7423,-14.9093,0.4117,0.7488,0.4002,51
0.588,11,6.1503,-2.1079,-11.4768,1.4648,0.648,-0.2113,86,1.068,20,7.4704,4.0639,-13.6225,-0.3766,1.2315,-0.272,51
0.64,12,-0.8354,-5.013,-16.3812,1.7456,0.3794,-0.2611,86,1.12,21,6.4031,1.1785,-17.9235,-0.9519,1.5837,-0.2818,51
0.691,13,2.4021,-0.0879,-18.7366,1.4431,0.0516,-0.3349,86,1.171,22,3.6242,-4.4367,-21.0626,-1.0339,1.8408,-0.2309,51
0.743,14,7.0189,-0.2952,-19.3105,0.861,0.716,0.204,86,1.223,23,-0.9239,-1.4391,-22.9859,-0.9021,1.6906,0.314,51
0.795,15,10.3884,1.6186,-22.0985,-0.0049,1.2008,0.758,86,1.275,24,3.5383,-5.4436,-22.7157,-0.9946,1.918,-0.4145,51
0.847,16,9.8828,0.4218,-23.1471,-0.6788,0.203,-0.1206,86,1.327,25,4.7038,-8.1472,-24.5601,-0.6711,2.0706,-0.9739,51
0.899,17,10.8412,-1.5698,-16.51,0.0731,-0.5252,-0.7621,86,1.378,26,3.8134,-9.7588,-22.4937,0.1849,1.4672,-0.989,51
0.95,18,9.1953,-2.9313,-9.7481,0.609,-0.69,-0.7738,86,1.43,27,7.9005,-6.1628,-16.769,0.7152,0.404,-0.0415,51
1.003,19,11.0383,-3.7372,-15.1195,-0.2308,-0.9935,-0.2839,86,1.482,28,5.9669,-0.3869,-12.3813,0.2858,-0.0603,0.5129,51
1.054,20,13.322,-2.294,-14.1863,-0.231,-1.039,-0.3002,86,1.534,29,5.4309,0.2848,-11.4327,0.8238,-0.0807,0.2672,51
1.106,21,13.749,-1.5538,-15.7547,-0.0937,-0.389,-0.1394,86,1.586,30,9.081,-5.0889,-10.1384,0.1044,-0.3087,0.8588,51
1.158,22,7.1932,-3.3627,-11.4638,-0.2936,0.0624,0.0674,86,1.637,31,11.745,-5.4292,-11.5048,0.0678,-0.4997,0.6765,51
1.21,23,7.3485,-4.6128,-9.0126,-0.6604,0.7239,0.5258,86,1.689,32,11.362,-3.9557,-14.5292,-0.1594,-0.5591,0.8404,51
1.262,24,7.3753,-3.589,-9.9948,0.1654,1.2067,0.9869,86,1.741,33,11.0041,1.4432,-12.3696,0.0329,-0.2365,0.1868,51
1.313,25,4.2548,-2.1691,-15.1602,0.7973,1.5591,0.7336,86,1.793,34,8.5246,3.3651,-10.4334,-0.6531,0.5124,-0.3762,51
1.365,26,-2.2188,3.6347,-19.0695,0.4759,0.7617,0.8753,86,1.844,35,6.5021,-0.4277,-14.2297,-1.1537,1.0589,-0.9459,51
1.417,27,1.667,3.6217,-19.2465,0.4366,0.4559,0.7128,86,1.896,36,3.5796,-4.7805,-17.5349,-1.0695,1.4578,-1.3618,51
1.469,28,4.3351,5.1594,-17.4201,0.4269,1.0038,1.0988,86,1.948,37,3.2318,-6.565,-15.8049,-0.9318,1.4118,-1.5859,51
1.521,29,7.0101,1.1278,-20.7189,0.3791,1.411,1.2286,86,2.0,38,3.5515,-7.0508,-15.7177,-1.0739,0.3636,-1.8257,51
1.572,30,4.031,3.1365,-23.0437,-0.3326,0.3564,0.2574,86,2.052,39,4.035,-6.446,-19.4526,-0.1091,0.9469,-2.0039,51
1.624,31,8.1701,1.2985,-19.9835,-0.1874,-0.4133,-0.4861,86,2.104,40,2.8408,-6.3718,-22.0627,0.5951,1.1569,-0.8749,51
1.676,32,7.4825,1.5495,-12.0008,-0.2997,-0.5679,-0.3732,86,2.155,41,7.1906,-8.1967,-16.8551,0.2007,0.1776,0.0418,51
1.728,33,10.7268,-4.1062,-6.1746,-0.4548,-1.0587,0.2418,86,2.207,42,5.2691,-3.6238,-15.0415,-0.3667,-0.0689,0.2538,51
1.779,34,13.0947,-2.6856,-9.2608,-0.505,-0.4789,0.3654,86,2.259,43,5.2125,-0.5773,-13.3212,0.4053,0.3036,0.0305,51
1.831,35,14.4757,-2.7926,-7.1347,-0.1486,0.2878,0.5626,86,2.311,44,8.9216,-1.9956,-12.7244,-0.2668,0.5816,0.3651,51
1.883,36,10.5754,-4.884,-7.93,-0.2415,-0.3895,0.0671,86,2.363,45,10.5522,-0.7125,-11.9223,-0.1755,0.2475,0.433,51
1.935,37,9.6813,-6.6575,-4.9195,-0.1386,-0.3165,-0.0826,86,2.414,46,9.7365,0.6715,-13.3163,0.0216,0.0897,0.5781,51
1.986,38,6.4634,-6.3963,-5.5832,0.5754,0.4474,0.3759,86,2.466,47,9.8069,4.1218,-11.4451,-0.1575,0.2305,0.0147,51
2.038,39,6.2276,-6.5692,-11.7662,1.0964,1.0049,0.4435,86,2.518,48,8.642,2.7954,-10.5528,-0.7038,0.8491,-0.554,51
2.09,40,9.4476,0.5574,-6.0035,0.4556,0.5259,-0.02,86,2.57,49,6.3693,0.6888,-14.4418,-1.1907,1.3047,-1.0757,51
2.142,41,12.161,1.6837,-9.5462,0.6696,0.919,-0.0234,86,2.621,50,9.7659,-4.7941,-18.5214,-0.7474,0.7159,-0.5761,51
2.194,42,12.9083,1.9874,-11.9303,0.4176,1.3491,0.4216,86,2.673,51,6.3046,-2.2861,-13.9825,-0.818,0.0633,-0.2813,51
2.245,43,8.539,0.3836,-16.7122,-0.3704,0.3177,0.0266,86,2.725,52,9.7187,-1.0368,-14.5382,0.0776,0.4681,-0.8767,51
2.297,44,11.2356,0.3506,-16.7368,-0.0898,-0.4416,-0.6421,86,2.777,53,7.6545,-6.0535,-18.5918,0.7313,0.5375,-1.3113,51
2.349,45,6.0342,0.4273,-9.6312,0.3973,-0.9957,-0.6663,86,2.829,54,6.3642,-4.0838,-17.7081,-0.0591,-0.2745,-0.2767,51
2.401,46,9.6698,0.8675,-5.2741,-0.1097,-0.8462,-0.4704,86,2.88,55,3.2825,-1.1624,-10.3164,-0.1973,0.4741,0.4784,51
2.453,47,12.3232,1.3692,-9.4048,0.4232,-1.291,-0.9677,86,2.932,56,5.7891,2.526,-9.4234,0.4984,-0.0442,0.439,51
2.504,48,14.2598,0.6485,-9.1189,-0.168,-0.6383,-0.5961,86,2.984,57,7.0603,2.7485,-14.8588,0.6762,-0.2643,0.2946,51
2.556,49,12.317,-0.0561,-13.3459,-0.146,-0.1805,-0.5409,86,3.036,58,10.2702,2.4515,-15.4574,0.7144,-0.3906,-0.2235,51
2.608,50,10.9436,-3.5219,-9.9276,-0.5461,0.5466,-0.3692,86,3.087,59,11.4306,2.486,-16.5176,0.3822,-0.5012,0.1368,51
2.66,51,10.6424,-3.8814,-9.1367,0.278,1.0773,-0.1335,86,3.139,60,8.4986,5.9064,-14.6629,0.5042,0.2283,-0.3246,51
2.712,52,8.4179,-3.0682,-13.1527,0.8794,1.4646,0.0032,86,3.191,61,10.9661,3.2253,-18.6829,-0.1532,0.8433,-0.9083,51
2.763,53,4.7525,-2.7464,-17.6043,0.7479,1.2627,0.0951,86,3.243,62,9.2616,2.0346,-17.9198,-0.7889,1.3005,-1.2416,51
2.815,54,-1.8556,-2.5521,-20.8533,0.57,0.5382,-0.2591,86,3.294,63,7.8403,0.9081,-21.0598,-1.2528,1.6341,-0.6211,51
2.867,55,3.2528,-3.1502,-20.8413,0.091,1.0686,0.2343,86,3.346,64,10.8395,-2.8707,-23.1451,-1.5905,1.823,0.1773,51
2.919,56,7.4872,-3.0311,-22.8948,-0.2842,1.4583,0.5824,86,3.398,65,8.7413,-1.878,-21.6487,-0.8241,1.6857,0.8098,51
2.971,57,7.3473,-3.0428,-24.4669,-0.8827,0.3909,-0.1827,86,3.45,66,9.9941,-4.3303,-19.5154,-0.5515,0.7517,-0.0804,51
3.022,58,9.5471,-3.3411,-22.3571,-0.9007,-0.3881,-0.8074,86,3.502,67,9.886,-8.4572,-22.2244,0.136,1.2336,-0.7301,51
3.074,59,6.3727,-3.6521,-13.7331,0.0192,-0.9566,-1.0062,86,3.554,68,6.9065,-8.4234,-22.8293,0.7739,1.5853,-0.2503,51
3.126,60,6.7745,-3.9004,-14.5196,0.519,-0.8269,-0.6399,86,3.606,69,6.711,-7.7848,-21.4403,0.1917,0.4902,0.4977,51
3.178,61,10.2101,-6.7621,-13.1269,0.8027,-1.2027,-0.4797,86,3.657,70,5.8141,-2.5417,-17.8215,-0.5372,0.0684,1.0436,51
3.229,62,12.7175,-6.7726,-14.3232,0.6877,-0.9418,-0.3201,86,3.709,71,8.2952,-0.1582,-15.0511,0.1894,-0.3491,0.9876,51
3.281,63,12.1593,-5.3081,-16.7908,0.5584,-0.0894,-0.1179,86,3.761,72,11.1715,-5.3171,-15.248,-0.0194,0.1145,1.3204,51
3.333,64,9.0165,-4.5374,-9.6706,0.1971,0.3576,0.0125,86,3.812,73,13.2707,-5.2253,-14.5276,-0.0869,-0.2067,0.9857,51
3.385,65,9.8953,-4.0813,-8.09,0.4868,0.9394,0.0911,86,3.864,74,12.0385,-2.9892,-14.4451,-0.3365,-0.4329,1.2547,51
3.437,66,10.1247,-2.5303,-9.2778,1.0318,1.3639,0.0599,86,3.916,75,11.2703,3.1005,-11.932,-0.0882,0.1752,0.4201,51
3.488,67,8.7514,-0.1807,-12.3747,0.6905,1.6738,0.2423,86,3.968,76,10.2501,5.1988,-11.0023,-0.7414,0.8128,-0.3648,51
3.54,68,9.5345,1.8532,-6.4475,-0.0306,0.6514,-0.4137,86,4.02,77,9.1269,2.2602,-14.5063,-1.2182,1.2782,-0.9377,51
3.592,69,11.3112,3.3317,-8.3442,0.3171,0.7425,-0.1952,86,4.071,78,10.694,-3.6472,-14.0116,-0.4974,1.0434,-0.4642,51
3.644,70,12.0563,1.9443,-11.4558,0.0839,1.2203,0.3666,86,4.123,79,8.2771,-2.2012,-18.2018,0.0362,1.1086,0.2915,51
3.696,71,8.5207,0.6912,-16.3658,-0.614,1.4677,0.5685,86,4.175,80,8.5433,-4.2644,-16.1037,-0.0674,0.9374,-0.4574,51
3.747,72,10.0389,-0.4031,-19.9494,-1.1234,0.3978,-0.2591,86,4.227,81,11.3526,-5.4053,-16.3906,0.3673,0.5109,-1.0052,51
3.799,73,9.5445,-0.7285,-15.476,-0.1433,-0.3831,-0.8631,86,4.279,82,9.4835,-9.2418,-17.9393,0.7422,0.2437,-1.3913,51
3.851,74,8.9706,-3.9114,-10.9252,0.3171,-0.6582,-0.9562,86,4.33,83,7.1847,-7.1933,-18.5233,1.2164,-0.4199,-0.3375,51
3.903,75,11.8129,-7.3063,-11.6604,0.4864,-0.6669,-0.5843,86,4.382,84,6.8953,-3.4982,-16.0179,1.1062,-0.882,0.434,51
3.955,76,13.8873,-4.3598,-14.7893,0.4856,-0.5943,-0.3863,86,4.434,85,7.7417,0.1049,-13.2853,1.1108,-0.8119,0.9132,51
4.007,77,14.8793,-3.229,-13.914,-0.13,0.2225,-0.0745,86,4.486,86,10.7675,5.3687,-14.2348,1.4185,-0.698,0.5856,51
4.058,78,12.1931,-4.324,-9.5111,0.0603,0.4884,-0.1739,86,4.537,87,12.9759,2.4932,-13.3513,1.3142,-0.5386,0.8972,51
4.11,79,11.5011,-5.1066,-6.217,-0.4698,1.0348,-0.0007,86,4.589,88,12.7004,0.4789,-15.8468,1.3979,-0.911,0.741,51
4.162,80,11.7234,-4.1761,-7.1095,0.2531,1.4336,0.1143,86,4.641,89,8.5958,3.4806,-12.1412,1.4581,-0.1676,0.3266,51
4.214,81,8.9732,-2.8534,-11.0044,0.8613,1.7247,-0.0579,86,4.693,90,8.8205,4.9143,-11.748,0.3871,0.5272,-0.4228,51
4.266,82,11.8148,3.2694,-5.4475,0.4079,0.5853,-0.2896,86,4.744,91,9.5592,3.6307,-13.8693,-0.3946,1.0575,-0.6207,51
4.317,83,11.2642,2.4739,-8.6633,0.0114,-0.1301,-0.8278,86,4.796,92,7.1153,1.3825,-18.1036,-0.965,1.4567,-0.6833,51
4.369,84,12.8042,2.9127,-10.7184,0.3724,0.5834,-0.0233,86,4.848,93,10.1746,6.3011,-10.605,-0.5387,1.1996,0.0598,51
4.421,85,12.7497,3.3774,-13.9722,0.3331,1.1042,0.6229,86,4.9,94,10.2139,2.0748,-10.7017,-0.4618,0.5905,0.2808,51
4.473,86,10.7063,4.7154,-18.2024,-0.4321,1.1061,0.8161,86,4.952,95,10.2676,-0.5722,-14.1916,-0.3413,0.7838,-0.4665,51
4.524,87,11.213,1.0963,-20.51,-0.7612,0.1339,-0.0784,86,5.004,96,8.8406,-5.7144,-18.3389,0.2982,1.257,-1.0119,51
4.576,88,10.4406,0.5128,-14.4256,0.121,-0.5757,-0.583,86,5.055,97,6.9236,-5.2147,-21.3657,0.8924,1.4935,-0.921,51
4.628,89,10.2183,-2.3625,-7.9953,-0.2741,-0.7837,-0.2472,86,5.107,98,5.1875,-4.3304,-19.5632,0.8468,0.5015,0.0081,51
4.68,90,12.7235,-2.6376,-8.6241,-0.5491,-0.8008,-0.1854,86,5.159,99,4.8536,0.6647,-15.2446,0.2517,-0.134,0.6863,51
4.732,91,14.5519,-2.2424,-9.5189,-0.3484,-0.5329,-0.2221,86,5.211,100,8.6597,5.1616,-8.5185,0.505,-0.1135,0.3729,51
4.784,92,14.844,-2.3664,-11.3344,-0.1178,-0.0666,-0.2571,86,5.263,101,11.4375,1.2104,-8.783,0.6014,-0.4764,0.6166,51
4.835,93,10.8747,0.345,-5.6883,-0.0958,0.4656,-0.0034,86,5.314,102,12.8912,-0.207,-10.8507,0.8704,-0.0357,0.0571,51
4.887,94,10.9738,-1.6096,-6.147,-0.0802,1.0182,0.3753,86,5.366,103,9.8629,0.5719,-12.9323,0.5641,-0.1087,0.2348,51
4.939,95,9.9738,-0.5502,-9.587,0.618,1.4215,0.5378,86,5.418,104,9.6464,5.4531,-11.8182,0.7582,0.6031,-0.3674,51
4.991,96,6.4786,-0.1305,-12.9301,1.1276,1.7158,0.3753,86,5.47,105,9.3693,5.1765,-13.0541,-0.1237,1.1251,-0.5233,51
5.043,97,-0.5958,-0.8429,-15.3803,0.2638,0.8114,0.1348,86,5.521,106,7.0058,1.2619,-17.5087,-0.7674,1.5061,-0.9935,51
5.094,98,4.8309,0.5113,-15.379,0.6173,0.9372,0.1506,86,5.573,107,9.2209,4.0122,-12.9321,-1.1933,1.3193,-0.0448,51
5.146,99,8.2107,0.5277,-17.5473,0.1531,1.3624,0.5224,86,5.625,108,8.0603,0.0424,-12.763,-0.7926,1.1406,0.5661,51
5.198,100,6.4538,0.9568,-20.8117,-0.5635,0.758,0.3853,86,5.677,109,7.1148,-1.8323,-13.3615,-1.0613,1.0912,-0.2536,51
5.25,101,7.6198,0.7035,-21.5323,-0.8088,-0.1202,-0.3928,86,5.729,110,8.6635,-3.1905,-14.5404,-0.6442,1.3506,-0.8565,51
5.302,102,8.5966,-0.8834,-15.9458,-0.2751,-0.7611,-0.919,86,5.78,111,7.9061,-7.6254,-14.5156,0.1628,0.4603,-1.2965,51
5.353,103,9.5903,-2.8434,-13.1505,-0.8472,-1.2287,-0.6774,86,5.832,112,5.9143,-6.4318,-17.7076,0.7935,0.0511,-0.3036,51
5.405,104,12.2652,1.0974,-12.689,-1.1402,-1.4089,-0.8136,86,5.884,113,9.4338,-5.9825,-10.7984,1.1107,-0.6295,0.4297,51
5.457,105,14.2174,4.8684,-14.4964,-0.9756,-1.2448,-0.4699,86,5.936,114,10.8502,0.9259,-12.6656,0.5689,-0.4057,0.8394,51
5.509,106,14.3203,3.6372,-16.6098,-0.0597,-0.4229,-0.4208,86,5.988,115,13.0363,-4.286,-13.3513,0.752,-0.4153,1.293,51
5.561,107,11.8765,5.9639,-10.8443,0.5475,0.1603,-0.5836,86,6.039,116,14.6317,-4.9904,-14.8986,0.2182,-0.7654,1.0934,51
5.612,108,10.6164,2.1043,-10.3527,0.7073,0.7954,-0.3816,86,6.091,117,11.452,-2.719,-17.0652,-0.0063,-0.5016,1.037,51
5.664,109,9.3365,0.2409,-9.9659,1.1781,1.2589,-0.2118,86,6.143,118,10.8079,2.9035,-14.7867,-0.1473,-0.0804,0.3763,51
5.716,110,6.2607,-0.0712,-12.8021,1.5364,1.5971,-0.057,86,6.195,119,10.9575,3.9323,-14.3094,-0.7846,0.6263,-0.0252,51
5.768,111,9.8351,-5.289,-17.3484,1.7033,0.4924,0.2316,86,6.246,120,9.128,2.2259,-15.6173,-1.2497,1.1421,-0.4931,51
5.82,112,11.8675,1.4918,-17.068,0.8817,0.6998,0.0555,86,6.298,121,6.1587,-3.6722,-19.3794,-1.3591,1.5185,-1.0313,51
5.871,113,13.5157,1.2921,-19.1966,0.9555,1.1891,0.4967,86,6.35,122,7.7395,-7.9503,-22.1251,-1.5358,0.4776,-0.6909,51
5.923,114,12.0011,-1.3794,-17.2824,0.0221,1.1697,0.6452,86,6.402,123,7.9812,-8.9132,-20.4161,-1.1046,-0.0357,-1.1511,51
5.975,115,10.7634,-3.4119,-20.0672,-0.6591,0.1803,0.0844,86,6.454,124,9.8098,-6.5501,-19.8868,-0.4151,0.5622,-1.5115,51
6.027,116,10.9997,-2.3606,-17.4441,-0.0274,-0.5418,-0.3224,86,6.506,125,8.3178,-10.0773,-22.4955,0.3702,1.0125,-1.7746,51
6.079,117,8.0176,-2.9065,-10.4727,-0.2113,-1.0688,-0.476,86,6.558,126,6.2707,-9.4662,-22.5396,0.9449,0.0722,-0.6148,51
6.13,118,11.1174,-4.8589,-8.1187,0.2045,-1.4515,0.0119,86,6.609,127,9.6488,-7.3564,-15.4909,1.0704,-0.6141,0.2316,51
6.182,119,13.3797,-1.629,-12.3389,-0.1093,-1.4308,0.2082,86,6.661,128,9.1357,-2.2801,-12.5364,1.4559,-0.8378,0.4031,51
6.234,120,13.9375,-2.159,-12.7755,0.2648,-0.3659,0.2712,86,6.713,129,11.785,3.628,-15.4389,1.7155,-0.8186,-0.3772,51
6.286,121,13.7257,-2.151,-11.5982,0.0708,0.0598,-0.0736,86,6.765,130,13.7185,0.7413,-13.2672,1.845,-0.3207,0.1084,51
6.338,122,11.1255,-5.495,-8.7053,-0.61,0.722,0.0916,86,6.817,131,13.0725,0.4086,-13.7167,1.587,-0.0213,-0.4498,51
6.389,123,11.1063,-6.7933,-8.4618,0.2313,1.2053,0.0411,86,6.868,132,11.1102,2.2978,-13.9133,1.3439,-0.5971,-0.3424,51
6.441,124,9.4924,-5.3169,-12.7005,0.8454,1.558,0.0468,86,6.92,133,8.6455,5.5092,-12.6538,0.7855,0.068,-0.721,51
6.493,125,8.0689,-4.0494,-14.8537,-0.0562,1.6299,0.3924,86,6.972,134,7.6106,4.8912,-12.5148,-0.1038,0.726,-0.8861,51
6.545,126,11.0916,-1.4299,-17.5854,-0.206,0.9793,0.1319,86,7.024,135,5.9219,1.3659,-16.0895,-0.7528,1.2148,-0.9363,51
6.596,127,11.8988,0.2918,-18.6558,0.0363,1.3931,0.3526,86,7.076,136,-1.1506,2.5749,-9.135,-0.2127,0.5577,-0.003,51
6.648,128,11.847,-2.3551,-17.56,-0.58,1.6951,0.7844,86,7.127,137,-0.9759,2.9882,-8.3886,-0.0745,0.7378,0.6777,51
6.7,129,10.0023,-2.9667,-20.8209,-1.0985,0.5638,0.0217,86,7.179,138,0.8909,0.7159,-10.2862,-0.1513,-0.1283,-0.1732,51
6.752,130,11.2633,-1.2046,-18.846,-0.2666,-0.2619,-0.5852,86,7.231,139,4.6393,0.3497,-10.7421,0.2027,-0.6921,-0.6752,51
6.804,131,9.503,-0.9014,-13.1073,0.085,-0.8646,-0.6566,86,7.283,140,6.4712,-0.4526,-13.0049,-0.4785,0.0884,-1.1642,51
6.856,132,8.2254,-2.021,-13.9057,-0.6132,-0.9662,-0.0749,86,7.334,141,3.032,-5.6174,-11.4767,-1.0263,0.4091,-1.2287,51
6.907,133,11.269,0.0875,-12.5034,-0.47,-1.2578,-0.6542,86,7.386,142,2.5178,-4.8627,-14.3319,-0.0744,-0.3626,-0.2164,51
6.959,134,13.4904,-0.9639,-11.4069,-1.0183,-1.2412,0.1617,86,7.438,143,3.8268,1.7432,-15.3565,0.6163,0.0835,0.4393,51
7.011,135,11.7534,0.703,-15.2368,-0.7638,-0.4963,0.4681,86,7.49,144,5.6055,5.0068,-18.1827,-0.053,-0.4114,0.9003,51
7.063,136,13.0496,-0.7545,-12.0203,0.1191,0.1491,0.4727,86,7.542,145,9.2085,2.7578,-18.0763,0.2348,-0.2686,0.8755,51
7.115,137,11.9423,-0.7961,-10.2861,0.114,0.7871,0.1857,86,7.593,146,10.6741,1.5339,-16.0559,0.1622,0.106,0.6875,51
7.166,138,11.6899,-1.9613,-11.257,0.6875,1.2528,0.1896,86,7.645,147,8.5952,3.057,-13.2662,-0.2224,0.347,0.8185,51
7.218,139,7.1208,-1.4204,-14.6833,1.1783,1.5927,-0.0292,86,7.697,148,8.8503,4.6086,-13.2862,-0.8394,0.8613,0.6793,51
7.27,140,6.7036,0.4488,-16.5124,0.6652,1.8408,0.0107,86,7.749,149,7.4482,5.2526,-12.8227,-1.2138,1.3136,0.1739,51
7.322,141,7.8726,4.7785,-15.0103,0.6595,0.7671,0.1229,86,7.801,150,5.2233,5.0661,-14.8195,-1.4005,1.6437,-0.2939,51
7.373,142,9.7752,4.0862,-16.2348,0.3902,1.2382,0.3306,86,7.852,151,8.8792,7.9451,-8.2082,-1.6972,0.5328,-0.2775,51
7.425,143,9.3255,2.1465,-15.0319,-0.3624,1.582,0.5773,86,7.904,152,8.292,5.8731,-7.5156,-1.1401,0.3748,-0.8658,51
7.477,144,8.0803,1.3058,-18.9758,-0.9397,0.4994,-0.179,86,7.956,153,7.2569,1.2708,-10.1389,-1.2764,0.0364,-0.99,51
7.529,145,9.4543,-0.1397,-18.9118,-0.8031,-0.3089,-0.803,86,8.008,154,7.6017,-2.472,-15.381,-0.2575,0.6404,-1.394,51
7.581,146,7.4133,-1.9476,-12.7646,-0.9687,-0.8988,-0.8004,86,8.06,155,4.7715,-4.9766,-16.6823,0.4867,-0.045,-1.0147,51
7.632,147,10.6763,-6.6585,-6.7321,-0.9249,-0.8088,-0.5901,86,8.111,156,5.4766,-2.8158,-19.5694,0.8236,-0.6996,-0.0603,51
7.684,148,11.3732,-0.7968,-12.0297,-0.9356,-1.2457,-1.0453,86,8.163,157,5.0136,1.7461,-14.7963,0.4548,-1.0887,0.6364,51
7.736,149,13.5612,0.6416,-12.8106,-0.499,-0.9748,-0.0852,86,8.215,158,8.7764,6.2651,-9.3639,1.0062,-1.008,0.5556,51
7.788,150,11.0927,-2.5988,-14.068,-0.3133,-0.1818,-0.127,86,8.267,159,11.5227,-0.7243,-11.8847,0.3976,-0.726,0.4326,51
7.84,151,9.9978,-5.0603,-9.5753,0.0298,0.5247,-0.2597,86,8.318,160,11.7604,-1.8644,-12.9311,0.7687,-0.3808,0.1143,51
7.891,152,10.232,-4.6903,-8.7564,0.6983,1.0613,-0.4802,86,8.37,161,10.6592,1.8805,-9.8199,0.9497,-0.0447,-0.153,51
7.943,153,7.7353,-4.627,-10.6477,1.1862,1.4529,-0.5869,86,8.422,162,11.8902,5.748,-10.301,0.0758,0.65,-0.7351,51
