right_leg_timestamp,right_leg_index,right_leg_accel_x,right_leg_accel_y,right_leg_accel_z,right_leg_gyro_x,right_leg_gyro_y,right_leg_gyro_z,right_leg_battery_percentage,left_leg_timestamp,left_leg_index,left_leg_accel_x,left_leg_accel_y,left_leg_accel_z,left_leg_gyro_x,left_leg_gyro_y,left_leg_gyro_z,left_leg_battery_percentage
0.032,0,10.3111,-0.4108,-13.9029,0.1306,-0.6061,0.194,91,0.046,0,8.8671,1.0403,-10.7595,0.1104,-0.1395,0.19,61
0.084,1,12.7912,0.5889,-12.5546,-0.1502,0.1138,0.0403,91,0.098,1,8.6744,1.2977,-9.8409,0.2728,-0.3344,0.4078,61
0.136,2,10.2867,-0.1076,-10.9451,-0.6454,0.7581,0.0102,91,0.151,2,8.4087,1.0212,-10.8632,0.1744,-0.6401,0.5382,61
0.188,3,9.2801,-0.4938,-9.9306,-0.5845,0.6818,0.0064,91,0.202,3,8.251,0.6063,-11.6138,0.0841,-0.7234,0.6263,61
0.239,4,6.4906,0.5946,-8.2739,-1.0443,0.9608,0.0913,91,0.254,4,8.9629,-0.1478,-12.6373,0.1253,-0.6426,0.5926,61
0.291,5,5.189,-0.1263,-9.7204,-1.1021,0.8742,0.1822,91,0.306,5,9.7575,-1.0457,-13.8367,0.1637,0.0233,-0.0078,61
0.343,6,9.0529,5.146,-9.6634,-0.1278,-0.0353,-0.1984,91,0.358,6,12.2387,-2.7693,-10.2554,0.7215,0.005,-0.447,61
0.395,7,11.7459,8.2736,-11.3503,0.0277,-0.5785,-0.4336,91,0.41,7,8.0121,-5.4074,-15.466,-0.112,0.1219,-0.1408,61
0.446,8,11.7296,5.8268,-13.9255,-0.0613,-0.3707,-0.0566,91,0.461,8,7.2238,-5.0231,-15.7633,0.1034,-0.5778,0.5776,61
0.498,9,13.8265,4.572,-13.753,-0.3557,0.4078,-0.1743,91,0.513,9,6.1552,-2.2581,-13.0336,-0.5972,-1.0885,1.0305,61
0.55,10,11.676,2.9476,-16.1581,-0.5096,0.976,-0.3135,91,0.565,10,5.3361,-1.8863,-10.5505,-1.0545,-0.9522,0.9388,61
0.602,11,7.8053,0.8102,-19.5752,0.2418,0.0389,-0.6414,91,0.617,11,5.4986,-1.0977,-8.1798,-0.1963,-0.7455,0.6586,61
0.654,12,10.3147,1.0172,-16.9058,0.853,-0.645,-0.4838,91,0.668,12,9.1304,-0.0289,-7.4888,-0.2032,-1.2109,0.4246,61
0.706,13,6.2888,0.7061,-9.7545,0.8995,-1.0627,-0.3151,91,0.72,13,11.781,-0.8489,-8.0812,0.1759,-0.8823,0.0865,61
0.758,14,6.2998,1.1675,-8.1121,0.633,-0.0972,-0.2161,91,0.772,14,11.937,0.2259,-9.1887,0.5503,-0.4505,-0.0198,61
0.809,15,7.2915,-0.2875,-8.1543,0.11,-0.4061,0.1373,91,0.824,15,8.9212,4.5042,-8.7186,0.3193,-0.137,-0.626,61
0.861,16,10.5874,-0.7607,-10.4818,0.1113,-0.6853,-0.0726,91,0.876,16,9.8495,3.2702,-8.2214,-0.1564,0.585,-1.1252,61
0.913,17,11.5166,-1.1804,-10.343,-0.5559,0.1782,-0.1113,91,0.927,17,7.526,1.5957,-10.4698,0.5448,1.1119,-1.4781,61
0.965,18,7.4018,-1.3938,-9.8074,-0.2618,0.639,-0.1999,91,0.979,18,6.0311,-0.073,-15.0365,-0.2795,1.0625,-1.2828,61
1.017,19,7.7297,-1.9847,-8.1539,-0.523,0.8291,-0.1772,91,1.031,19,3.8005,-5.3501,-18.9555,0.0654,0.2991,-0.4153,61
1.068,20,7.4921,-3.5079,-8.4504,-0.1116,1.2835,0.0234,91,1.083,20,7.8911,-1.0697,-14.5092,0.4008,-0.2772,-0.3533,61
1.12,21,5.7574,-2.9223,-13.6782,0.5951,1.6151,0.0104,91,1.134,21,6.9816,-1.5823,-16.6207,0.6802,0.4789,-0.6785,61
1.172,22,3.9709,-2.8432,-17.9878,0.3851,1.0943,-0.1892,91,1.186,22,10.2128,-2.1265,-13.4869,0.8763,1.0345,-1.1666,61
1.223,23,8.1639,-3.4461,-18.9497,0.0788,0.844,0.0633,91,1.238,23,4.6136,-6.8488,-17.8245,0.8235,1.44,-0.7023,61
1.275,24,3.3318,-1.7457,-18.2486,0.0863,0.5872,0.0978,91,1.29,24,8.2689,-6.191,-19.1785,0.4997,0.3842,0.1678,61
1.327,25,7.6974,0.1776,-16.3128,-0.6014,1.1069,0.2671,91,1.342,25,4.2876,-1.8631,-11.931,0.2287,-0.3864,0.8004,61
1.379,26,10.1377,1.6853,-19.9107,-1.1116,0.1439,-0.2401,91,1.393,26,5.4684,0.4505,-8.433,-0.499,-0.3252,0.6689,61
1.431,27,7.1216,-0.8702,-22.0914,-1.2723,-0.5684,-0.6771,91,1.445,27,4.6434,-3.5431,-14.1359,0.2813,-0.5874,0.2939,61
1.482,28,8.1507,-1.5392,-17.0443,-0.7349,-1.0882,-0.8477,91,1.497,28,8.5063,-1.4088,-13.63,-0.4716,-0.4061,0.6338,61
1.534,29,3.1432,-0.2448,-11.1776,0.1402,-1.3294,-0.7097,91,1.549,29,11.3255,-2.117,-11.9677,0.1019,-0.911,0.3931,61
1.586,30,-0.3133,2.7475,-16.1628,0.7291,-1.3628,-0.7265,91,1.601,30,10.3406,-0.9159,-12.0168,0.4641,-0.4012,0.3507,61
1.638,31,5.0371,0.8428,-14.4637,-0.1423,-1.6168,-0.1741,91,1.652,31,8.2315,2.1634,-6.4346,-0.0368,0.0513,-0.0654,61
1.69,32,8.942,0.2739,-16.5499,-0.2153,-1.6216,-0.3096,91,1.704,32,8.4287,3.3412,-6.8083,-0.3241,0.7224,-0.6095,61
1.741,33,11.792,0.7669,-14.2065,-0.2308,-0.5052,-0.3635,91,1.756,33,7.7321,2.6397,-9.272,-0.409,1.2122,-0.9706,61
1.793,34,7.3289,0.7904,-12.6942,0.045,0.2546,-0.3061,91,1.808,34,5.5905,0.8027,-13.9669,-0.9755,1.2252,-1.1032,61
1.845,35,6.9095,0.2091,-10.1206,-0.6424,0.6931,-0.259,91,1.86,35,4.4158,-4.1382,-18.1749,-0.7846,1.123,-0.9911,61
1.897,36,6.4261,-1.1093,-9.3247,-0.6542,1.1842,-0.1064,91,1.911,36,8.3401,-3.3697,-13.9028,-0.3207,0.3895,-0.7476,61
1.949,37,6.8173,-2.2187,-11.385,0.1018,1.5426,0.2642,91,1.963,37,7.1028,-4.0931,-15.7563,0.2677,0.7449,-0.9082,61
2.001,38,3.0226,0.265,-14.7399,0.7508,1.6013,-0.0846,91,2.015,38,10.3012,-1.838,-13.0488,0.2186,1.2286,-1.0065,61
2.053,39,7.4718,-1.2463,-8.1738,1.179,0.4953,0.2361,91,2.067,39,6.7574,-6.6383,-17.5048,0.6327,1.5586,-0.9818,61
2.104,40,9.8167,0.0168,-11.6111,0.6804,0.2322,0.3005,91,2.118,40,8.8515,-4.8626,-19.1376,0.7878,0.4707,-0.0362,61
2.156,41,12.4304,1.1591,-11.7814,0.2246,0.8425,0.2149,91,2.17,41,8.9643,-3.3851,-15.329,0.4353,-0.3232,0.6539,61
2.208,42,7.1459,-2.1691,-13.903,-0.4498,1.2932,-0.0738,91,2.222,42,6.8085,-1.6789,-10.6357,-0.1833,-0.8012,0.6353,61
2.26,43,4.927,-4.6338,-15.4365,-0.6635,0.3068,-0.1384,91,2.274,43,6.3355,-4.92,-15.6832,0.1103,-0.2238,0.6694,61
2.312,44,7.7241,-3.3935,-14.9058,-0.3224,-0.4495,-0.1621,91,2.326,44,9.7412,-0.2898,-15.7132,-0.1833,0.2398,0.4489,61
2.363,45,6.6523,-2.7688,-10.7162,0.4412,-1.0015,-0.0009,91,2.377,45,12.2268,-1.1737,-16.5884,0.3391,-0.4093,0.3115,61
2.415,46,6.7376,-0.135,-5.2371,0.3914,-0.799,0.0819,91,2.429,46,12.0322,-1.3305,-15.1714,0.8579,0.3742,-0.0198,61
2.467,47,10.1832,-2.6588,-6.4816,0.2502,-0.2427,0.5428,91,2.481,47,7.2464,1.6198,-12.4928,-0.0291,0.858,0.0626,61
2.519,48,12.6979,-0.9944,-10.5463,0.2365,-0.647,0.458,91,2.533,48,7.468,2.3052,-10.3865,0.6534,1.3111,-0.5655,61
2.571,49,12.4239,-1.471,-9.7741,-0.2773,0.2062,0.1782,91,2.585,49,7.3807,1.7593,-10.8969,1.1516,1.6419,-1.0383,61
2.622,50,11.0581,-2.2974,-11.2037,-0.366,0.4481,0.0705,91,2.636,50,6.485,0.9871,-12.4751,0.2794,1.7212,-1.1996,61
2.674,51,9.6784,-2.3719,-7.7847,-0.4888,0.8116,0.2647,91,2.688,51,4.0796,-4.5764,-17.0861,0.4825,1.8782,-0.6856,61
2.726,52,8.1676,-1.1314,-6.1224,-0.4322,1.2707,0.2605,91,2.74,52,8.0948,-3.0922,-16.2437,0.9898,0.9443,-0.9663,61
2.778,53,8.0969,-1.2966,-8.7453,-0.5028,1.6057,0.4594,91,2.791,53,5.3661,-2.2435,-17.1327,1.3014,1.0633,-1.058,61
2.83,54,5.5312,-0.7536,-14.3876,0.283,1.8476,0.4065,91,2.843,54,9.0337,-2.4641,-14.0708,1.2604,1.461,-1.4085,61
2.881,55,9.3027,4.8019,-7.9166,0.8831,0.675,0.3319,91,2.895,55,7.7828,-7.0952,-18.2507,1.5245,1.5983,-0.9988,61
2.933,56,11.6994,4.9194,-11.7077,0.7887,0.8303,0.1896,91,2.947,56,9.615,-6.6554,-21.3013,0.9096,0.4997,-0.0486,61
2.985,57,13.8045,5.2415,-12.9544,0.2157,1.2838,0.2624,91,2.999,57,8.8195,-4.8547,-15.2758,-0.0132,-0.3021,0.576,61
3.037,58,13.1582,2.8182,-9.8075,-0.5178,1.5547,0.092,91,3.051,58,7.7867,-3.0317,-10.7462,0.0183,-0.588,0.3245,61
3.089,59,10.0488,-1.8828,-13.7955,-1.0531,0.6776,-0.1024,91,3.102,59,8.8582,-3.6139,-7.9228,0.6881,-0.3509,0.1463,61
3.14,60,12.5998,-1.2149,-12.484,-0.6443,-0.1789,-0.4288,91,3.154,60,11.5824,2.6546,-7.3634,-0.1018,-0.7159,-0.1204,61
3.192,61,3.8717,-1.5759,-7.1764,0.2063,-0.7157,-0.4981,91,3.206,61,13.5706,1.2941,-10.1464,0.4611,-0.8038,-0.0277,61
3.244,62,5.4426,-2.8252,-2.7764,0.8271,-0.2134,-0.5408,91,3.258,62,13.132,-0.1624,-9.661,0.9006,0.0534,-0.1038,61
3.296,63,9.238,-0.7002,-4.0945,-0.0184,0.1885,0.2668,91,3.309,63,9.4256,2.6076,-10.5717,0.0256,0.4404,0.0725,61
3.348,64,12.008,-0.5972,-7.6292,0.1608,-0.0981,0.486,91,3.361,64,7.2454,2.5687,-8.9311,0.4874,1.0064,-0.4841,61
3.399,65,14.0297,-1.2801,-8.285,-0.2909,0.5104,0.1552,91,3.413,65,8.2541,2.8526,-10.3121,0.7804,1.4195,-1.0247,61
3.451,66,11.0276,-2.08,-9.4492,-0.7106,0.9332,0.0122,91,3.465,66,6.8063,1.7765,-13.6318,0.1292,1.5389,-1.4188,61
3.503,67,11.7166,-1.416,-5.3659,-0.2013,0.9811,0.0772,91,3.517,67,4.9775,-1.8113,-16.1299,-0.5828,1.2636,-1.0236,61
3.555,68,11.0904,-1.1128,-5.5481,-0.3874,1.2475,0.1567,91,3.568,68,7.2984,3.882,-9.1646,-1.0747,0.2555,-0.3149,61
3.607,69,9.3172,-1.5408,-6.4386,-0.8568,1.5888,0.2101,91,3.62,69,7.5381,1.1143,-12.0076,-0.5608,0.3004,-0.3951,61
3.658,70,7.6984,-2.3159,-10.2285,0.0512,1.8379,0.3393,91,3.672,70,8.6255,1.4369,-12.9204,-0.0619,0.9042,-0.7257,61
3.71,71,4.9895,0.6857,-15.4208,0.709,1.615,0.0945,91,3.724,71,11.4125,4.354,-16.698,-0.0767,1.3449,-0.5586,61
3.762,72,8.9073,-0.5847,-19.2597,0.8647,0.8506,-0.038,91,3.775,72,8.3422,5.1052,-18.9595,0.0612,0.3171,0.0402,61
3.814,73,6.4795,0.8722,-18.5232,0.4285,0.6065,0.2207,91,3.827,73,8.9419,4.1091,-16.3883,0.1083,-0.4354,0.7097,61
3.866,74,9.9948,-0.6052,-14.1376,-0.3625,1.121,0.0728,91,3.879,74,5.5201,3.5302,-12.1212,0.4271,-0.9846,0.8474,61
3.917,75,8.9303,1.4374,-18.3231,-0.4699,0.5683,-0.0762,91,3.931,75,5.6293,1.1311,-11.4439,-0.006,-0.8439,0.7387,61
3.969,76,9.2076,1.2906,-19.0806,0.1554,-0.2586,-0.3749,91,3.983,76,9.2258,5.8934,-9.3269,-0.1845,-0.7804,0.3316,61
4.021,77,8.9958,1.0105,-15.8876,0.467,-0.8621,-0.2681,91,4.034,77,11.8507,2.4522,-11.4473,-0.2691,-0.8222,0.4505,61
4.073,78,5.6114,2.7047,-9.0114,0.9978,-1.2132,-0.163,91,4.086,78,13.7665,2.1533,-10.7174,0.3949,-0.2995,0.1196,61
4.125,79,8.1874,0.457,-3.9928,0.7048,-1.5588,0.2327,91,4.138,79,11.7091,2.2803,-12.0379,0.2676,0.0837,0.2228,61
4.176,80,11.2413,0.8246,-7.9115,0.6805,-1.2842,0.1074,91,4.19,80,9.9072,2.6247,-8.0574,0.4784,0.6678,-0.2611,61
4.228,81,13.4701,0.4957,-9.0424,0.0983,-0.2605,0.0798,91,4.241,81,9.3847,2.2727,-7.8826,1.0239,1.1724,-0.8032,61
4.28,82,12.0344,-0.9066,-10.0607,-0.4828,0.2392,0.0515,91,4.293,82,8.0908,2.7256,-10.3604,0.1586,1.474,-1.2418,61
4.332,83,9.7728,-0.6843,-7.2885,-0.8735,0.6818,0.1951,91,4.345,83,5.3657,-1.9903,-13.7496,-0.5613,1.398,-0.9646,61
4.384,84,8.443,-0.4549,-6.0788,-0.5911,1.176,0.1506,91,4.397,84,9.0334,3.8396,-9.2684,-0.0823,0.3539,-0.7485,61
4.435,85,7.7481,-3.4009,-7.7333,-0.4483,1.5366,0.4947,91,4.449,85,11.1532,2.5443,-12.4666,-0.0705,0.1192,-0.5534,61
4.487,86,4.6701,-0.8644,-13.5192,0.1407,1.7999,0.4536,91,4.501,86,13.2574,2.6969,-12.2851,0.3906,0.7719,-0.9753,61
4.539,87,8.6742,4.4777,-15.9373,0.7792,0.6559,0.2939,91,4.552,87,11.7922,-3.3285,-16.9474,0.9583,1.2483,-0.75,61
4.59,88,11.5966,6.9196,-19.179,0.809,0.1567,-0.1055,91,4.604,88,11.9073,-1.9931,-18.8333,1.0189,0.2443,0.133,61
4.642,89,13.7294,6.6851,-18.4779,0.0645,0.6852,0.0752,91,4.656,89,11.5539,-1.4741,-15.821,0.425,-0.4885,0.7774,61
4.694,90,9.5837,2.3739,-16.8245,-0.6282,1.1785,-0.1631,91,4.708,90,8.8186,-0.4172,-12.0239,-0.1197,-1.0152,0.8739,61
4.746,91,8.4286,-1.5267,-16.9933,-1.1337,0.2997,-0.3378,91,4.76,91,8.7913,1.0668,-8.1582,0.0197,-1.0308,0.7778,61
4.798,92,11.4173,-0.2783,-15.8904,-0.4307,-0.4547,-0.7703,91,4.811,92,11.5336,0.4075,-5.4322,0.6002,-1.2699,0.4953,61
4.849,93,3.6782,-0.5517,-9.8137,0.3622,-0.9438,-0.7486,91,4.863,93,13.535,-0.6369,-8.9517,0.7718,-1.1243,0.351,61
4.901,94,2.2814,-2.2443,-6.3641,0.9348,-0.6782,-0.748,91,4.915,94,14.0426,-0.6066,-8.6949,0.9793,-0.1653,0.1442,61
4.953,95,6.9308,-0.895,-6.2984,0.5902,-0.1441,-0.1615,91,4.967,95,11.6375,-0.995,-10.282,0.4837,0.2792,0.4786,61
5.005,96,10.3241,0.4101,-10.3573,0.6447,-0.477,-0.0255,91,5.018,96,10.433,2.8587,-6.3389,0.3899,0.7393,-0.1127,61
5.057,97,12.8008,-0.0609,-10.2254,0.0932,0.2378,-0.0515,91,5.07,97,9.7843,2.1841,-6.2793,0.9021,1.2245,-0.5928,61
5.109,98,11.785,-1.3219,-9.8639,-0.4793,0.5616,-0.1523,91,5.122,98,8.9326,3.6054,-9.5556,1.0967,1.5787,-1.0923,61
5.16,99,11.544,-0.9822,-4.615,0.0185,0.5327,0.0554,91,5.174,99,3.7681,-0.7355,-14.3879,0.1233,1.6374,-1.1306,61
5.212,100,10.1719,-0.8627,-4.7291,0.4475,1.0672,-0.0249,91,5.226,100,7.8674,2.1129,-17.2149,0.4268,1.2194,-1.0148,61
5.264,101,9.7129,-1.341,-6.2511,-0.0849,1.4572,0.0276,91,5.277,101,7.2709,0.1551,-18.0122,0.3433,0.4998,-0.8523,61
5.316,102,7.077,-0.9216,-11.434,0.1878,1.7419,0.1155,91,5.329,102,10.4239,-0.2403,-17.398,0.9252,1.0493,-1.1638,61
5.367,103,5.5774,-0.0909,-16.2578,0.8134,1.1316,-0.0079,91,5.381,103,12.4312,3.107,-17.932,0.5272,1.4508,-1.343,61
5.419,104,8.0833,-0.0626,-17.0007,0.1152,0.5043,0.2127,91,5.433,104,5.5203,4.771,-19.9882,0.9454,0.5585,-0.3633,61
5.471,105,3.6564,1.3856,-16.2953,-0.2613,1.0464,0.6156,91,5.484,105,6.7171,3.1013,-17.6559,0.3413,-0.2592,0.4152,61
5.523,106,7.9344,1.4824,-13.5494,-0.8517,1.4421,0.3161,91,5.536,106,2.2733,2.9284,-10.9336,0.2289,-0.8268,0.6115,61
5.575,107,6.0214,2.1809,-16.7336,-1.2278,0.9077,0.202,91,5.588,107,3.7655,2.7599,-7.5944,0.3218,-0.5202,0.4172,61
5.626,108,9.6604,2.0026,-17.97,-0.4328,-0.0109,-0.1524,91,5.64,108,7.8655,7.3065,-6.571,0.067,-0.379,-0.0532,61
5.678,109,8.0974,1.7509,-14.2869,0.1622,-0.6813,-0.2138,91,5.692,109,10.8579,3.2663,-8.7912,0.1704,-0.6419,0.1596,61
5.73,110,7.2273,1.5424,-8.4978,0.5115,-0.9785,-0.0425,91,5.743,110,13.0419,2.2054,-9.1018,0.4743,-0.7689,-0.1051,61
5.782,111,4.6547,0.4686,-14.207,0.8722,-0.579,-0.1346,91,5.795,111,11.7878,1.9877,-10.7004,0.5493,-0.0965,0.019,61
5.834,112,8.663,-0.9138,-13.1932,1.0106,-0.8436,-0.1983,91,5.847,112,11.2285,3.4756,-7.5407,0.2973,-0.1434,-0.1765,61
5.885,113,11.5884,-0.1781,-15.8112,0.3739,-0.9552,-0.2811,91,5.899,113,9.8652,3.8111,-6.4565,0.5511,0.5637,-0.5879,61
5.937,114,11.8911,-2.4752,-14.2014,-0.2074,-0.1296,-0.3496,91,5.951,114,9.2357,3.7763,-7.9762,0.3281,1.0964,-0.9822,61
5.989,115,9.3568,-1.0829,-10.7676,0.1174,0.5797,-0.3307,91,6.002,115,5.8139,1.2948,-13.4453,-0.4376,1.3944,-1.0877,61
6.041,116,9.1019,-2.0051,-9.1909,-0.5895,1.1014,-0.0165,91,6.054,116,9.3605,-2.7165,-8.2456,-0.9964,0.3509,-0.1637,61
6.092,117,8.9424,-1.3705,-8.9209,-0.6217,1.4822,0.194,91,6.106,117,9.1425,-2.4772,-10.1618,-1.0364,0.22,0.097,61
6.144,118,7.4502,-0.8749,-12.7144,-0.2825,1.7601,0.4861,91,6.158,118,10.8991,-2.8105,-11.5468,-0.4457,0.4879,-0.3315,61
6.196,119,4.5454,0.0086,-16.143,0.461,1.5651,0.3607,91,6.21,119,13.0719,-0.9384,-10.1431,0.1154,1.041,-0.7483,61
6.248,120,8.5832,5.3582,-12.1247,1.013,0.4689,-0.2707,91,6.261,120,9.7407,-5.9817,-15.3841,0.4176,1.4227,-0.4532,61
6.3,121,11.5302,7.906,-16.854,0.6936,-0.3312,-0.5787,91,6.313,121,10.5645,-4.0988,-15.31,0.7428,0.3716,0.3355,61
6.352,122,13.681,7.8477,-14.0576,0.327,0.2055,-0.5272,91,6.365,122,9.4594,-2.5051,-12.7758,0.3156,-0.3956,0.9252,61
6.403,123,7.7202,1.0733,-18.2647,-0.3293,-0.208,-0.8305,91,6.417,123,7.5755,-0.1165,-8.8358,-0.0141,-0.8244,0.7789,61
6.455,124,5.4578,-1.3345,-20.7286,-0.3356,-0.8252,-0.98,91,6.469,124,6.6099,-1.4305,-8.2489,0.1814,-0.6462,0.7947,61
6.507,125,7.7259,-1.1706,-17.1761,0.3086,-1.2757,-0.8573,91,6.52,125,9.9415,1.372,-10.8528,-0.1514,-0.5386,0.7064,61
6.559,126,3.699,-0.4766,-10.7513,0.8644,-1.6044,-0.6132,91,6.572,126,12.373,0.7915,-12.5383,0.516,-0.9376,0.4204,61
6.611,127,5.028,-0.5283,-8.677,0.9451,-0.8123,-0.4701,91,6.624,127,11.081,1.1238,-11.117,0.9017,0.0007,0.201,61
6.662,128,8.9354,0.6134,-11.1867,0.2485,0.0855,0.1254,91,6.676,128,6.4085,1.8328,-12.0785,0.6032,0.3754,0.2847,61
6.714,129,11.7872,1.1661,-14.7106,0.0279,-0.3355,0.2078,91,6.728,129,4.6867,3.3503,-9.798,0.3407,0.8131,-0.202,61
6.766,130,12.1712,0.7307,-13.3013,-0.1803,0.4335,0.1276,91,6.779,130,5.5533,3.4531,-9.9242,0.9233,1.2784,-0.7115,61
6.818,131,10.2028,-0.2192,-13.3771,0.0436,0.9504,-0.0012,91,6.831,131,4.9874,3.4489,-11.8751,-0.0032,1.618,-1.1907,61
6.869,132,9.0127,-0.009,-9.2563,-0.6434,1.2464,0.0655,91,6.883,132,2.3862,-2.7796,-16.6482,0.4807,1.2742,-0.8168,61
6.921,133,8.5603,0.3555,-7.9591,-0.4852,1.588,0.0349,91,6.935,133,6.8588,-3.83,-19.623,0.9482,0.8094,-0.3549,61
6.973,134,8.9403,-1.9733,-9.8569,-0.1997,1.8374,0.3407,91,6.987,134,4.7584,-5.1171,-20.0849,0.9737,0.839,-0.5681,61
7.025,135,3.5442,0.6508,-13.3069,0.5308,2.0193,0.1074,91,7.038,135,8.5902,-3.5899,-16.7851,1.1809,1.2973,-0.7973,61
7.077,136,7.8525,1.6468,-8.7757,1.0308,0.8004,-0.097,91,7.09,136,11.3868,-5.5529,-20.2317,0.3792,1.2957,-0.4265,61
7.129,137,9.841,1.8591,-10.7353,0.9159,0.9865,0.112,91,7.142,137,11.3771,-1.3963,-20.3111,0.7415,0.2789,0.3517,61
7.18,138,12.4481,2.8033,-10.6808,-0.0068,1.3984,0.1541,91,7.194,138,10.7864,-0.8651,-17.1426,0.0284,-0.4633,0.937,61
7.232,139,8.6835,3.09,-15.8002,-0.6184,0.6464,-0.446,91,7.246,139,5.7926,0.1076,-11.7372,-0.3194,-1.0049,0.9315,61
7.284,140,6.4595,0.0262,-19.3151,-0.689,-0.2017,-0.6905,91,7.297,140,5.2918,-2.6072,-12.2206,0.3221,-0.8171,0.7678,61
7.336,141,8.1621,-0.8882,-15.3659,0.0241,-0.8206,-0.5878,91,7.349,141,8.9795,-0.2223,-12.4742,-0.3498,-0.4275,0.9474,61
7.388,142,2.8379,0.3087,-10.3673,0.5997,-1.2711,-0.2357,91,7.401,142,11.6709,-1.3626,-14.6482,0.0918,-0.8962,0.589,61
7.439,143,3.5113,-0.5909,-13.269,0.8378,-0.8807,-0.1983,91,7.453,143,10.8451,-0.228,-13.0932,0.6062,0.0309,0.1894,61
7.491,144,7.8285,-2.1687,-13.4778,0.4423,-0.5976,0.101,91,7.505,144,6.6498,0.6896,-12.4843,-0.1166,0.347,0.3103,61
7.543,145,10.9793,-0.4159,-15.9058,0.1348,-0.9123,0.0677,91,7.557,145,5.2959,1.9952,-9.8058,-0.3673,0.8956,-0.0419,61
7.595,146,12.4639,-0.7531,-13.0745,-0.2849,0.0125,0.0219,91,7.608,146,6.0662,2.2621,-9.3848,0.038,1.3386,-0.3927,61
7.647,147,11.1376,-1.2623,-12.0115,0.386,0.607,-0.2348,91,7.66,147,4.6859,1.3442,-12.3196,-0.3581,1.6619,-0.8144,61
7.698,148,9.8214,-1.321,-8.9566,-0.3935,1.1079,-0.1215,91,7.712,148,2.9207,-4.3158,-16.9725,-0.5869,0.8892,-0.4791,61
7.75,149,9.3783,-1.8836,-8.6292,-0.4148,1.487,-0.0684,91,7.764,149,7.249,-5.9617,-20.3685,-0.1969,0.2674,0.1183,61
7.802,150,9.1579,-3.5828,-10.4957,0.0186,1.7636,0.2281,91,7.816,150,8.1281,-5.6323,-19.0321,-0.0071,0.2403,-0.0644,61
7.854,151,6.2485,-1.9585,-15.6651,0.6901,1.9655,0.0844,91,7.867,151,11.0495,-4.3168,-17.0979,0.1025,0.8603,-0.4573,61
7.906,152,-0.1034,-6.6664,-19.438,1.0269,1.3764,-0.4564,91,7.919,152,12.9957,-2.5543,-17.0508,0.0272,1.2366,-0.6626,61
7.958,153,5.1874,-3.1666,-22.1916,0.499,0.3315,-0.758,91,7.971,153,10.496,0.6474,-18.4404,0.5711,0.2357,0.1427,61
8.01,154,9.0517,1.3455,-20.2533,-0.1049,0.7402,-0.5978,91,8.023,154,11.3688,0.1921,-16.6496,0.3696,-0.4947,0.7845,61
8.061,155,5.5091,-2.7199,-18.301,-0.7518,1.2185,-0.3213,91,8.074,155,5.813,1.8443,-10.306,0.1934,-1.0074,0.8367,61
8.113,156,4.0665,-5.4105,-19.8936,-0.9653,0.216,-0.5477,91,8.126,156,7.6969,1.4308,-6.378,-0.1988,-0.7442,0.6687,61
8.165,157,7.3628,-4.3179,-17.2621,-0.028,-0.5158,-0.5276,91,8.178,157,10.7348,6.3364,-4.828,0.1505,-0.4014,-0.0634,61
8.216,158,5.907,-3.1382,-12.9216,0.4659,-1.0498,-0.109,91,8.23,158,12.952,3.139,-8.9187,0.5467,-0.8305,0.0581,61
8.269,159,7.5284,-1.9734,-9.0517,0.4021,-1.0275,0.2459,91,8.282,159,12.7016,2.1288,-8.4325,0.8255,0.0788,-0.2203,61
8.32,160,10.7603,1.0152,-8.9614,-0.3817,-0.7358,0.5259,91,8.333,160,9.7454,1.3408,-9.4225,0.5939,0.5654,0.0057,61
8.372,161,13.1191,1.0376,-10.6179,0.1353,-1.0745,0.2127,91,8.385,161,11.2443,2.8231,-4.8178,0.2383,0.9516,-0.1072,61
8.424,162,14.435,3.0491,-11.1167,0.2126,-0.1183,0.2678,91,8.437,162,10.5397,2.7199,-5.3109,0.8458,1.3795,-0.3929,61
8.476,163,13.9231,-0.3101,-12.8899,0.5795,0.1451,0.0083,91,8.488,163,7.5187,3.8057,-9.5607,0.0712,1.6918,-0.8536,61
8.528,164,9.212,0.5532,-9.8665,0.4268,0.7255,-0.1955,91,8.54,164,4.535,-0.7761,-14.959,-0.2635,1.7773,-0.6952,61
8.579,165,8.5311,0.2293,-8.9996,0.0789,1.2078,-0.2433,91,8.592,165,8.4272,-4.2399,-18.8989,0.4824,1.1323,-0.4919,61
8.631,166,8.3747,-0.6373,-9.3424,-0.127,1.5599,-0.218,91,8.644,166,5.7515,-4.997,-19.887,0.5537,0.9403,-0.5987,61
8.683,167,6.4571,-0.6375,-12.7217,0.5761,1.726,-0.3419,91,8.696,167,8.9754,-4.2505,-19.1914,1.0515,1.3712,-0.8444,61
8.734,168,8.2626,-0.0925,-17.2897,1.097,0.7451,-0.5046,91,8.747,168,9.6368,-0.247,-20.7558,0.7286,1.6857,-0.7065,61
8.786,169,11.2475,5.263,-20.6237,1.0886,-0.0804,-0.7807,91,8.799,169,4.8258,1.7191,-22.1212,1.2065,0.7075,-0.2596,61
8.838,170,13.4747,5.7455,-19.1606,0.5774,0.2531,-0.4621,91,8.851,170,6.7159,1.5085,-18.8793,1.0897,-0.1504,0.4839,61
8.89,171,10.43,1.309,-18.3939,-0.2538,0.8631,-0.2791,91,8.903,171,3.1802,1.9569,-13.9963,0.5746,-0.7766,0.7218,61
8.942,172,7.9667,-3.4906,-18.6515,-0.8605,0.1368,-0.173,91,8.955,172,4.0782,1.6709,-10.8196,-0.2577,-0.9908,0.614,61
8.993,173,10.0745,-2.558,-16.7937,-0.3553,-0.5736,-0.245,91,9.006,173,8.0937,6.5117,-11.5561,-0.052,-0.2917,0.1635,61
9.045,174,6.6361,-2.0644,-12.7734,0.4172,-1.092,-0.2216,91,9.058,174,11.0244,3.0504,-14.0552,0.087,-0.549,0.2833,61
9.097,175,7.8369,-1.472,-8.9677,0.5466,-0.9438,-0.0757,91,9.11,175,12.0574,2.4939,-12.8954,0.5194,0.2136,-0.1048,61
9.149,176,10.9854,1.2115,-3.961,-0.2334,-1.3262,0.4683,91,9.162,176,9.8729,1.7873,-13.3558,0.6556,0.6211,0.0518,61
9.201,177,13.2834,1.4796,-6.5529,0.386,-1.4397,0.2583,91,9.214,177,10.9035,3.2467,-8.6133,0.4073,0.2273,-0.1482,61
9.252,178,14.9606,2.4559,-9.3302,0.034,-0.888,0.1037,91,9.265,178,9.1172,3.8457,-7.5311,0.1641,0.6938,-0.364,61
9.305,179,15.0944,-0.0494,-9.7637,-0.3185,-0.2842,-0.1229,91,9.317,179,8.1764,2.6806,-8.6465,-0.077,1.1913,-0.6796,61
9.356,180,12.0087,0.6766,-7.7762,0.1941,0.2382,-0.2618,91,9.369,180,4.9206,0.2343,-12.2838,-0.7332,1.5544,-0.8746,61
9.408,181,11.1441,-0.166,-7.144,-0.0261,0.835,-0.1475,91,9.421,181,5.7222,4.2902,-8.6671,-1.2122,0.4677,-0.0634,61
9.46,182,10.0047,-0.5397,-7.8684,0.0879,1.2878,-0.1851,91,9.472,182,2.8557,3.7297,-10.547,-0.7398,0.5647,-0.0881,61
9.512,183,8.5901,-2.1705,-10.9233,0.7407,1.6182,-0.0725,91,9.524,183,6.8966,2.4289,-12.1522,-0.2481,0.9244,-0.5709,61
9.564,184,6.4398,-0.917,-14.0018,0.9596,1.3461,-0.0093,91,9.576,184,10.1507,3.5671,-9.6267,0.3971,1.3596,-0.9872,61
9.615,185,9.9658,3.7846,-7.6351,0.8188,0.3091,-0.152,91,9.628,185,2.4693,1.0736,-13.5979,0.7818,1.2957,-0.7179,61
9.667,186,7.1417,4.0798,-9.7262,0.9552,0.8193,-0.0074,91,9.68,186,4.3777,0.6233,-14.7881,0.6634,0.2788,0.1564,61
9.719,187,10.478,3.5128,-10.0071,0.022,1.2763,0.0001,91,9.731,187,3.1888,1.1939,-10.4958,0.6074,-0.4633,0.698,61
9.771,188,8.3822,4.1612,-15.3085,-0.4437,0.4281,-0.3664,91,9.783,188,2.4199,2.6543,-6.1922,0.0201,-0.6057,0.6892,61
9.823,189,5.3537,0.425,-18.983,-0.2269,-0.361,-0.6698,91,9.835,189,6.8834,4.831,-1.9116,-0.5693,-1.0269,0.6023,61
9.874,190,6.6903,0.135,-15.0178,0.1189,-0.9368,-0.3574,91,9.887,190,10.1411,3.583,-5.2626,-0.7607,-0.7529,0.5104,61
9.926,191,3.8863,0.0503,-10.8843,0.6411,-1.3571,-0.0195,91,9.938,191,12.5187,2.4408,-7.6619,-0.2343,-1.0361,0.1254,61
9.978,192,5.6814,1.5958,-6.5631,0.3857,-0.8797,0.1543,91,9.99,192,12.0995,1.9707,-8.2366,0.3029,-0.0712,-0.028,61
10.03,193,9.4123,-0.0017,-4.8014,0.0106,-0.812,0.5604,91,10.042,193,7.3258,2.3108,-8.7046,0.0759,0.2042,0.068,61
10.082,194,12.1352,1.5733,-9.8763,-0.3459,-1.2595,0.4941,91,10.094,194,5.8743,2.7618,-7.3223,0.4937,0.8302,-0.2787,61
10.133,195,10.9174,1.0419,-9.494,-0.6609,-0.2409,0.3026,91,10.146,195,6.0961,2.455,-7.8906,1.0118,1.2908,-0.6361,61
10.185,196,9.1853,-0.1846,-10.4594,0.1942,0.2616,-0.1356,91,10.197,196,4.6502,1.7969,-11.5408,0.0614,1.5659,-0.9725,61
10.237,197,8.1835,-0.0571,-8.0963,-0.5335,0.6987,-0.1551,91,10.249,197,2.3943,-3.9853,-16.4041,0.4283,0.9407,-0.2485,61
10.288,198,8.7799,-0.76,-7.5926,-0.4322,1.1883,-0.1036,91,10.301,198,6.8648,-7.6112,-14.9118,0.5446,0.3586,0.3242,61
10.34,199,8.7119,-1.0921,-9.3677,-0.3514,1.5456,0.0688,91,10.353,199,8.5365,-7.95,-15.582,0.2498,0.0664,0.1735,61
10.392,200,6.0903,-0.3681,-14.8178,0.4201,1.7704,-0.0557,91,10.405,200,11.3476,-5.983,-14.3661,0.6801,0.7334,-0.4814,61
10.444,201,7.5152,-5.5057,-15.7669,0.5707,1.4487,-0.1695,91,10.457,201,12.2341,-1.5347,-18.4662,0.3503,1.2202,-0.5749,61
10.496,202,0.1608,-6.698,-18.0064,-0.0871,1.7357,-0.1983,91,10.508,202,8.0662,-0.0007,-19.8406,0.6192,0.2747,0.1403,61
10.548,203,3.9506,-2.6028,-19.0767,0.2945,1.9451,0.0931,91,10.56,203,9.3167,0.0106,-16.7164,0.3525,-0.4663,0.7672,61
10.6,204,6.4291,-1.9725,-17.221,-0.3831,2.098,0.1566,91,10.612,204,4.0708,1.0583,-11.7082,0.258,-1.0071,0.9369,61
10.652,205,5.7106,-3.013,-19.649,-0.9548,0.8578,-0.0532,91,10.664,205,3.9539,0.0388,-10.2521,-0.0591,-0.898,0.8394,61
10.703,206,7.8459,-4.1059,-19.2559,-0.0218,-0.0473,-0.3748,91,10.715,206,8.003,0.2424,-10.343,-0.2212,-0.722,0.7516,61
10.755,207,6.8364,-1.2173,-14.3109,0.6607,-0.7079,-0.1652,91,10.767,207,10.9582,-2.144,-12.6902,0.1906,-1.1731,0.4958,61
10.807,208,8.8583,-1.3709,-9.2317,0.463,-0.6531,-0.2235,91,10.819,208,12.155,-1.2297,-12.2427,0.6572,-0.2488,0.1637,61
10.859,209,11.7309,-0.1223,-7.8259,-0.3373,-0.4257,0.3924,91,10.871,209,9.6792,0.7795,-10.4364,-0.0838,0.0693,0.3605,61
10.911,210,13.8275,2.1977,-12.7303,-0.1526,-0.8921,0.3125,91,10.923,210,8.7831,2.5405,-7.5342,-0.1635,0.6529,0.0436,61
10.962,211,10.9819,0.3167,-13.3757,0.1781,0.0272,-0.103,91,10.974,211,9.5927,3.1292,-7.4859,-0.1525,1.1615,-0.4503,61
11.014,212,10.8866,0.7569,-9.9579,-0.0567,0.6982,-0.2132,91,11.026,212,8.2865,3.3218,-11.7803,-0.7883,1.5327,-1.0001,61
11.066,213,9.7979,-0.3781,-8.5625,-0.7166,1.1879,-0.1582,91,11.078,213,2.3694,-2.8724,-16.579,-0.4213,0.819,-0.3761,61
11.118,214,9.8145,-1.3349,-9.3275,0.1528,1.375,-0.0764,91,11.13,214,6.8466,-5.3579,-18.2822,0.1477,0.9334,0.016,61
11.17,215,8.4099,-3.0753,-11.0921,0.7667,1.6819,0.0975,91,11.181,215,8.8838,-4.4115,-17.4443,0.5043,0.7235,-0.3721,61
11.221,216,4.969,-1.3281,-14.1538,0.5108,1.9058,0.0515,91,11.233,216,11.6011,-2.355,-15.1664,1.036,1.213,-0.6827,61
11.273,217,8.8924,-4.5696,-7.746,0.973,0.7403,0.1219,91,11.285,217,13.5843,-3.4594,-19.0503,0.8547,1.4863,-0.3502,61
11.325,218,6.2661,-2.9985,-9.4692,0.3543,1.0361,0.2443,91,11.337,218,13.6887,-1.8343,-20.1725,1.053,0.418,0.4248,61
11.377,219,9.839,-1.0298,-9.0919,-0.4166,1.4345,0.2279,91,11.389,219,13.9957,-1.7299,-16.5076,0.1811,-0.3617,0.9903,61
11.429,220,7.5613,-1.1528,-14.6405,-0.4627,0.6738,-0.3827,91,11.44,220,7.1349,2.0706,-10.4008,0.5816,-0.9308,1.2981,61
11.48,221,7.1452,-2.6016,-18.6902,-0.4817,-0.1816,-0.622,91,11.492,221,5.7005,-0.9148,-15.5722,0.0238,-0.0782,0.7433,61
11.532,222,7.9501,-2.0787,-15.1625,0.325,-0.806,-0.5461,91,11.544,222,9.2778,0.5649,-13.7462,0.1968,0.1627,0.8164,61
11.584,223,5.6481,-0.2838,-11.4196,0.4047,-1.2616,-0.2442,91,11.596,223,11.8886,-1.2847,-15.8111,0.2888,0.083,0.317,61
11.636,224,6.121,-0.6038,-13.626,0.149,-1.2093,-0.2211,91,11.648,224,11.3057,-0.3279,-14.3651,0.5389,0.7455,-0.0333,61
11.688,225,9.7331,-1.7882,-8.8486,-0.228,-1.1317,0.2406,91,11.699,225,8.7404,-0.3432,-15.1496,0.4367,0.8695,0.1418,61
11.739,226,12.3694,0.4355,-12.6315,-0.2649,-1.1981,0.1479,91,11.751,226,9.1834,1.709,-11.2315,-0.3377,0.5267,-0.0057,61
11.791,227,14.2935,0.4997,-12.8034,-0.4174,-0.6932,0.1247,91,11.803,227,8.5827,2.1459,-9.556,-0.2251,1.0403,-0.3739,61
11.843,228,12.5344,-0.7492,-11.8936,-0.5147,0.1713,-0.1258,91,11.855,228,7.6068,2.033,-9.8777,-0.0953,1.4442,-0.806,61
11.895,229,10.4763,-0.3433,-10.3873,-0.1212,0.4961,-0.1027,91,11.907,229,5.3394,-0.0546,-15.17,-0.7466,1.6986,-1.037,61
11.946,230,9.4338,-1.1839,-9.2267,-0.373,0.8418,-0.0116,91,11.958,230,9.0142,5.2523,-8.464,-0.2008,0.5729,-0.6741,61
11.998,231,8.9348,-1.0408,-9.0113,-0.0865,1.2818,-0.1082,91,12.01,231,1.9958,4.8062,-11.1444,-0.143,1.0224,-0.4987,61
12.05,232,8.0394,-1.6294,-11.5029,0.6134,1.6123,-0.1873,91,12.062,232,6.5739,2.7069,-12.4496,0.2754,1.1759,-0.7081,61
12.102,233,5.4194,-0.7607,-13.1466,1.1242,1.5321,-0.2908,91,12.114,233,9.3857,4.3629,-9.4665,0.2876,1.5432,-1.0304,61
12.154,234,9.2211,-3.2929,-7.2383,0.5237,0.4448,0.1731,91,12.166,234,3.4094,-0.2471,-14.8903,0.6677,1.8113,-0.8995,61
12.205,235,11.0685,-2.3903,-11.4352,0.583,0.3665,-0.136,91,12.217,235,4.7891,-0.8553,-17.0447,0.4747,0.6551,0.0238,61
12.257,236,13.344,-1.4245,-9.3361,-0.2444,0.9458,-0.1374,91,12.269,236,4.4673,-0.0272,-11.7597,0.5501,-0.1886,0.3978,61
12.309,237,11.022,0.2484,-14.8188,-0.8536,0.5939,-0.2533,91,12.321,237,2.43,1.3522,-7.3506,0.6973,-0.4778,0.2668,61
12.361,238,9.676,-0.7342,-18.8203,-0.3954,-0.24,-0.6478,91,12.372,238,6.8908,6.279,-7.9218,0.039,-0.6351,0.3323,61
12.413,239,10.4277,-1.3087,-15.4256,-0.1693,-0.8485,-0.3192,91,12.424,239,10.1465,2.1881,-10.0963,-0.2722,-0.6384,0.3595,61
12.464,240,8.4005,-1.2559,-10.5545,0.553,-1.2904,0.0716,91,12.476,240,12.5227,1.6281,-12.0227,0.2824,-0.8111,-0.073,61
12.516,241,9.2267,0.6826,-5.1312,0.8006,-0.9415,0.2233,91,12.528,241,11.4712,1.8298,-11.3106,0.6617,0.093,-0.2102,61
12.568,242,11.9998,5.8501,-1.1609,1.0191,-1.3606,0.3398,91,12.58,242,7.1413,2.6087,-12.4314,0.1008,0.2976,-0.0399,61
12.62,243,13.5957,2.8913,-6.2487,0.5603,-1.0377,0.4202,91,12.631,243,6.0416,2.4883,-10.5216,0.6528,0.8754,-0.2612,61
12.672,244,13.0833,2.3873,-7.5076,-0.2339,-0.079,0.1899,91,12.683,244,5.4399,2.5035,-9.9541,1.0772,1.3238,-0.5625,61
12.724,245,11.556,0.1273,-10.3363,0.2879,0.2845,-0.0404,91,12.735,245,3.0933,1.3836,-13.1195,0.1091,1.6145,-0.6885,61
12.775,246,8.2858,0.5505,-7.7322,-0.4651,0.7258,0.1199,91,12.787,246,7.375,-4.287,-13.2345,-0.5974,0.5115,0.0979,61
12.827,247,7.949,0.1796,-7.3522,-0.2689,1.2081,0.0911,91,12.838,247,10.4999,-8.4256,-9.0647,-0.3766,-0.0131,0.4375,61
12.879,248,7.5248,-0.5028,-9.23,-0.3354,1.5601,0.206,91,12.89,248,10.7721,-5.7973,-10.9896,-0.2546,-0.0705,-0.029,61
12.931,249,5.6361,0.8485,-12.9667,0.4112,1.817,0.0958,91,12.942,249,12.9792,-5.2938,-11.5537,0.1071,0.6335,-0.4731,61
12.982,250,6.7261,-1.6993,-12.1938,0.8115,1.5029,-0.2092,91,12.994,250,14.5901,-1.9224,-11.6528,0.0602,1.1473,-0.6303,61
13.034,251,1.6181,3.318,-6.3155,0.8762,1.6652,-0.4851,91,13.046,251,9.8477,0.9602,-14.1145,0.4312,0.2169,0.0834,61
13.086,252,6.4467,3.7765,-10.2499,0.8565,1.8092,-0.2994,91,13.097,252,10.0412,0.0671,-13.8305,0.3324,-0.5085,0.7412,61
13.138,253,8.5448,1.8437,-11.1804,0.0348,1.9988,-0.0767,91,13.149,253,6.5875,1.1003,-9.2613,0.1094,-1.0379,1.057,61
13.19,254,8.4894,0.5342,-16.1649,-0.6498,0.7854,-0.2891,91,13.201,254,6.9394,-1.762,-10.8487,-0.5972,-0.6737,0.9604,61
13.241,255,10.4893,-1.6693,-14.1201,0.2022,-0.1002,-0.3959,91,13.253,255,10.182,4.0061,-7.5661,0.0419,-0.7085,0.0606,61
13.293,256,7.4222,-0.0194,-8.8575,0.8241,-0.7465,-0.1312,91,13.305,256,12.5485,-0.9747,-9.5426,0.0526,-1.0747,0.2804,61
13.345,257,9.0095,-1.7857,-8.5442,0.8847,-0.4304,-0.1776,91,13.357,257,13.5235,-1.1437,-7.9916,0.4214,-0.1672,0.0235,61
13.397,258,11.8413,0.8457,-8.2956,-0.0295,-0.5445,0.2045,91,13.408,258,10.3868,-0.1118,-7.2824,-0.2866,0.0853,0.3638,61
13.449,259,13.908,1.4882,-12.2209,-0.0659,-0.8595,0.3381,91,13.46,259,9.8526,0.9922,-6.4521,-0.2973,0.6424,-0.1705,61
13.5,260,13.147,0.2092,-10.4786,-0.1079,0.051,0.0038,91,13.512,260,10.1174,2.3467,-8.7277,0.1973,1.1538,-0.7203,61
13.552,261,10.7125,1.0572,-7.0615,-0.0927,0.7156,-0.2461,91,13.564,261,7.1517,2.0596,-13.0966,-0.5331,1.527,-1.1525,61
13.604,262,10.0889,-0.7822,-6.7331,-0.7429,1.1861,-0.1867,91,13.616,262,5.1568,-3.7936,-17.5397,0.0366,1.7995,-0.9519,61
13.656,263,9.6,-1.7656,-7.9626,0.1344,1.5416,-0.1882,91,13.668,263,8.881,-6.5967,-15.6911,-0.2681,0.8592,-0.0148,61
13.708,264,8.033,-2.2015,-9.6435,0.7746,1.7553,-0.3083,91,13.719,264,8.1181,-5.1902,-15.6138,0.2611,0.7716,-0.4351,61
13.76,265,6.2404,-1.2313,-14.2446,0.9575,1.7527,-0.4327,91,13.771,265,11.0423,-2.3171,-14.227,0.8459,1.2481,-0.6979,61
13.811,266,9.8202,-2.3999,-7.8123,0.5735,0.6826,0.1787,91,13.823,266,12.8954,-6.9879,-18.3647,1.0105,1.5855,-0.5,61
13.863,267,12.433,-2.3642,-12.0702,0.179,0.5888,0.3784,91,13.875,267,12.0912,-2.2983,-18.4778,1.4122,0.4904,0.3143,61
13.915,268,14.3399,-1.515,-10.6503,-0.5322,1.1081,0.2643,91,13.927,268,12.273,-1.5561,-16.615,0.3536,-0.3089,0.9097,61
13.967,269,11.9876,-0.5096,-15.7779,-1.0338,0.6168,-0.2082,91,13.979,269,7.3133,-0.3523,-12.67,0.1825,-0.8922,1.3043,61
14.019,270,9.8499,-3.2571,-19.5203,-1.2241,-0.2232,-0.472,91,14.03,270,4.4217,1.2884,-6.6394,0.0425,-0.8948,1.1251,61
14.07,271,9.8041,-3.9601,-17.3331,-0.8708,-0.8363,-0.2654,91,14.082,271,8.3444,6.2325,-2.5088,0.2017,-0.306,0.4876,61
14.122,272,7.9073,-2.751,-12.966,-0.3189,-1.2838,-0.0413,91,14.134,272,11.2074,2.7131,-7.6856,0.1945,-0.3922,0.279,61
14.174,273,8.2536,-1.6773,-6.8791,-0.0629,-0.8995,-0.0702,91,14.186,273,13.1948,1.8235,-8.0955,0.3946,0.3987,-0.254,61
14.226,274,11.2896,0.9428,-3.4863,-0.686,-1.3275,0.4631,91,14.238,274,10.5293,0.4866,-10.7804,0.4806,0.8324,-0.0699,61
14.278,275,13.5054,-1.1857,-6.6652,-0.269,-1.0463,0.4412,91,14.289,275,10.6749,1.1982,-7.8754,0.0567,0.8709,-0.319,61
14.329,276,15.1226,0.6706,-7.6364,-0.4376,-0.1847,0.2228,91,14.341,276,9.1075,2.902,-7.1942,0.3158,1.224,-0.4788,61
14.381,277,13.7611,-2.2373,-8.0415,-0.5806,0.4887,-0.1211,91,14.393,277,8.1674,3.3849,-9.1144,0.0825,1.5783,-0.883,61
14.433,278,12.7771,-1.8871,-7.1787,-0.1458,0.5992,-0.1766,91,14.445,278,5.8718,-0.5248,-14.6333,-0.6169,1.5906,-0.8476,61
14.485,279,11.1822,-2.2547,-6.4204,-0.298,0.8701,-0.1006,91,14.497,279,9.4028,-0.0547,-8.0723,-1.1273,0.4941,-0.0046,61
14.537,280,9.9532,-1.9904,-7.0676,-0.6388,1.3134,-0.0689,91,14.548,280,3.9145,3.3061,-10.1132,-1.1017,0.8429,0.0893,61
14.588,281,8.5842,-3.1122,-11.724,0.128,1.6369,0.2669,91,14.6,281,7.9742,0.9649,-11.8118,-0.4817,0.9807,-0.3888,61
14.64,282,3.8994,0.2817,-15.2272,0.77,1.5425,0.0316,91,14.652,282,10.189,1.1238,-10.0452,0.2422,1.4007,-0.9552,61
14.692,283,8.1117,2.7623,-8.5294,1.1345,0.4616,-0.2108,91,14.704,283,7.7337,-4.4766,-15.3126,0.5488,1.5572,-0.5661,61
14.744,284,7.8816,2.6398,-10.9542,0.9764,0.9054,-0.0194,91,14.756,284,7.0401,-3.0353,-16.3701,0.7784,0.4697,0.2672,61
14.796,285,11.0181,4.3423,-9.0706,0.1745,1.3269,0.1636,91,14.807,285,6.4955,-0.4815,-13.0884,0.6336,-0.324,0.8754,61
14.847,286,9.6636,1.3893,-13.3016,-0.5479,0.7102,0.0282,91,14.859,286,3.229,1.6606,-8.7704,0.463,-0.6864,0.7512,61
14.899,287,10.1376,-1.0499,-17.713,-0.9637,-0.1551,-0.0639,91,14.911,287,6.3937,-0.9771,-13.2505,0.2481,-1.0392,1.0753,61
14.951,288,9.2411,-3.3146,-13.57,-0.1815,-0.7866,-0.1417,91,14.963,288,9.7837,2.9468,-13.9885,0.068,-0.7705,0.8717,61
15.003,289,8.5774,-2.309,-9.55,-0.1869,-0.8107,0.1654,91,15.015,289,12.2579,0.6683,-14.0101,0.4418,-0.4233,0.2792,61
15.055,290,8.8881,-0.3542,-6.5273,0.1295,-0.5459,0.0077,91,15.066,290,11.937,3.4418,-13.9296,0.4374,0.2882,-0.009,61
15.107,291,11.7527,-1.0628,-7.394,0.503,-0.058,0.4413,91,15.118,291,6.8224,4.4843,-13.2689,-0.0046,0.4554,0.0448,61
15.158,292,13.8434,-0.8032,-11.1899,0.0425,-0.422,0.4065,91,15.17,292,5.5911,3.6975,-11.7777,-0.1807,0.9435,-0.1911,61
15.21,293,13.8967,-0.3972,-9.9168,-0.5098,0.3703,0.1403,91,15.221,293,5.1113,4.0194,-11.078,0.277,1.3609,-0.3122,61
15.262,294,13.3386,-2.4608,-11.5455,-0.1413,0.7322,-0.081,91,15.273,294,3.8405,3.0548,-13.4005,-0.3987,1.3977,-0.465,61
15.314,295,8.4946,-1.2977,-8.5608,-0.7392,1.1102,-0.0311,91,15.325,295,2.212,-3.0673,-17.7615,0.0458,1.5482,-0.394,61
15.365,296,8.2537,-1.5156,-8.4468,-0.895,1.4886,0.0072,91,15.377,296,6.7317,-0.1913,-19.7385,0.6915,0.6662,-0.0368,61
15.417,297,6.9509,-1.6088,-10.1285,-0.9249,1.7648,0.1471,91,15.429,297,5.1385,-0.1796,-20.1761,0.3332,0.6427,-0.0492,61
15.469,298,6.1436,-1.0993,-11.519,-0.2275,1.9664,0.4134,91,15.48,298,8.0474,-0.9826,-18.8516,0.1838,1.1512,-0.509,61
15.521,299,3.7137,-0.7931,-15.6015,0.5099,1.9213,0.3492,91,15.532,299,10.9907,1.0653,-13.9605,0.6593,1.5252,-1.0429,61
15.573,300,7.9762,-5.8158,-19.3915,-0.0314,0.742,0.3785,91,15.584,300,2.7588,-1.3513,-17.3971,0.9693,1.6233,-0.7577,61
15.624,301,8.2798,-1.5073,-19.0653,0.0029,0.6186,0.3365,91,15.636,301,3.2097,0.0803,-16.7925,1.0514,0.518,0.1273,61
15.676,302,11.3087,-0.7839,-20.4581,-0.6121,0.6855,0.3162,91,15.688,302,3.2894,0.0628,-13.593,0.7316,-0.2888,0.6774,61
15.728,303,9.669,-0.1107,-22.9361,-1.0574,-0.1731,-0.194,91,15.739,303,0.5174,2.7433,-9.1533,-0.0982,-0.7939,0.6366,61
15.78,304,10.855,-2.9787,-19.7944,-0.2239,-0.7997,-0.5058,91,15.791,304,-2.1571,-3.2946,-14.6616,0.5792,-0.2502,1.0323,61
15.832,305,10.4819,-2.3116,-16.9333,0.5131,-1.2571,-0.2934,91,15.843,305,3.543,-1.7349,-12.7256,-0.2081,-0.0537,1.2588,61
15.883,306,7.8348,-2.4788,-9.7746,-0.1887,-1.5164,-0.4353,91,15.895,306,7.7031,-3.1201,-13.6743,0.1974,-0.2799,0.6903,61
15.935,307,9.9462,0.5126,-9.6273,0.0549,-0.5597,-0.6631,91,15.946,307,7.2685,-1.33,-12.2851,0.8188,0.4807,0.338,61
15.987,308,11.2169,1.8128,-13.4603,-0.1615,-0.5898,-0.1364,91,15.998,308,4.9932,0.8035,-12.1335,-0.0094,0.283,0.4893,61
16.039,309,13.4523,1.9159,-11.4613,-0.7023,0.2478,0.0442,91,16.05,309,5.0635,0.9235,-9.9577,0.2156,0.7015,0.0235,61
16.091,310,9.423,0.0152,-9.5719,-0.0951,0.7328,-0.0128,91,16.102,310,5.0139,2.7293,-10.1172,0.1616,1.1969,-0.3789,61
16.142,311,8.3178,0.4378,-6.0869,-0.7355,1.1967,0.1263,91,16.154,311,2.6021,-0.5837,-15.3652,-0.5591,1.5585,-0.8706,61
16.194,312,7.6378,-0.1438,-7.3943,-0.3594,1.5518,0.1127,91,16.206,312,7.0164,2.7929,-16.7221,0.1379,1.4625,-0.4751,61
16.246,313,6.5283,-0.5646,-9.3764,0.2244,1.8109,0.1889,91,16.257,313,6.5966,0.2092,-16.8081,-0.2871,1.3407,-0.519,61
16.298,314,5.6159,-3.8765,-14.8482,0.8403,1.3408,0.0691,91,16.309,314,9.9318,0.7456,-16.1633,0.4195,1.6584,-0.7173,61
16.35,315,9.3645,-6.1366,-8.2528,0.0865,1.319,0.7259,91,16.361,315,8.6254,0.7249,-19.0314,0.7795,1.8954,-0.8687,61
16.402,316,2.2866,-4.9063,-10.8276,-0.0571,1.641,0.9116,91,16.413,316,7.9107,0.9712,-19.4837,1.1924,0.7165,0.0152,61
16.453,317,6.5881,-3.4095,-13.5626,-0.1454,1.8761,0.4386,91,16.464,317,7.8903,1.6931,-15.5326,0.4535,-0.1438,0.6761,61
16.505,318,5.6011,-2.6991,-14.5333,-0.5748,0.6958,0.3768,91,16.516,318,4.6668,0.015,-12.0917,0.4504,-0.6595,0.6394,61
16.557,319,9.0823,-0.537,-13.4947,-0.8402,-0.1655,0.3514,91,16.568,319,4.0948,2.393,-13.1407,0.4664,-0.5038,0.8877,61
16.609,320,10.9826,-1.0388,-7.265,-0.5308,-0.5991,0.0841,91,16.62,320,8.1058,-0.8238,-14.867,0.0292,-0.0373,0.9865,61
16.66,321,11.7448,1.7625,-10.3253,0.0472,-0.8652,-0.3176,91,16.672,321,11.0333,-0.9462,-14.7104,0.3688,-0.3662,0.5576,61
16.712,322,11.998,1.0135,-11.0314,0.0818,-0.6459,-0.2804,91,16.723,322,2.6208,0.2944,-13.3243,-0.2475,0.3122,0.2936,61
16.764,323,11.8952,0.461,-10.259,-0.1159,-0.1653,-0.032,91,16.775,323,3.6819,1.0789,-10.7641,-0.4779,0.9128,-0.0181,61
16.816,324,11.0057,-0.4426,-10.1787,0.0465,0.087,0.015,91,16.827,324,2.1422,-3.0788,-15.8373,-0.6227,0.8095,-0.1102,61
16.868,325,10.5436,0.0258,-9.7129,0.0991,0.1814,0.028,91,16.879,325,6.6808,-2.6998,-13.0355,-0.5417,0.5694,-0.0786,61
16.919,326,10.26,-0.6205,-9.8115,0.0542,0.2009,0.0733,91,16.93,326,7.2863,-1.4606,-13.9636,-0.3521,0.3591,0.0001,61
16.971,327,10.0292,-0.9234,-9.9134,0.1005,0.2057,0.0266,91,16.982,327,7.6314,-1.4468,-13.7119,-0.0967,0.5386,-0.1068,61
17.023,328,10.1707,-0.7456,-9.7926,-0.0072,0.2709,0.0041,91,17.034,328,7.7305,-0.4388,-12.6821,0.0048,0.4968,-0.0762,61
