right_leg_timestamp,right_leg_index,right_leg_accel_x,right_leg_accel_y,right_leg_accel_z,right_leg_gyro_x,right_leg_gyro_y,right_leg_gyro_z,right_leg_battery_percentage,left_leg_timestamp,left_leg_index,left_leg_accel_x,left_leg_accel_y,left_leg_accel_z,left_leg_gyro_x,left_leg_gyro_y,left_leg_gyro_z,left_leg_battery_percentage
0.242,4,10.5576,-1.778,-12.177,0.4163,0.0243,0.8746,87,0.012,0,9.2481,1.655,-9.8199,-1.3053,-0.745,0.5021,51
0.294,5,10.226,-1.7241,-12.1339,0.3295,0.0493,0.7622,87,0.064,1,8.6303,1.5299,-11.2308,-1.6298,-1.1464,0.7992,51
0.346,6,10.0261,-1.8733,-12.0437,0.1653,0.0732,0.6924,87,0.116,2,7.9776,1.2492,-10.5633,-1.8665,-1.3254,0.7539,51
0.398,7,9.8202,-2.1267,-12.0501,0.0226,0.1645,0.5982,87,0.168,3,8.299,0.9038,-8.814,-2.0394,-0.8858,0.5226,51
0.449,8,9.3798,-2.2417,-12.0295,-0.0786,0.2515,0.4872,87,0.219,4,9.8079,0.3292,-8.886,-1.4812,-0.4967,0.2689,51
0.501,9,9.5337,-2.3906,-11.9468,-0.1619,0.1498,0.3552,87,0.271,5,9.5687,0.5589,-9.4032,-0.9761,-0.3082,0.0483,51
0.553,10,9.3796,-2.4933,-12.0133,-0.2984,0.2787,0.1453,87,0.323,6,9.159,1.2725,-9.264,-0.7424,-0.1933,-0.0391,51
0.605,11,9.0295,-1.383,-13.732,-0.7825,0.2543,0.2398,87,0.375,7,9.1862,1.4931,-9.4433,-0.7204,-0.1945,-0.1245,51
0.657,12,10.9319,-0.9592,-13.5754,-1.2463,0.8639,0.75,87,0.427,8,9.5087,1.0524,-9.879,-0.5606,-0.1028,-0.1582,51
0.708,13,12.4981,-2.6519,-13.7744,-1.5848,0.5093,1.1112,87,0.478,9,9.4455,1.5198,-9.9877,-0.4082,0.0384,-0.1497,51
0.76,14,11.344,-3.1758,-12.8319,-1.8319,0.0621,0.9083,87,0.53,10,9.2063,1.5101,-9.7625,-0.3148,0.187,-0.0931,51
0.812,15,8.372,-3.9574,-12.4188,-1.5236,0.4757,1.0571,87,0.582,11,8.8724,1.5116,-9.387,-0.4222,0.1874,-0.0918,51
0.864,16,9.9176,-4.5934,-12.0706,-0.6516,0.7486,0.5534,87,0.634,12,8.7145,1.5419,-9.0263,-0.5034,0.0174,-0.0507,51
0.916,17,9.5946,-4.2249,-12.529,-0.5287,0.3477,0.5059,87,0.685,13,8.5453,1.488,-9.0561,-0.5674,-0.2316,0.0952,51
0.967,18,9.4227,-3.4298,-12.5235,-0.356,0.2274,0.4096,87,0.737,14,9.0749,1.711,-9.0169,-0.3874,-0.5393,0.2744,51
1.019,19,9.3982,-3.1814,-12.4925,-0.2556,0.1903,0.4047,87,0.789,15,9.3416,1.0394,-9.4944,-0.9598,-0.6183,0.3757,51
1.071,20,9.2522,-3.0095,-12.6157,-0.215,0.1536,0.3778,87,0.841,16,8.0545,2.2808,-9.6817,-1.3776,-0.219,0.1482,51
1.123,21,9.088,-3.0198,-12.5341,-0.1956,0.0887,0.3838,87,0.893,17,10.9958,-3.6322,-7.4102,-1.2557,-0.3778,0.2859,51
1.175,22,8.8909,-3.4099,-12.402,-0.1667,0.0023,0.3575,87,0.944,18,10.6402,-2.0742,-7.4832,-1.2344,-0.2423,0.0375,51
1.226,23,9.1129,-3.2113,-12.5147,-0.2853,-0.1171,0.1831,87,0.996,19,9.7348,-0.611,-8.587,-0.4112,-0.0851,-0.0024,51
1.278,24,10.5673,-3.7269,-13.45,-0.6345,0.2146,-0.1405,87,1.048,20,9.3541,-0.3261,-8.6294,-0.5218,-0.1376,-0.0494,51
1.33,25,12.2392,0.0837,-14.6285,-0.8978,0.1698,-0.7497,87,1.1,21,9.1934,-0.203,-7.9989,-0.1703,-0.4914,-0.0459,51
1.382,26,13.6021,2.0887,-14.8524,-0.8943,0.1637,-1.2212,87,1.152,22,8.6371,0.2935,-7.8428,0.0216,-0.9294,0.0745,51
1.434,27,13.7629,1.4364,-14.372,-1.1618,0.2621,-1.5653,87,1.203,23,9.7896,0.006,-9.3495,-0.0212,-1.0474,0.2586,51
1.485,28,10.9972,0.6255,-12.4311,-1.1491,0.2821,-1.8164,87,1.255,24,10.0331,-0.2619,-10.899,-0.0049,-0.8566,0.197,51
1.537,29,7.9406,-0.8091,-11.5062,-1.248,0.1357,-1.3357,87,1.307,25,10.3357,0.2056,-12.3574,0.0124,-0.2475,0.0033,51
1.589,30,6.5705,-3.5751,-11.9181,-1.5861,-0.5564,-0.2971,87,1.359,26,12.1981,0.4439,-12.4295,-0.0282,0.5043,-0.0909,51
1.641,31,6.1744,-6.8168,-12.4995,-1.1856,-0.6652,0.4609,87,1.411,27,12.1513,-1.1229,-17.0528,0.6541,1.053,-0.063,51
1.693,32,7.1168,-6.8765,-12.1259,-0.1887,-1.1589,0.6439,87,1.462,28,13.9858,-0.5412,-20.4271,0.4512,0.1018,0.5852,51
1.744,33,6.1298,0.3331,-13.1145,0.5388,-0.1674,0.8458,87,1.514,29,13.5299,2.257,-14.8601,0.365,-0.5925,0.8734,51
1.796,34,5.5117,5.595,-12.5062,0.6864,0.0523,0.4607,87,1.566,30,8.5668,-0.1086,-8.7913,-0.4107,-0.9895,0.5565,51
1.848,35,8.5862,-1.1535,-17.09,0.2976,-0.0379,0.4729,87,1.618,31,6.4822,-3.8385,-4.2502,-0.4974,-0.0748,0.459,51
1.9,36,10.1619,-1.3994,-14.9373,0.4195,-0.3841,0.5738,87,1.669,32,3.8607,0.892,-11.0832,-1.0267,0.2987,0.353,51
1.951,37,12.6824,-3.2394,-14.2904,0.3229,-0.5687,1.0355,87,1.721,33,7.935,-1.0361,-11.5752,-0.0797,0.903,0.6173,51
2.003,38,13.399,2.9877,-17.1117,-0.0601,0.2337,0.0874,87,1.773,34,8.6955,-5.2572,-15.4865,0.3433,1.344,0.5274,51
2.055,39,10.66,7.5324,-16.8736,-0.4156,0.3385,-0.6102,87,1.825,35,9.886,-2.7463,-11.0003,0.9253,0.4492,0.738,51
2.107,40,10.2724,4.1548,-15.9441,-0.1354,0.2402,-1.1194,87,1.877,36,6.6568,0.7786,-8.7568,0.1526,0.7046,0.3666,51
2.159,41,5.3908,-2.2047,-14.4686,-0.1431,0.8237,-1.3075,87,1.928,37,3.8976,0.9023,-11.5112,-0.5657,1.1992,0.1971,51
2.211,42,5.7736,-3.3531,-14.5521,-0.3606,0.2773,-0.5859,87,1.98,38,2.1405,2.3264,-16.3826,-1.0899,1.1593,0.332,51
2.262,43,9.4796,-7.6468,-8.0367,-0.2136,-0.1376,-0.0878,87,2.032,39,1.051,-2.6499,-19.9379,-0.4409,0.2842,0.0588,51
2.314,44,12.1844,-8.2969,-12.2957,-0.1092,-0.1409,0.3267,87,2.084,40,5.8844,0.7483,-17.3503,-0.5661,0.0923,0.0446,51
2.366,45,13.9857,-10.0838,-14.205,-0.6825,-0.5409,0.4231,87,2.135,41,6.1392,2.2058,-17.9178,0.0985,0.7523,-0.1234,51
2.418,46,12.5926,-5.9028,-14.0803,-0.6136,0.2835,0.4611,87,2.187,42,9.4344,2.3018,-10.4695,0.368,1.234,-0.1118,51
2.47,47,9.7232,-6.9591,-13.02,-0.7588,-0.4188,0.6442,87,2.239,43,4.1586,2.7006,-15.6223,0.9433,1.4536,0.049,51
2.521,48,7.7131,-6.8504,-13.9515,-0.5379,-0.6787,1.0656,87,2.291,44,5.4104,1.9046,-15.66,0.4525,0.3941,0.3075,51
2.573,49,5.7613,-4.9431,-15.9361,0.2839,-0.8583,1.07,87,2.343,45,5.28,1.1883,-13.5518,0.5134,-0.3791,0.4416,51
2.625,50,5.6744,1.6923,-15.7938,0.8711,-0.6028,0.8757,87,2.394,46,1.5561,0.6865,-8.9014,0.8537,-0.9435,0.7271,51
2.677,51,3.0343,6.587,-19.5319,0.0307,-0.9296,0.3513,87,2.446,47,2.4098,0.7449,-14.4779,0.0417,-0.2391,0.5486,51
2.728,52,6.4042,3.6621,-11.6712,-0.4409,-0.338,-0.4124,87,2.498,48,-1.6097,2.9823,-8.3037,-0.2015,-0.3443,0.0171,51
2.78,53,6.5006,4.0103,-12.3307,-0.204,-0.4568,0.0882,87,2.55,49,3.9425,2.4656,-10.2215,0.243,0.1215,0.1437,51
2.832,54,10.0102,-0.8474,-11.7157,-0.4217,-1.0068,0.7421,87,2.602,50,7.9947,0.2902,-11.6992,0.156,0.7737,0.3194,51
2.884,55,5.1749,4.7334,-11.835,0.1966,-0.1657,0.7264,87,2.653,51,6.2114,1.1285,-10.5753,0.4552,1.1766,-0.0259,51
2.936,56,5.2668,6.7228,-13.2927,0.0178,-0.7101,-0.1438,87,2.705,52,4.915,3.4449,-7.9008,1.0069,1.5437,-0.0741,51
2.987,57,6.5115,3.0599,-11.6399,-0.3494,-0.6918,-0.779,87,2.757,53,2.8411,6.0051,-7.0841,0.464,1.8079,-0.4449,51
3.039,58,2.9568,-2.2091,-9.3949,-0.5169,-0.0955,-1.1867,87,2.809,54,4.2203,3.223,-9.5531,-0.3384,1.7686,-0.5553,51
3.091,59,7.4237,-4.9156,-10.3917,0.1115,-0.3287,-0.4955,87,2.861,55,3.0055,2.4935,-12.1754,-0.9241,1.3701,-0.4193,51
3.143,60,10.6839,-7.2347,-11.857,0.2319,-0.3373,-0.3332,87,2.912,56,7.3108,5.4523,-6.2784,-0.497,0.5455,-0.2442,51
3.195,61,13.0633,-6.8848,-11.7811,-0.4478,-0.2964,-0.5763,87,2.964,57,10.4531,4.7375,-9.7563,-0.3005,0.1705,-0.0694,51
3.246,62,14.1448,-2.5528,-16.2785,-0.2341,0.2093,-1.0347,87,3.016,58,12.7336,1.6207,-10.1596,-0.3883,0.792,-0.1561,51
3.298,63,8.6604,-4.005,-14.777,-0.8461,0.8196,-0.1545,87,3.068,59,9.0204,1.3774,-9.8743,0.3769,1.263,-0.1364,51
3.35,64,6.7035,-4.1077,-15.0801,-1.2393,0.1141,0.1652,87,3.119,60,4.7199,2.1783,-11.0938,-0.0586,0.3663,-0.009,51
3.402,65,5.4936,-3.9581,-14.7506,-0.228,-0.4755,0.798,87,3.171,61,5.1772,1.1408,-10.9239,-0.0633,-0.3994,0.1225,51
3.454,66,7.0025,-1.6467,-12.9357,0.5101,-0.9553,0.6683,87,3.223,62,4.3995,0.415,-10.919,0.6097,-0.9583,0.2647,51
3.506,67,5.9962,-0.3731,-12.8352,1.0,-0.5386,0.7985,87,3.275,63,1.9643,0.9373,-7.8308,0.3958,-1.3649,0.5125,51
3.557,68,3.8563,-5.5093,-13.6118,0.4163,-0.3223,0.9937,87,3.326,64,0.3206,-2.0545,-13.6965,-0.3701,-1.4629,0.6428,51
3.609,69,6.4152,-1.9481,-16.7531,0.9675,-0.673,0.7291,87,3.378,65,5.3513,1.0208,-10.0404,-0.083,-1.4934,0.0571,51
3.661,70,9.5647,-2.2734,-14.5323,0.5097,-1.142,1.2062,87,3.43,66,7.2416,3.5781,-12.842,0.1489,-0.4054,0.1435,51
3.713,71,12.0976,-3.4957,-15.3396,-0.1614,-0.8771,0.9688,87,3.482,67,10.4025,1.2057,-14.33,-0.0209,0.3891,0.3175,51
3.764,72,9.2666,2.8006,-17.2691,-0.3112,-0.8132,0.0497,87,3.534,68,5.6312,1.7324,-12.0327,0.3782,0.9689,-0.0147,51
3.816,73,9.9564,3.2429,-17.8309,-0.9017,-1.2669,-0.6378,87,3.585,69,4.5695,1.5337,-10.1905,0.9507,1.0892,-0.0487,51
3.868,74,6.8953,-0.6735,-14.6574,-1.3333,-0.3678,-1.1395,87,3.637,70,3.1451,3.7786,-8.668,0.6401,1.3315,-0.3763,51
3.92,75,3.7641,-2.1086,-15.3564,-0.3261,-0.0304,-0.1847,87,3.689,71,3.0779,2.3188,-9.8671,0.1091,1.6431,-0.6493,51
3.972,76,8.0129,-0.9516,-12.3058,0.1817,-0.4525,0.3604,87,3.741,72,2.3719,1.5242,-12.4757,-0.5974,1.2117,-0.6327,51
4.023,77,11.1139,-4.4636,-14.5789,0.7486,-0.3666,0.4529,87,3.792,73,-1.4696,4.1747,-13.3257,-0.4297,1.5382,-0.4253,51
4.075,78,13.3772,-4.383,-12.8038,-0.1289,-0.8143,0.4225,87,3.844,74,4.0447,1.8535,-13.6154,-0.3215,0.8733,-0.1531,51
4.127,79,14.8511,-6.1241,-13.8727,-0.3278,-0.9903,-0.1291,87,3.896,75,7.9295,0.3304,-13.7766,-0.2239,1.3223,-0.188,51
4.179,80,8.5647,-1.3017,-17.0234,0.0884,-0.0444,0.4254,87,3.948,76,8.4763,0.3329,-9.8384,0.4868,1.65,-0.1805,51
4.231,81,6.3275,-5.4692,-14.5841,0.1258,0.5281,0.7493,87,4.0,77,2.5991,1.5189,-13.5745,0.8681,1.5198,0.1427,51
4.282,82,5.7001,-4.9165,-15.0887,0.5159,-0.1786,1.1061,87,4.051,78,3.8109,0.9797,-13.3133,-0.037,0.4424,0.1384,51
4.334,83,5.4867,-3.4127,-15.0543,1.0531,-0.5763,1.0253,87,4.103,79,3.0042,-0.5034,-12.6807,-0.087,-0.3439,0.1322,51
4.386,84,5.0973,2.8611,-18.9922,1.0156,-0.2956,0.2501,87,4.155,80,1.6174,-0.5523,-9.8692,0.4708,-0.9119,0.2216,51
4.438,85,3.1794,-3.1488,-21.6778,0.1057,0.4615,-0.0881,87,4.207,81,6.2977,3.6243,-5.3304,0.0704,-0.9977,-0.2857,51
4.49,86,5.8369,-0.9572,-19.7848,0.1468,-0.1,0.0087,87,4.259,82,9.7137,1.9083,-9.3146,0.5128,-1.2109,-0.1148,51
4.541,87,8.1886,-1.1435,-16.8897,0.0421,-0.7464,0.6789,87,4.31,83,11.1618,1.1967,-12.4163,0.4878,-0.2096,-0.1846,51
4.593,88,9.4157,-1.053,-17.6944,-0.5553,-0.1713,0.7462,87,4.362,84,13.2637,1.8522,-13.6995,0.8554,0.532,-0.2614,51
4.645,89,6.1828,3.2343,-18.5714,-1.0307,-0.4927,0.0689,87,4.414,85,7.7477,-0.0069,-12.4106,1.0285,0.5298,-0.2055,51
4.697,90,6.0953,3.0451,-17.6574,-0.4026,-1.033,-0.6238,87,4.466,86,7.1696,1.2503,-9.3628,0.5656,0.3091,-0.067,51
4.749,91,4.8317,1.9211,-15.039,-0.616,-0.9136,-1.1062,87,4.518,87,5.7608,2.3063,-7.8123,-0.2478,0.7721,-0.2731,51
4.8,92,3.2798,2.0593,-15.3046,-1.1248,-0.8574,-0.9225,87,4.569,88,5.114,3.5632,-8.5411,-0.8579,1.2484,-0.3066,51
4.852,93,7.6595,-3.7341,-12.2756,-1.1583,0.0509,-0.5753,87,4.621,89,6.033,6.9853,-14.2148,-1.2698,1.5694,-0.1272,51
4.904,94,10.856,-3.0847,-12.9541,-1.2744,0.1729,-0.8541,87,4.673,90,9.5204,0.2663,-11.2822,-1.4088,0.4786,0.1965,51
4.956,95,13.1889,-4.1907,-12.5104,-1.0679,-0.5472,-0.015,87,4.725,91,9.4102,-1.8038,-12.8957,-1.1236,0.8508,0.1421,51
5.008,96,11.6909,-1.0984,-13.5829,-0.6731,0.1148,-0.6847,87,4.776,92,11.9852,-1.3896,-11.1331,-0.219,1.3059,-0.0878,51
5.059,97,7.8367,-3.4127,-14.6026,-0.8244,0.4811,-0.2894,87,4.828,93,9.8897,-2.163,-16.1066,0.5148,0.8276,-0.0871,51
5.111,98,6.4866,-4.2477,-12.5973,-0.7098,0.0336,0.303,87,4.88,94,9.7799,-0.7761,-16.9867,-0.1963,-0.0628,-0.0125,51
5.163,99,6.4906,-3.5872,-11.5318,0.0791,-0.3255,0.8962,87,4.932,95,8.6323,-3.406,-13.5446,-0.6135,-0.7126,-0.1545,51
5.215,100,5.2228,-3.006,-10.8144,0.7343,-0.4285,1.3073,87,4.984,96,5.2727,-2.9473,-10.4501,0.2269,-0.5606,0.006,51
5.267,101,9.0776,3.158,-5.8654,0.8745,-0.0513,0.3014,87,5.035,97,5.4171,1.311,-15.6081,-0.0583,-0.3617,0.2861,51
5.318,102,11.891,3.7493,-1.6968,0.0361,-0.1216,0.4188,87,5.087,98,9.0709,4.5256,-13.7282,-0.659,-0.1864,0.106,51
5.37,103,11.3759,2.9768,-4.5899,0.0348,-0.5868,0.4109,87,5.139,99,11.7376,2.4861,-14.6572,-0.2421,-0.2185,0.17,51
5.422,104,13.5683,0.9186,-8.1386,0.3357,-0.726,0.96,87,5.191,100,11.9274,1.1543,-13.8325,0.498,0.5255,0.1239,51
5.474,105,15.1006,6.0223,-13.9448,-0.4177,-0.0459,0.1377,87,5.242,101,10.9193,3.3909,-13.3893,0.6779,0.7083,-0.0854,51
5.526,106,9.8876,8.5166,-15.6272,-0.8336,-0.2953,-0.5342,87,5.294,102,8.8606,4.944,-9.9318,1.1695,1.2019,-0.0092,51
5.577,107,9.3996,7.6068,-14.5393,-0.0193,-0.8889,-1.0639,87,5.346,103,6.8964,4.9031,-10.9427,0.2374,1.5621,-0.1858,51
5.629,108,7.1237,4.6493,-12.8234,0.1682,-0.9592,-1.3993,87,5.398,104,6.2165,4.0036,-11.684,-0.3772,1.5295,-0.4544,51
5.681,109,5.7124,3.148,-12.9464,-0.3754,-0.7084,-1.0066,87,5.45,105,5.3553,2.1092,-13.438,-0.9524,1.0437,-0.2646,51
5.733,110,9.4349,-2.9395,-12.0284,0.1975,0.1613,-1.2947,87,5.502,106,5.9522,5.3372,-14.0809,-1.285,1.1088,-0.3839,51
5.784,111,12.1081,-1.4916,-11.3218,-0.3209,-0.4813,-0.9429,87,5.553,107,9.4614,0.4192,-14.5097,-0.7415,0.5013,-0.2231,51
5.836,112,13.6002,-3.1845,-12.6815,-0.812,-0.6461,-0.2247,87,5.605,108,9.2097,1.2093,-14.7864,-0.5888,1.0508,-0.1353,51
5.888,113,12.4927,-2.9245,-15.3967,-0.5372,-0.0656,-0.1796,87,5.657,109,11.1624,3.8097,-12.3172,0.2417,1.4519,0.1007,51
5.94,114,10.6834,-6.5418,-14.2092,-0.948,-0.5653,0.5466,87,5.709,110,6.4114,2.7137,-16.9708,0.851,1.0321,0.0478,51
5.992,115,7.1989,-5.7319,-16.9518,-0.6935,-0.082,1.0767,87,5.761,111,7.318,1.8147,-16.0347,-0.0384,0.0865,-0.0661,51
6.043,116,5.943,0.0516,-16.5156,0.033,-0.1487,0.9724,87,5.812,112,4.9735,0.2945,-12.9148,0.1768,-0.6037,-0.1754,51
6.095,117,6.1495,5.3896,-20.0587,0.225,0.3312,0.0358,87,5.864,113,4.9199,-0.2396,-11.8742,0.3707,-0.9163,-0.0403,51
6.147,118,9.7539,3.6049,-22.6446,-0.0036,-0.0528,0.7038,87,5.916,114,8.7081,-0.4089,-6.0585,-0.2374,-1.3356,-0.2524,51
6.199,119,10.4498,2.1871,-21.2407,-0.0817,-0.4134,0.3368,87,5.968,115,11.4728,0.894,-10.0207,-0.0878,-1.3453,-0.1486,51
6.251,120,10.0695,2.2533,-20.6583,-0.1005,-0.6766,0.6414,87,6.02,116,13.4907,-3.1789,-10.766,0.4902,-0.3353,-0.3969,51
6.303,121,9.6646,0.4897,-20.0144,-0.375,0.1645,0.8979,87,6.071,117,12.3783,0.2155,-10.2158,-0.1624,0.2461,-0.1057,51
6.354,122,5.9956,3.7577,-19.8947,-0.891,0.0298,0.6871,87,6.123,118,8.9648,-4.9941,-5.0998,-0.1204,0.8646,0.0863,51
6.406,123,7.3523,4.9893,-19.0559,-0.7097,-0.6517,-0.1726,87,6.175,119,9.1428,-0.1143,-6.0575,0.5674,1.316,0.0983,51
6.458,124,6.2386,0.3665,-14.4044,-0.8283,-0.6457,-0.8,87,6.227,120,8.0523,1.5858,-8.8993,0.3888,1.5361,-0.1503,51
6.51,125,2.818,-2.8192,-13.639,-0.5076,-0.2963,-0.6918,87,6.279,121,8.0007,3.4485,-14.4763,-0.3933,1.2644,-0.0811,51
6.562,126,7.3225,-4.8999,-9.1443,0.078,-0.5442,-0.849,87,6.33,122,0.3667,7.809,-18.5466,-0.2345,1.2642,-0.1519,51
6.613,127,10.61,-3.0756,-7.9761,-0.167,-1.0086,-0.5051,87,6.382,123,5.3849,8.3345,-17.3944,-0.079,1.0713,-0.0565,51
6.665,128,13.0094,-4.5624,-10.79,-0.3414,-0.9734,-0.2004,87,6.434,124,6.1121,5.4026,-16.6549,-0.2769,1.4668,-0.0589,51
6.717,129,7.713,-0.4511,-11.9864,-0.0793,-0.0473,0.4836,87,6.486,125,9.5782,4.8761,-12.3599,0.3849,1.7555,-0.1789,51
6.769,130,6.9374,-3.3217,-11.7916,-0.287,-0.4474,0.9418,87,6.538,126,4.9363,6.0745,-16.4989,0.4659,0.9869,0.0389,51
6.821,131,5.6711,-3.8989,-13.4092,0.049,0.1163,1.293,87,6.589,127,5.7388,3.4296,-16.4527,-0.226,0.0535,0.1785,51
6.872,132,4.1106,-2.6683,-14.4249,0.7123,-0.1931,1.2757,87,6.641,128,4.7482,1.6507,-14.2289,-0.438,-0.6278,0.294,51
6.924,133,4.4195,3.4045,-18.5328,0.738,0.171,0.8411,87,6.693,129,3.1986,0.087,-11.3503,-0.8957,-1.1204,0.4169,51
6.976,134,5.7697,-2.7523,-13.0266,0.6445,0.8032,0.8924,87,6.745,130,7.4518,4.3302,-5.6762,-1.0802,-1.4845,-0.152,51
7.028,135,5.9068,-0.8372,-11.2971,0.1566,0.2887,0.7328,87,6.797,131,10.5559,0.1087,-8.8379,-0.1571,-1.3383,0.2244,51
7.08,136,7.4025,0.0205,-12.3058,0.0397,-0.0816,0.9831,87,6.849,132,11.9092,-2.8501,-12.3644,-0.2795,-0.5794,-0.3103,51
7.131,137,9.0706,-2.8006,-14.6708,0.0727,0.3738,1.3599,87,6.9,133,13.6994,-1.9325,-10.9614,0.2319,0.0978,-0.3683,51
7.183,138,8.0292,3.3079,-16.6469,-0.6221,0.5943,0.9697,87,6.952,134,10.2671,-1.9333,-9.5176,0.5784,0.3521,-0.3766,51
7.235,139,10.892,5.6145,-18.4572,-0.7953,-0.2396,0.0337,87,7.004,135,8.9262,-0.1033,-7.2089,1.0968,0.8189,-0.1861,51
7.287,140,10.6938,3.4599,-17.219,-1.2557,-0.2801,-0.6494,87,7.056,136,8.1584,1.4784,-7.2742,0.1428,1.0332,-0.2142,51
7.338,141,5.2125,-0.7399,-14.972,-1.473,0.424,-1.148,87,7.108,137,7.9851,2.5638,-13.2902,-0.5729,1.1647,-0.2027,51
7.39,142,9.07,-5.7771,-17.3284,-1.4318,0.6499,-1.175,87,7.159,138,10.9451,-3.4222,-13.362,-0.2006,0.5212,-0.0673,51
7.442,143,9.5109,-1.8655,-12.4336,-0.849,0.0839,-0.8405,87,7.211,139,11.1986,-2.6587,-15.1145,-0.3972,0.4339,0.082,51
7.494,144,10.8675,-3.2943,-13.6251,-0.8137,-0.6122,0.0643,87,7.263,140,12.9372,-3.3903,-14.5994,0.0965,1.0016,-0.0478,51
7.546,145,7.8722,-1.7522,-13.2451,0.0572,0.2316,-0.1567,87,7.315,141,10.6215,-2.4675,-12.7351,0.1372,1.416,-0.1179,51
7.597,146,5.0444,-3.4393,-13.9635,-0.5853,0.8474,0.1019,87,7.366,142,7.1935,1.1209,-17.2759,0.7748,0.9898,0.0065,51
7.649,147,3.5558,-4.4859,-14.3144,-0.6119,0.1077,0.7521,87,7.418,143,6.2192,-1.0623,-17.4131,-0.1116,0.0556,0.0572,51
7.701,148,2.7927,-1.7886,-14.8698,-0.6154,-0.5948,1.2267,87,7.47,144,5.1725,-1.5613,-15.5273,0.5292,-0.6262,0.1936,51
7.753,149,2.4869,1.4181,-12.3996,0.1527,0.097,0.9171,87,7.522,145,4.2192,-2.1136,-13.5355,1.0231,-1.1238,0.5073,51
7.805,150,1.5478,-4.2021,-17.0547,-0.2631,0.6102,1.3471,87,7.574,146,4.847,-2.4305,-12.8136,0.4408,-1.302,0.5193,51
7.857,151,3.3248,-3.4624,-14.9647,0.0855,0.2358,0.4525,87,7.625,147,8.6548,-2.1332,-12.8018,0.6662,-1.6121,0.3844,51
7.908,152,4.3031,-1.1576,-13.9693,-0.1403,0.2153,0.7402,87,7.677,148,11.434,-1.5998,-13.8714,0.9869,-1.1725,0.3484,51
7.96,153,6.7557,-0.564,-15.137,-0.0442,-0.3631,1.1762,87,7.729,149,11.3748,0.2865,-14.1897,0.8718,-0.1708,0.1691,51
8.012,154,10.1844,4.9403,-18.2823,-0.4789,-0.2853,0.9985,87,7.781,150,8.9749,1.6107,-12.1577,0.8995,0.4762,-0.296,51
8.064,155,6.3915,6.9867,-17.7062,-0.1949,0.0206,0.2466,87,7.833,151,7.4323,2.3016,-8.7578,1.3312,1.0325,-0.3553,51
8.116,156,6.2491,7.5721,-16.7958,-0.5631,-0.6583,-0.4941,87,7.884,152,6.766,2.7472,-8.6976,0.2959,1.4386,-0.812,51
8.167,157,3.853,4.0382,-15.4513,-1.0225,-0.4416,-0.8287,87,7.936,153,7.0511,2.6583,-10.2818,-0.4611,1.6705,-0.9745,51
8.219,158,2.7501,-2.2314,-12.1417,-1.2867,-0.5386,-1.1707,87,7.988,154,4.7565,1.4242,-13.4432,-1.0136,1.379,-0.8225,51
8.271,159,7.2729,3.7233,-16.8664,-0.2692,-0.7845,-0.1767,87,8.04,155,-2.0011,3.3195,-17.7926,-0.4183,1.5996,-0.7706,51
8.323,160,10.5738,2.8579,-16.5085,-0.4566,-0.6829,-0.1819,87,8.091,156,2.0446,2.3742,-18.3504,-0.0136,0.8616,-0.4926,51
8.375,161,12.983,1.4799,-18.3961,-0.6269,-0.6843,0.1207,87,8.143,157,4.7116,0.5879,-17.6287,-0.3642,1.2221,-0.2477,51
8.426,162,11.1651,1.5848,-17.3513,-0.0409,0.1788,0.5856,87,8.195,158,8.556,1.8352,-14.0218,-0.2906,1.5769,-0.1391,51
8.478,163,7.9458,0.5583,-15.3747,-0.5524,0.8089,1.1051,87,8.247,159,7.6916,4.2525,-18.2149,0.4626,1.7358,-0.0526,51
8.53,164,6.8145,-2.3778,-12.6532,-0.9277,0.2427,1.4782,87,8.299,160,6.308,2.1344,-19.3712,0.0302,0.6,0.2333,51
8.582,165,6.6477,-3.3351,-12.1342,-0.6525,-0.288,1.7566,87,8.35,161,5.6421,1.4559,-16.4984,0.4523,-0.2289,0.3636,51
8.634,166,6.4845,-1.7133,-11.5207,0.2003,-0.4252,1.417,87,8.402,162,5.1318,0.2469,-15.3269,0.9704,-0.8338,0.5787,51
8.685,167,9.9984,4.1015,-5.8243,0.8228,0.3527,0.3601,87,8.454,163,4.0875,-0.9359,-12.2491,1.0672,-1.2753,0.7697,51
8.737,168,8.2366,4.6227,-11.0815,1.131,0.3925,-0.0634,87,8.506,164,8.1005,-1.0283,-16.802,0.1018,-0.9202,0.6643,51
8.789,169,9.0182,4.866,-11.6629,1.0391,0.0175,0.4945,87,8.558,165,7.3862,-2.8665,-19.6261,0.1484,-0.4899,0.339,51
8.841,170,10.234,2.1174,-11.6518,0.3411,-0.6606,1.0327,87,8.609,166,9.0825,-1.9925,-18.7528,0.3493,0.3274,-0.0936,51
8.893,171,11.1357,6.8973,-16.5089,-0.2096,0.1065,0.1137,87,8.661,167,8.002,-0.1032,-18.5963,0.2555,0.9239,-0.0661,51
8.944,172,8.7394,9.9091,-18.0775,-0.3408,-0.1117,-0.5911,87,8.713,168,6.1099,-0.8316,-14.7676,0.6001,0.7655,-0.1127,51
8.996,173,10.5949,7.4471,-17.1592,-0.5504,-0.3762,-1.1054,87,8.764,169,5.03,2.8298,-11.4613,0.8087,0.7096,-0.3575,51
9.048,174,7.1879,1.5587,-14.0721,-1.0769,0.2998,-1.4808,87,8.816,170,4.87,4.9527,-11.654,-0.0869,0.7822,-0.9323,51
9.1,175,6.7405,-0.5328,-12.0995,-0.6001,-0.1334,-0.6612,87,8.868,171,4.9666,2.7656,-15.0501,-0.7404,0.9108,-0.9663,51
9.151,176,7.8138,-5.6259,-8.9858,-1.0441,0.581,-0.0929,87,8.92,172,5.588,-2.6549,-18.9654,-1.1155,0.0624,-0.8655,51
9.203,177,10.9686,-4.4122,-8.2075,-1.0234,0.3251,0.1765,87,8.972,173,9.1957,-4.5988,-19.4501,-1.4053,-0.4559,-0.2,51
9.255,178,13.2711,-5.6694,-8.3265,-0.9522,-0.4362,0.6046,87,9.023,174,11.8287,-3.9091,-17.2147,-0.9141,-0.526,-0.2544,51
9.307,179,12.8736,-5.0495,-11.8293,-0.795,-0.5964,0.0411,87,9.075,175,13.7504,-2.9756,-15.8148,-0.4336,0.2773,-0.1551,51
9.359,180,9.0136,-2.0972,-14.7041,-1.2427,0.2431,0.4094,87,9.127,176,12.3154,-3.0671,-15.7103,0.3537,0.8873,-0.0146,51
9.41,181,9.6831,-6.7676,-13.5358,-1.5421,0.2623,0.9743,87,9.179,177,6.3101,1.1814,-16.5721,0.0087,0.0493,0.3632,51
9.462,182,7.3107,-8.3746,-15.3064,-0.4489,-0.2906,0.9403,87,9.23,178,6.7143,1.9556,-15.5651,-0.2803,-0.6308,0.3639,51
9.514,183,6.7359,-1.6509,-14.7122,0.3489,0.1507,1.0256,87,9.282,179,5.4529,0.9618,-12.3058,-0.0459,-1.1272,0.2939,51
9.566,184,2.9405,4.147,-16.2255,0.6085,0.4886,1.309,87,9.334,180,4.1172,0.9096,-11.3036,0.6412,-1.273,0.5674,51
9.618,185,2.1127,-2.2104,-19.8469,-0.2311,0.2605,1.3693,87,9.386,181,8.1222,2.0145,-5.6421,-0.2091,-1.5904,-0.1136,51
9.669,186,2.932,0.443,-18.8947,-0.06,-0.2877,0.6019,87,9.438,182,10.6897,2.0072,-10.4463,0.4155,-1.4182,-0.1646,51
9.721,187,5.5594,1.3979,-17.4247,0.0792,-0.5826,0.9481,87,9.489,183,10.4892,1.9985,-12.7871,0.7255,-0.3501,-0.0174,51
9.773,188,9.3233,-4.0497,-18.0279,0.1547,-0.8321,1.3697,87,9.541,184,12.388,2.6425,-14.6992,0.8986,0.4295,-0.0103,51
9.825,189,4.7074,0.7483,-13.9773,-0.342,-0.3906,1.6574,87,9.593,185,7.548,1.3249,-12.6319,1.3305,0.9583,-0.4367,51
9.877,190,5.8246,2.4468,-15.6446,-0.7055,-0.8362,0.5357,87,9.645,186,5.9988,3.8465,-9.2733,1.6458,1.3361,-0.8633,51
9.928,191,4.6514,-1.1954,-12.6776,-1.1854,0.0639,-0.2831,87,9.697,187,5.1003,4.605,-8.5662,1.3637,1.4121,-1.2838,51
9.98,192,0.8778,-3.1074,-11.8175,-0.5598,-0.1139,-0.1454,87,9.748,188,4.9196,4.1814,-8.9846,0.3182,1.314,-1.4194,51
10.032,193,5.9064,-7.505,-8.1605,0.1072,0.2573,0.5528,87,9.8,189,5.8013,4.3888,-14.5386,-0.4448,0.9785,-1.1165,51
10.084,194,9.5765,-8.3119,-5.2877,-0.5119,0.8661,0.0218,87,9.852,190,-1.2386,8.4953,-18.0245,-0.1767,1.3991,-0.3515,51
10.136,195,12.1197,-4.4318,-5.8012,-0.6963,-0.0412,-0.1215,87,9.904,191,4.0,7.9014,-18.4928,0.1538,1.1046,-0.0239,51
10.187,196,14.1112,-6.3194,-10.4464,0.1231,-0.7035,-0.1267,87,9.956,192,8.0367,5.2452,-16.9128,0.5808,1.4912,-0.353,51
10.239,197,9.7408,-2.1772,-12.1733,0.3858,0.1649,-0.5856,87,10.007,193,6.5662,5.462,-12.5673,1.0439,1.7733,-0.2105,51
10.291,198,7.02,-5.9975,-14.4457,-0.3936,0.0858,-0.2324,87,10.059,194,-0.6764,7.7745,-13.5927,1.4355,1.1083,0.4623,51
10.343,199,4.9997,-7.88,-13.9747,-0.4294,0.0273,0.5052,87,10.111,195,1.3895,6.2182,-13.4875,0.7036,0.1421,0.8047,51
10.394,200,5.4114,-6.2316,-14.1371,0.3631,-0.4291,0.8675,87,10.163,196,2.3588,4.6099,-12.0636,-0.0071,-0.5631,0.8439,51
10.446,201,4.4728,-1.7058,-15.3068,0.9416,-0.7123,0.96,87,10.215,197,1.3925,2.5572,-9.493,-0.3863,-0.9471,0.7558,51
10.498,202,2.8708,-2.0927,-13.9217,1.327,0.1585,0.3156,87,10.266,198,4.0157,2.3327,-11.5058,0.0102,-1.0739,0.6013,51
10.55,203,2.4111,-2.6524,-16.7467,1.3619,0.4354,0.0376,87,10.318,199,8.0481,0.6672,-10.4266,-0.6696,-1.1466,0.3563,51
10.602,204,4.6075,-1.9893,-16.0657,0.8356,0.0808,0.4559,87,10.37,200,10.9912,-1.2729,-10.9085,0.0445,-0.245,0.1348,51
10.654,205,8.6285,-5.605,-16.072,0.7572,0.2053,1.0105,87,10.422,201,10.3478,-0.2377,-13.5375,0.7041,0.5062,0.2436,51
10.705,206,5.2002,1.2611,-14.9701,-0.1226,0.8282,0.9322,87,10.473,202,9.0006,-0.72,-8.8138,0.957,0.9668,0.082,51
10.757,207,4.2294,3.1858,-15.0518,-0.2132,0.295,0.0063,87,10.525,203,7.4433,4.7667,-4.5908,1.3501,1.3906,0.0747,51
10.809,208,8.3526,3.115,-15.72,-0.4515,-0.377,-0.6694,87,10.577,204,7.7009,5.4636,-5.1698,0.3083,1.6999,-0.1052,51
10.861,209,6.0321,-0.7546,-11.704,-1.0048,0.2959,-1.1626,87,10.629,205,7.9361,6.8654,-8.0745,-0.4521,1.9256,-0.438,51
10.913,210,4.558,-5.7786,-15.8516,-0.3716,0.5354,-0.1708,87,10.681,206,6.5366,6.3693,-13.8743,-1.007,1.4325,-0.3771,51
10.965,211,4.1226,-3.8221,-19.2644,-0.0193,1.0497,0.3957,87,10.732,207,9.888,6.0717,-11.4689,-1.412,0.3787,-0.3566,51
11.016,212,8.2746,-0.8337,-18.8649,-0.3484,0.095,-0.0224,87,10.784,208,12.334,-0.709,-13.7913,-1.0785,-0.0392,0.2599,51
11.068,213,7.9527,-3.056,-18.248,-0.7201,-0.604,-0.0652,87,10.836,209,11.8276,-2.6244,-14.4035,-1.0229,0.5763,-0.1226,51
11.12,214,6.1701,-1.5073,-16.3279,-0.1846,0.2375,-0.4301,87,10.888,210,13.7496,-0.4962,-11.5775,-0.074,1.1056,-0.0711,51
11.172,215,4.0105,-4.1947,-18.6466,-0.81,0.6588,0.3562,87,10.94,211,10.9673,-1.3891,-16.4309,0.6207,1.3967,-0.2515,51
11.224,216,3.4047,-6.8052,-18.6341,-0.0284,0.1619,0.5193,87,10.991,212,10.8742,0.1827,-16.5046,0.9088,0.3526,0.1089,51
11.275,217,3.4476,-5.5105,-17.6031,0.6558,-0.5344,0.7776,87,11.043,213,8.8616,0.7845,-11.3924,0.0527,-0.4095,0.054,51
11.327,218,2.9269,-1.1217,-16.492,1.1552,-0.2386,0.5677,87,11.095,214,8.4448,0.3778,-10.0451,-0.6386,-0.7557,-0.2114,51
11.379,219,1.298,0.1278,-14.2252,1.4795,0.3665,1.0921,87,11.147,215,8.977,1.9244,-4.7236,-0.1351,-1.0342,-0.4236,51
11.431,220,0.7074,3.731,-16.8935,1.0542,-0.0738,0.554,87,11.198,216,11.6691,-0.4919,-5.5544,-0.4306,-1.2144,-0.2625,51
11.482,221,5.0464,1.4386,-15.5963,0.4249,-0.6877,1.0667,87,11.25,217,13.6339,-0.5198,-7.9434,0.0425,-0.6581,-0.1335,51
11.534,222,8.9488,-2.2377,-15.2416,0.0706,-0.4113,1.3192,87,11.302,218,10.8334,3.0921,-4.7536,0.7057,0.1786,-0.002,51
11.586,223,6.0048,-0.1685,-17.1699,-0.4196,-0.6266,0.3016,87,11.354,219,8.4826,3.1937,-4.313,1.1897,0.8153,0.1146,51
11.638,224,9.6483,4.6396,-15.8741,0.0359,-1.1001,-0.4539,87,11.406,220,8.3832,4.2255,-4.8977,0.2552,1.28,-0.5689,51
11.69,225,4.8557,-1.2124,-11.921,-0.649,-0.1991,-0.9941,87,11.457,221,8.4255,5.0809,-7.323,-0.4623,1.6192,-1.0745,51
11.741,226,4.2751,-5.8777,-12.0473,-1.1489,-0.0083,-1.3995,87,11.509,222,7.7493,3.1264,-11.9276,-1.0145,1.0159,-1.2725,51
11.793,227,8.3859,1.0409,-14.2054,-0.393,0.6589,-0.3437,87,11.561,223,7.6199,1.4734,-14.8847,-1.4175,0.0746,-0.9955,51
11.845,228,7.1463,1.891,-15.7543,-0.8607,0.5457,-0.7082,87,11.613,224,10.6787,-4.2215,-18.4263,-1.0122,0.3385,-0.3317,51
11.897,229,9.558,3.4081,-16.429,-1.022,-0.2127,0.1608,87,11.665,225,12.8884,-5.4637,-18.4108,-0.5376,0.6395,-0.4691,51
11.949,230,7.7385,1.8578,-16.4399,-0.8699,-0.3649,0.3881,87,11.716,226,11.3432,-0.5302,-13.4677,0.2497,1.1517,-0.2594,51
12.001,231,6.2412,-1.1566,-17.0758,-1.3101,0.1551,0.961,87,11.768,227,4.9471,2.2913,-17.7296,0.8569,0.7684,0.062,51
12.052,232,6.537,-5.4695,-16.4375,-0.3697,-0.0686,0.3071,87,11.82,228,5.9061,2.4457,-17.3566,1.0421,-0.106,0.0398,51
12.104,233,5.3418,-6.0906,-15.1945,0.4067,0.177,0.2722,87,11.871,229,8.6825,0.5213,-15.9592,1.4352,-0.7441,0.272,51
12.156,234,4.003,-4.9259,-15.6162,0.9734,0.0613,0.5218,87,11.923,230,6.3892,-0.0661,-9.04,1.1253,-1.2099,0.3914,51
12.208,235,-0.2193,1.7567,-19.4022,1.049,0.7213,-0.1463,87,11.975,231,9.7804,5.2439,-7.7807,0.1442,-0.4427,0.104,51
12.259,236,0.351,1.4842,-18.7522,0.9648,0.8312,-0.5997,87,12.027,232,11.6719,4.631,-11.7507,0.7799,-0.8541,0.5469,51
12.311,237,3.3792,1.0579,-17.565,0.3133,-0.015,0.232,87,12.079,233,11.9411,-0.9893,-13.2085,0.8554,-0.2489,-0.0426,51
12.363,238,7.732,-4.3461,-18.1973,0.0554,-0.6843,0.8445,87,12.13,234,12.408,3.9565,-15.226,1.299,0.4728,-0.4394,51
12.415,239,3.9166,1.4212,-17.349,0.1376,-0.4908,0.4799,87,12.182,235,7.8385,-1.8065,-11.0941,1.6227,1.0301,-0.6029,51
12.467,240,8.1242,1.1161,-16.7091,-0.0022,-1.0316,-0.3238,87,12.234,236,7.8122,3.8656,-9.0386,0.7185,1.4167,-1.0708,51
12.518,241,8.1753,-0.5845,-14.5147,-0.0091,-0.8069,-0.9048,87,12.286,237,6.867,1.9344,-10.9361,-0.1527,1.697,-1.282,51
12.57,242,9.6088,-2.8809,-9.1712,-0.6818,-0.9845,-0.9793,87,12.338,238,7.3315,4.066,-15.9629,-0.7885,1.7064,-0.5716,51
12.622,243,12.2787,-4.4588,-9.819,-1.1024,-0.1551,-1.1185,87,12.389,239,9.0124,8.2597,-13.413,-0.9241,1.5923,-0.2856,51
12.674,244,13.2772,-2.0285,-10.1571,-0.7896,-0.7023,-0.4916,87,12.441,240,7.6478,7.0365,-15.0402,-0.0002,1.7135,-0.1529,51
12.726,245,11.1194,-1.687,-14.3047,-0.5877,-1.186,0.2795,87,12.493,241,10.6447,2.9565,-14.4059,-0.0857,1.9355,-0.5379,51
12.777,246,8.045,-0.4925,-13.1087,-1.1042,-0.1872,0.1029,87,12.545,242,8.2372,4.6761,-16.538,0.6121,2.0976,-0.4031,51
12.829,247,6.0515,-4.8893,-14.8275,-1.4811,-0.8095,0.718,87,12.596,243,8.1932,5.6803,-17.0648,1.1041,0.8641,0.3608,51
12.881,248,4.5806,-4.856,-14.3489,-0.653,-1.0939,0.8585,87,12.648,244,8.933,4.9088,-15.1747,0.1287,-0.0361,0.7377,51
12.933,249,4.0331,-3.7965,-12.4595,-0.0404,-1.2568,1.2867,87,12.7,245,6.5986,0.7792,-11.1768,0.3847,-0.6931,0.8391,51
12.985,250,0.0595,2.581,-17.0984,-0.0141,-0.3694,1.1389,87,12.752,246,5.149,3.5527,-8.1818,0.6781,-0.5362,0.8299,51
13.036,251,5.3092,-0.2328,-9.8951,-0.5543,0.162,0.3656,87,12.804,247,8.8753,2.269,-10.3383,-0.1822,-0.0896,0.528,51
13.088,252,6.6832,0.8995,-9.8665,-0.4675,-0.281,0.7615,87,12.855,248,11.5948,3.5056,-13.3351,0.253,0.0935,0.3498,51
13.14,253,9.332,-1.9358,-11.226,-0.6082,-0.7824,1.2167,87,12.907,249,12.9315,1.4881,-11.4149,0.7854,0.7532,0.2716,51
13.192,254,3.8718,3.9391,-11.6174,-0.0841,0.1073,1.4111,87,12.959,250,10.085,1.7911,-10.2369,1.2345,1.0502,0.1014,51
13.244,255,5.4754,3.8532,-13.8195,-0.1005,-0.5502,0.3559,87,13.011,251,8.791,4.0859,-7.5659,1.5757,1.4467,-0.1109,51
13.295,256,8.4182,4.0126,-12.6994,0.2408,-0.8613,-0.4143,87,13.063,252,6.2596,5.1996,-8.1239,0.4729,1.5744,-0.4905,51
13.347,257,6.4323,-0.1192,-8.4918,-0.4755,-0.8755,-0.9715,87,13.114,253,6.4467,3.8509,-8.7221,-0.3319,1.496,-0.4575,51
13.399,258,7.8643,-5.324,-5.1399,-0.2202,-0.2603,-0.2287,87,13.166,254,8.1659,6.1489,-14.347,-0.9193,1.6225,-0.0363,51
13.451,259,11.0054,-5.2902,-7.9842,-0.0744,0.484,0.0727,87,13.218,255,5.3072,6.8489,-18.4522,-0.9851,1.5378,-0.0451,51
13.503,260,12.4547,-3.5552,-9.2625,-0.5315,-0.3202,0.0217,87,13.27,256,6.831,7.1548,-18.6466,-0.4136,1.0697,0.3012,51
13.555,261,12.4122,-2.296,-12.3131,-0.7668,-0.1247,-0.3722,87,13.321,257,10.1028,0.2095,-17.0003,-0.0744,1.4657,-0.3039,51
13.606,262,7.0076,-1.016,-15.303,-1.2349,0.5873,0.3359,87,13.373,258,10.2921,1.5318,-18.0748,0.6204,1.7547,-0.4494,51
13.658,263,4.9795,-5.9786,-11.8769,-1.568,0.0355,0.9229,87,13.425,259,6.1833,5.8765,-19.2754,1.1275,0.7314,0.2704,51
13.71,264,7.6241,-3.7135,-11.3813,-1.0676,-0.6475,1.3513,87,13.477,260,6.8508,4.3568,-15.8901,0.1458,-0.133,0.0765,51
13.762,265,6.8569,0.6071,-11.5808,-0.1398,-0.7948,0.8303,87,13.529,261,6.6299,-0.8618,-12.5773,-0.495,-0.7638,-0.2909,51
13.813,266,2.8442,4.902,-7.578,0.5745,-0.4098,0.6318,87,13.58,262,5.9272,-2.6726,-10.5526,0.3134,-0.9965,-0.1978,51
13.865,267,7.3416,3.8251,-2.9467,-0.0962,0.0417,0.123,87,13.632,263,9.4432,-0.4125,-5.094,-0.3716,-1.3941,-0.6332,51
13.917,268,9.0409,4.809,-3.6974,-0.1155,-0.2302,0.7047,87,13.684,264,12.0094,0.8263,-10.3847,-0.0225,-1.1057,-0.2338,51
13.969,269,11.8071,-0.6267,-3.8346,-0.3048,-0.8414,1.1921,87,13.736,265,13.8823,-0.5436,-9.085,0.6551,-0.122,0.0039,51
14.021,270,5.9761,4.8945,-8.3631,0.1162,-0.1703,1.5477,87,13.788,266,11.475,1.4927,-13.3629,1.1528,0.5424,-0.2363,51
14.072,271,9.6273,8.7034,-13.3701,-0.1444,-0.4055,0.4556,87,13.839,267,9.3778,4.7762,-10.2798,1.516,0.8224,-0.5329,51
14.124,272,10.8776,4.8967,-12.4544,-0.5414,-0.3731,-0.3415,87,13.891,268,7.1048,6.0497,-9.026,0.4294,0.7608,-1.0165,51
14.176,273,5.0574,-1.6632,-8.3862,-1.0704,-0.047,-0.9233,87,13.943,269,7.6594,5.0323,-9.6108,-0.3637,1.0116,-0.9128,51
14.228,274,5.7633,-0.7078,-9.0069,-0.5437,-0.4656,0.0039,87,13.995,270,5.0568,4.7638,-13.2162,-0.9425,1.3638,-0.7233,51
14.28,275,9.472,-1.1689,-7.8003,-0.2886,-0.6741,0.4938,87,14.047,271,8.808,-1.82,-7.038,-0.6315,0.6525,-0.3234,51
14.331,276,12.1789,-2.3853,-8.9645,-0.8244,-1.1654,0.4555,87,14.099,272,11.5457,-3.8483,-9.1111,-0.7496,0.155,-0.146,51
14.383,277,12.3142,-0.5815,-11.5769,-0.6751,-0.9506,-0.3165,87,14.15,273,13.5439,-3.3518,-10.2488,-0.6521,0.7981,-0.0795,51
14.435,278,7.5668,-1.5616,-14.9252,-0.4304,-0.0154,0.0832,87,14.202,274,15.0022,-7.7431,-8.3941,0.1279,1.2674,-0.3612,51
14.487,279,6.0929,-2.5359,-14.6632,-0.5674,-0.6847,0.6078,87,14.254,275,10.4862,-5.9806,-12.4886,-0.3595,0.3159,0.1802,51
14.539,280,5.4588,-4.0702,-14.0396,-0.5876,-0.3842,1.1213,87,14.306,276,11.0325,-4.5112,-13.2187,-0.6475,-0.4362,0.3658,51
14.59,281,5.5481,-2.8162,-13.0003,0.2477,-0.5659,1.3071,87,14.358,277,9.9462,-2.8994,-9.9731,-0.2521,-0.9852,0.5868,51
14.642,282,3.9504,0.5522,-13.5393,0.8573,0.2046,1.1588,87,14.409,278,8.3213,-1.2448,-8.652,-0.236,-0.9354,0.7528,51
14.694,283,8.1489,-4.834,-17.8865,1.3022,0.6475,1.5226,87,14.461,279,11.1906,1.5164,-3.7068,-0.7825,-1.1862,0.1184,51
14.746,284,5.7956,-0.7734,-18.7598,0.9963,0.8081,0.7508,87,14.513,280,13.2847,1.2394,-7.323,-0.424,-1.2068,0.0614,51
14.798,285,7.097,-0.7578,-16.6058,0.7974,0.6963,0.9025,87,14.565,281,14.6288,-1.1672,-9.5778,-0.3228,-0.652,0.1054,51
14.849,286,7.4644,-2.6098,-16.125,0.8555,0.5107,1.2038,87,14.617,282,10.9917,0.2026,-12.4079,0.1042,0.1091,0.039,51
14.901,287,7.2469,-2.5463,-13.8565,0.7279,0.1419,1.2019,87,14.668,283,8.5571,0.289,-8.6497,0.7034,0.4951,-0.2847,51
14.953,288,7.1795,-3.2884,-13.6391,0.505,-0.0009,0.8452,87,14.72,284,7.2267,4.0885,-6.1936,1.1881,1.0463,-0.8586,51
