right_leg_timestamp,right_leg_index,right_leg_accel_x,right_leg_accel_y,right_leg_accel_z,right_leg_gyro_x,right_leg_gyro_y,right_leg_gyro_z,right_leg_battery_percentage,left_leg_timestamp,left_leg_index,left_leg_accel_x,left_leg_accel_y,left_leg_accel_z,left_leg_gyro_x,left_leg_gyro_y,left_leg_gyro_z,left_leg_battery_percentage
0.025,0,11.2331,-2.9347,-16.7664,-0.7662,0.827,-0.1228,88,0.129,2,6.2326,-0.0572,-9.162,0.9283,-1.4134,-0.0175,52
0.077,1,12.264,0.2072,-15.237,-0.5329,0.3598,-0.268,88,0.18,3,4.8695,0.4556,-14.668,0.2041,-1.3559,0.2372,52
0.129,2,12.6179,-0.5758,-14.6663,-0.8754,0.0305,0.3172,88,0.232,4,8.6713,-0.8352,-14.466,-0.2514,-1.4561,0.2127,52
0.181,3,11.6895,1.901,-11.8517,-0.5645,0.1259,0.1739,88,0.284,5,8.5441,-0.5302,-16.7963,-0.2827,-0.895,0.059,52
0.232,4,11.2146,0.4847,-13.1471,-0.4571,0.1499,0.4891,88,0.336,6,11.3532,-1.0728,-16.2451,-0.3727,0.0317,0.1792,52
0.284,5,7.7113,-1.3044,-12.3211,-0.2129,-0.0399,0.9488,88,0.388,7,10.3053,-0.6505,-15.3395,-0.4013,0.3691,0.3835,52
0.336,6,6.2031,-1.9827,-11.7472,0.5211,-0.4394,1.3044,88,0.439,8,10.4491,-0.3948,-13.5431,-0.97,0.3061,0.6518,52
0.388,7,4.8856,3.0764,-11.3595,1.0569,-0.3149,1.5005,88,0.491,9,7.2906,-1.7348,-10.8131,-0.0333,0.9084,0.3844,52
0.439,8,8.8315,7.5972,-5.7066,1.4479,-0.7878,0.4239,88,0.543,10,7.2464,0.4005,-10.8727,-0.4608,1.3479,0.0569,52
0.491,9,11.7114,2.9639,-5.7263,1.3977,-0.4495,0.3028,88,0.595,11,4.1073,0.0059,-15.9166,-1.0134,1.6688,0.5711,52
0.543,10,10.9317,2.705,-7.7836,0.8928,-0.8232,0.8953,88,0.646,12,5.831,5.2964,-19.5978,-0.9565,0.5511,0.4395,52
0.595,11,11.6118,0.4537,-13.5782,0.0436,-0.6545,1.3311,88,0.698,13,9.373,-1.4312,-18.7149,-1.3752,0.0734,0.8511,52
0.646,12,12.3987,4.6369,-10.8595,-0.6262,-0.0122,0.3782,88,0.75,14,8.3628,-1.2921,-18.8851,-1.4843,0.2343,0.8661,52
0.699,13,11.7248,0.7,-11.1855,-0.4444,0.2033,-0.398,88,0.802,15,10.9109,-1.3527,-17.2068,-0.9739,0.856,0.9381,52
0.75,14,5.2058,-0.0781,-11.6828,-0.0995,0.8267,-0.4973,88,0.854,16,9.4267,4.3049,-20.5395,-0.0361,0.5201,0.304,52
0.802,15,7.1,-0.1785,-11.9563,-0.5003,-0.07,-0.8289,88,0.906,17,7.4955,4.1651,-21.6633,0.6483,-0.2872,-0.4298,52
0.854,16,6.3973,0.4661,-12.9138,-0.5829,0.0634,-1.2085,88,0.957,18,6.588,3.29,-19.4677,0.8425,-0.8764,-0.543,52
0.906,17,9.9347,-1.3924,-10.2243,-0.1859,-0.1093,-1.0514,88,1.009,19,6.4705,1.8544,-16.498,0.3361,-1.3064,-0.4849,52
0.958,18,12.5166,-0.6034,-10.2703,-0.3112,0.2035,-0.9545,88,1.061,20,4.9784,0.7114,-11.6781,0.2919,-1.5818,-0.3508,52
1.009,19,12.7339,-1.1546,-10.1963,-0.4171,0.1466,-1.2802,88,1.113,21,5.9825,2.6343,-16.5044,-0.464,-1.5734,0.0587,52
1.061,20,9.8416,1.2407,-9.6308,0.3717,-0.3684,-0.393,88,1.165,22,9.4836,0.9943,-17.8875,0.1068,-1.3687,0.0114,52
1.113,21,9.1807,0.4091,-11.498,0.799,-0.6359,0.1886,88,1.216,23,10.7631,1.316,-16.8433,0.2306,-0.5505,0.0137,52
1.164,22,6.7543,-2.1628,-11.3494,0.7703,-0.2833,0.6226,88,1.268,24,10.4771,0.328,-16.9163,0.0284,0.0817,0.0833,52
1.217,23,5.6811,-1.861,-10.3095,1.2387,0.0697,0.8043,88,1.32,25,9.3021,-2.6746,-13.11,0.0349,0.2794,0.3084,52
1.268,24,5.3951,-0.2812,-8.8298,1.0848,0.4338,1.2507,88,1.372,26,10.2539,-1.6253,-9.7019,0.6967,0.6854,0.4995,52
1.32,25,3.2146,3.3573,-10.129,1.4683,0.9018,1.4432,88,1.423,27,9.206,0.7818,-10.1212,-0.0299,1.1852,0.5555,52
1.372,26,1.8982,3.0105,-4.8085,0.3964,1.3365,0.3793,88,1.475,28,6.8613,0.0359,-11.8258,-0.6989,1.5499,0.9054,52
1.424,27,3.8862,4.0514,-5.5297,0.5456,0.3021,0.6143,88,1.527,29,4.451,3.1762,-15.1102,-0.2903,1.6541,0.7766,52
1.476,28,4.3687,5.2088,-6.6938,0.328,0.1904,1.0447,88,1.579,30,8.3658,2.2045,-8.4203,-0.5149,0.5404,0.6143,52
1.527,29,8.4542,0.1029,-10.2941,-0.2783,-0.5344,1.4402,88,1.631,31,0.6331,5.5161,-14.1267,0.0391,0.2072,0.4476,52
1.579,30,3.3339,5.427,-10.7848,-0.8476,0.2063,1.7289,88,1.682,32,5.5794,3.2682,-14.5756,0.1514,0.452,0.5053,52
1.631,31,7.3292,4.8745,-10.1881,-1.2639,-0.123,0.5878,88,1.734,33,7.4825,2.0195,-13.9001,0.0381,1.0148,0.7316,52
1.682,32,5.8454,-0.3573,-10.8052,-0.2459,0.5882,-0.245,88,1.786,34,6.0972,6.7661,-18.1261,0.7025,0.7629,-0.0676,52
1.734,33,5.4399,-0.7061,-13.2501,0.497,-0.233,-0.8513,88,1.838,35,4.353,2.471,-17.8934,0.995,-0.11,-0.2622,52
1.786,34,4.2609,-3.1608,-12.5972,0.1511,-0.2261,-1.2954,88,1.889,36,6.5484,5.0839,-17.752,1.4009,-0.7471,-0.4808,52
1.838,35,8.3264,-1.3446,-7.9854,0.1453,0.1699,-0.8704,88,1.941,37,0.2151,1.378,-10.9955,0.4278,-1.212,-0.4843,52
1.89,36,11.3427,-0.9842,-8.8242,0.1424,0.2464,-0.55,88,1.993,38,2.7354,0.4434,-16.0062,-0.1994,-1.0729,0.0847,52
1.941,37,12.9965,-1.0572,-10.1257,0.1707,0.1265,-0.5371,88,2.045,39,7.1137,-4.9731,-15.3576,-0.6258,-1.2105,0.0006,52
1.993,38,10.3369,0.2011,-9.8879,-0.0497,0.3247,-0.096,88,2.097,40,9.0116,-3.5006,-17.2724,-0.3747,-1.1708,-0.0154,52
2.045,39,9.1836,-0.2251,-10.1774,-0.7115,0.2167,-0.2858,88,2.148,41,11.3523,-1.68,-16.8443,-0.0248,-0.2455,0.2114,52
2.097,40,7.92,0.0454,-11.6251,-0.4013,0.1262,-0.1293,88,2.2,42,10.7962,-0.8569,-15.8457,0.0308,0.5058,0.3491,52
2.149,41,5.3974,-1.6302,-10.5391,-0.1335,0.4811,0.4127,88,2.252,43,7.7575,0.7674,-15.0498,-0.1987,0.4081,0.107,52
2.2,42,2.7331,-1.9028,-10.7946,0.0386,1.0295,0.9789,88,2.304,44,6.4858,-1.1826,-12.1747,-0.3513,0.7758,0.0458,52
2.252,43,3.8983,3.9632,-15.7859,0.7047,0.078,0.667,88,2.356,45,5.2633,-0.7318,-11.6718,-0.0215,1.2511,0.0155,52
2.304,44,8.1109,-2.3445,-12.341,-0.1609,0.7352,0.6451,88,2.407,46,3.6742,-0.3211,-12.5667,-0.6927,1.5978,0.3701,52
2.356,45,11.1253,1.4838,-10.1514,0.1208,-0.0699,0.4397,88,2.459,47,2.2439,-0.1779,-14.19,-1.1827,1.4986,0.9466,52
2.408,46,13.035,2.088,-10.7889,0.1042,-0.3929,0.9943,88,2.511,48,6.755,5.1184,-18.3377,-0.7866,0.4484,0.5694,52
2.459,47,14.7793,6.2858,-12.1539,0.2079,-0.3512,1.3828,88,2.563,49,-0.5425,-1.4219,-17.877,-0.7473,0.575,0.2594,52
2.511,48,10.1353,7.4015,-14.2978,-0.2871,-0.5394,0.3892,88,2.615,50,3.6096,-1.6316,-17.0687,-0.5066,0.9065,0.1434,52
2.563,49,9.0411,5.3157,-13.1194,-0.8848,0.0995,-0.3899,88,2.666,51,7.5367,-1.0035,-14.8295,-0.3424,1.3465,0.3914,52
2.615,50,5.9831,3.1052,-11.5827,-1.0655,0.4406,-0.7252,88,2.718,52,10.6179,4.5597,-18.8044,0.4248,1.2552,-0.0979,52
2.667,51,6.0262,-0.6459,-11.574,-1.154,-0.1117,-0.6439,88,2.77,53,8.8556,1.7712,-16.9009,0.9606,0.2493,-0.1016,52
2.718,52,6.0776,4.1896,-8.8144,-0.1657,0.1069,-0.5706,88,2.822,54,8.9357,1.8618,-16.2391,1.3757,-0.4848,0.0045,52
2.77,53,9.7015,1.2854,-10.7587,-0.0654,0.4108,-0.3993,88,2.873,55,8.2838,1.1514,-13.3622,1.3679,-1.0206,0.428,52
2.822,54,12.3463,2.0543,-11.1591,-0.1136,-0.1869,-0.6351,88,2.925,56,6.439,4.11,-10.1166,0.5392,-1.3871,0.8441,52
2.874,55,13.6126,0.6432,-12.0124,-0.3593,0.2595,-0.7481,88,2.977,57,9.7292,7.5749,-8.2009,-0.2836,-0.4878,0.6987,52
2.926,56,10.8989,2.5885,-13.0821,-0.9175,-0.1852,-0.3309,88,3.029,58,10.8412,5.8264,-12.1585,-0.0682,-1.0228,0.359,52
2.977,57,11.4366,-0.7922,-13.3806,-0.8208,-0.7368,-0.2186,88,3.08,59,12.9862,4.0434,-10.646,0.5057,-1.099,0.6824,52
3.029,58,9.5065,-1.2252,-12.6449,-0.3173,-1.0135,0.2305,88,3.132,60,13.8689,1.4929,-10.0332,0.5879,-0.2904,0.6029,52
3.081,59,7.9408,-1.8428,-12.0852,0.1526,-1.158,0.8029,88,3.184,61,11.8972,3.3385,-9.6589,0.9524,-0.5771,0.1197,52
3.133,60,7.311,-0.2162,-9.6337,0.7879,-0.9026,1.1325,88,3.236,62,11.7174,3.8797,-7.81,0.9845,-0.0706,-0.4471,52
3.185,61,5.2834,2.8097,-9.088,1.2516,-0.0738,1.0462,88,3.288,63,9.3987,0.9662,-8.2279,0.0415,0.5898,-0.3775,52
3.236,62,9.1218,7.4026,-12.3526,1.59,-0.3864,0.3613,88,3.339,64,7.8419,-0.3484,-9.2183,-0.6468,1.1154,0.3723,52
3.288,63,6.6958,6.1633,-12.4002,0.9236,-0.2957,-0.4103,88,3.391,65,4.9992,2.2205,-10.1986,-1.1491,1.4991,0.9521,52
3.34,64,10.1527,6.1753,-12.277,0.972,-0.8892,0.3261,88,3.443,66,8.7659,6.9128,-15.4246,-1.3763,0.4273,0.9113,52
3.392,65,12.6756,-0.5568,-14.4981,0.7879,-0.3032,0.9157,88,3.495,67,9.6743,8.3133,-14.1431,-0.525,0.4122,0.75,52
3.444,66,8.9394,4.9455,-16.7846,0.7505,-0.7398,0.6979,88,3.546,68,11.3081,5.1683,-14.2461,-0.4208,0.453,0.4678,52
3.495,67,11.7901,7.258,-18.3624,-0.1274,-1.2133,-0.1647,88,3.598,69,11.0258,4.5931,-14.5229,-0.2266,1.0156,0.4481,52
3.547,68,12.6484,4.2547,-15.8943,-0.7682,-0.9924,-0.7942,88,3.651,70,11.7445,2.526,-14.3906,0.5093,1.4262,0.1792,52
3.599,69,9.5007,-2.1317,-14.8916,-1.2359,-0.1895,-1.2537,88,3.702,71,6.1103,7.1358,-17.6743,1.0464,1.6544,-0.5352,52
3.651,70,4.6033,3.7961,-18.8734,-0.5634,-0.4753,-0.5268,88,3.754,72,4.853,0.603,-17.5278,0.7134,0.5406,-0.5941,52
3.703,71,8.6254,2.5807,-21.7795,-0.2091,-0.2349,-0.2498,88,3.806,73,6.8266,0.4774,-15.6131,0.5351,-0.2722,-0.4359,52
3.754,72,11.0537,3.5129,-15.2241,-0.4142,-0.224,-0.2052,88,3.857,74,4.9741,-0.9558,-13.8035,-0.2865,-0.8655,-0.3471,52
3.806,73,13.3332,5.2339,-15.2283,-0.3692,-0.0426,-0.1794,88,3.909,75,8.7476,4.523,-16.6871,-0.5321,-1.175,-0.3132,52
3.858,74,11.76,3.7156,-14.3308,-0.5639,0.0464,0.0555,88,3.961,76,11.5017,4.59,-15.8266,-0.3465,-1.3625,-0.4108,52
3.91,75,9.0488,1.8484,-16.0782,-0.6254,-0.2876,0.2528,88,4.013,77,13.2106,2.1663,-16.0611,0.0328,-1.0804,-0.4776,52
3.962,76,8.0452,-0.4021,-14.9749,-0.4144,-0.0752,0.5429,88,4.065,78,11.984,2.639,-15.4837,-0.0269,-0.4375,-0.1627,52
4.013,77,6.6824,-0.5261,-12.9632,0.0716,-0.1021,0.9024,88,4.116,79,6.3404,4.4856,-15.65,-0.0145,0.257,-0.006,52
4.065,78,5.7894,-1.5918,-11.3181,0.7288,-0.0074,1.1269,88,4.168,80,5.7766,3.5575,-11.5431,0.6641,0.8725,-0.1876,52
4.117,79,3.871,0.0416,-11.5633,1.2084,0.6413,1.1953,88,4.22,81,5.4655,1.8694,-11.0561,1.1028,1.3218,-0.2382,52
4.169,80,7.9672,5.3823,-16.4443,1.5481,0.1326,0.8662,88,4.272,82,5.2705,1.7197,-12.2103,0.1278,1.6497,0.2021,52
4.22,81,6.3835,4.6967,-9.4177,1.1777,0.0014,0.24,88,4.323,83,3.2907,3.2912,-15.2856,-0.5838,1.6445,0.5712,52
4.272,82,5.9351,5.2197,-7.8823,0.9567,0.2833,0.7117,88,4.375,84,7.519,3.0775,-17.2819,-1.1031,0.5335,0.6822,52
4.324,83,9.0451,-0.1944,-13.7577,0.8092,0.782,1.1143,88,4.427,85,0.2857,5.7378,-15.8116,-0.2232,0.9652,0.1543,52
4.376,84,6.3085,5.21,-16.6334,-0.0847,-0.0532,0.9787,88,4.479,86,5.3258,4.1755,-16.1316,0.3654,1.343,-0.0506,52
4.428,85,6.5893,4.3674,-14.4672,-0.5701,-0.5006,0.0403,88,4.531,87,8.4199,4.6927,-12.2844,0.7383,1.6651,0.3442,52
4.479,86,5.6698,2.0665,-12.3818,-1.0823,-0.6399,-0.6446,88,4.582,88,4.3656,7.9391,-16.9469,1.2135,1.6771,-0.4202,52
4.531,87,3.7855,-0.6059,-11.3409,-1.4652,-0.3764,-0.449,88,4.634,89,3.2663,2.6012,-16.705,1.0834,0.5591,-0.2595,52
4.583,88,5.3594,2.2656,-10.4203,-1.3308,-0.1397,-0.4461,88,4.686,90,4.8878,1.745,-15.4971,0.91,-0.2587,-0.0387,52
4.635,89,6.6704,2.2465,-13.0899,-0.8596,0.5764,-0.8944,88,4.738,91,4.2804,-0.1698,-11.3735,0.3553,-0.8556,0.1596,52
4.687,90,10.1341,3.3321,-9.7449,-0.8544,0.1412,-0.7389,88,4.79,92,5.2776,1.4042,-7.5789,-0.3339,-1.0591,0.5662,52
4.738,91,12.3975,3.3817,-11.2694,-0.4382,0.1639,-0.4477,88,4.841,93,8.9691,1.749,-7.7309,-0.8327,-0.4259,0.7054,52
4.79,92,9.2668,2.9335,-12.3804,-0.223,0.0717,-0.1614,88,4.893,94,11.6634,0.6636,-10.9946,-0.6135,-0.663,0.5172,52
4.842,93,7.7747,1.7142,-12.4634,-0.838,-0.1095,0.443,88,4.945,95,9.4618,0.5562,-12.6803,0.0154,0.1908,0.439,52
4.894,94,5.2653,0.1726,-11.1973,-1.069,0.0359,0.9601,88,4.997,96,8.1597,0.315,-12.5278,-0.2003,0.8241,0.5282,52
4.946,95,4.6802,-0.4952,-10.591,-0.3402,0.0549,1.2478,88,5.049,97,6.5474,-0.6006,-13.3699,0.4599,0.7773,0.0942,52
4.997,96,4.0282,-0.9304,-10.77,0.4282,0.094,1.279,88,5.1,98,5.9702,1.4908,-11.3944,0.5054,1.2523,-0.3231,52
5.049,97,8.2057,4.6729,-15.2183,0.9891,-0.3658,0.6193,88,5.152,99,5.0304,0.9683,-10.8348,0.3352,1.5184,-0.6934,52
5.101,98,6.7779,0.2123,-11.5482,0.8519,-0.277,0.2642,88,5.204,100,3.8241,0.2485,-11.7732,0.2671,1.4829,-0.9818,52
5.153,99,6.8724,1.0282,-9.1504,0.83,-0.7377,0.7234,88,5.256,101,1.9858,1.856,-16.5738,-0.157,1.2651,-0.5851,52
5.205,100,9.014,-0.1078,-11.5606,-0.0695,-0.0627,1.2057,88,5.308,102,6.5666,0.5667,-19.479,0.0226,0.9917,-0.3002,52
5.256,101,9.249,5.2732,-12.2049,-0.7246,0.2708,1.1778,88,5.359,103,3.4218,0.053,-21.9611,-0.3553,1.4087,-0.1017,52
5.308,102,12.0161,3.6614,-13.0925,-1.204,0.6447,0.1909,88,5.411,104,7.6147,-0.2667,-17.0088,-0.1657,1.7131,0.1955,52
5.36,103,11.2529,0.7889,-10.5955,-0.7272,0.5006,-0.5347,88,5.463,105,0.0849,2.0649,-20.3949,0.5538,1.8582,-0.4236,52
5.412,104,5.4057,-2.1544,-10.0879,0.1347,1.0437,-0.9988,88,5.515,106,1.8102,1.0716,-18.6188,1.0789,0.6894,-0.2154,52
5.464,105,8.8971,-6.1993,-11.4514,0.2866,0.341,-0.1521,88,5.567,107,1.9843,-0.6367,-15.2314,0.9996,-0.1618,0.163,52
5.515,106,11.7592,-4.4419,-12.0428,0.485,0.8398,0.0227,88,5.619,108,1.9495,0.1838,-12.9755,0.1581,-0.7434,0.577,52
5.567,107,13.8481,-2.997,-13.788,0.1277,0.3837,-0.2661,88,5.67,109,6.1639,-0.1731,-8.4496,-0.5617,-1.2093,0.7783,52
5.619,108,15.2494,-3.9095,-12.1547,-0.2918,0.6875,-0.1137,88,5.722,110,9.616,-0.4697,-8.8465,-0.6533,-1.298,0.546,52
5.671,109,10.9077,-3.5941,-12.311,0.0387,0.5178,-0.015,88,5.774,111,10.682,-2.2229,-12.0797,-0.3475,-0.9701,0.293,52
5.723,110,10.7374,-4.3104,-11.1365,0.5465,0.0565,-0.3872,88,5.826,112,12.3997,-0.5332,-12.2377,-0.1108,-0.153,0.403,52
5.774,111,7.9183,-4.9512,-10.3677,0.63,0.5443,0.3181,88,5.877,113,11.9017,0.2156,-13.7189,0.5938,-0.1802,-0.022,52
5.826,112,6.9119,-4.4404,-9.8435,1.1334,0.7255,0.6984,88,5.929,114,11.8206,3.3224,-13.821,0.3126,-0.3626,-0.3747,52
5.878,113,4.581,-1.6998,-11.406,1.5037,1.1761,0.8576,88,5.981,115,7.8566,1.3992,-10.2012,0.3514,0.372,-0.7551,52
5.93,114,7.2353,-6.4776,-16.3295,1.774,1.1503,1.2204,88,6.033,116,5.5795,-0.0791,-10.4176,-0.3706,0.9565,-0.5394,52
5.982,115,5.5617,-4.0121,-11.1889,1.0248,1.4006,1.2576,88,6.085,117,2.1441,-0.8969,-12.0331,-0.9476,1.383,0.2867,52
6.033,116,8.2754,-0.686,-10.8429,0.5684,0.8486,1.5853,88,6.137,118,6.6822,-2.6676,-6.1745,-0.8203,0.4304,0.5929,52
6.085,117,9.0837,0.6449,-15.9185,-0.0333,1.0852,1.723,88,6.188,119,2.0909,-0.8059,-10.5477,-0.2122,0.9991,0.3028,52
6.137,118,6.0483,5.3466,-19.5699,-0.6995,0.2939,1.1144,88,6.24,120,6.6433,-1.1705,-12.1749,0.031,1.4141,0.1359,52
6.189,119,5.2722,3.5402,-13.8488,-0.4928,0.3214,0.1393,88,6.292,121,9.9659,0.2667,-16.8669,0.6973,1.1151,0.053,52
6.241,120,3.3241,-0.1216,-12.128,0.3169,0.1568,-0.5723,88,6.344,122,8.0872,2.5328,-17.9059,1.1836,0.1473,-0.0145,52
6.292,121,4.8996,-5.0866,-11.0155,-0.4436,0.289,0.0318,88,6.396,123,7.041,2.3089,-17.096,1.5385,-0.5593,0.0312,52
6.344,122,5.1306,-4.7984,-11.2454,-0.1776,0.6497,-0.0932,88,6.447,124,5.5409,1.06,-13.3287,1.1813,-1.075,0.2836,52
6.396,123,7.0306,-1.6936,-12.2666,-0.2839,0.4766,-0.3502,88,6.499,125,7.6087,0.9023,-9.4908,0.3817,-1.3316,0.4758,52
6.448,124,9.6289,0.1994,-13.036,-0.31,-0.2999,0.2156,88,6.551,126,8.5808,1.8934,-8.9646,-0.0205,-1.4765,0.2445,52
6.5,125,9.0341,0.1281,-12.8194,-0.3579,0.1849,0.4192,88,6.603,127,11.38,1.7752,-12.26,0.0603,-1.6228,0.2076,52
6.551,126,8.3855,0.3394,-13.2149,-0.5031,-0.2034,0.3138,88,6.655,128,11.5379,3.1324,-12.9175,0.481,-0.8847,0.3199,52
6.603,127,7.0654,-0.3938,-13.4245,-0.2795,-0.2473,0.3079,88,6.706,129,8.2781,1.5252,-14.8539,-0.0416,-0.5565,0.358,52
6.655,128,5.0899,-2.2824,-11.6667,-0.3693,0.0151,0.8349,88,6.758,130,10.0011,2.1526,-10.2973,-0.2269,-0.5606,0.2329,52
6.707,129,4.2257,-1.7972,-10.4337,-0.0801,-0.3102,1.2871,88,6.81,131,8.417,0.0541,-8.5492,0.1599,0.2572,0.3543,52
6.759,130,3.115,2.3679,-12.5585,0.6181,-0.0032,1.3534,88,6.862,132,6.363,0.4978,-7.9659,-0.1984,0.8727,0.3556,52
6.811,131,7.5392,2.2168,-7.3038,-0.1384,0.3639,0.6115,88,6.914,133,5.1753,0.9828,-10.527,-0.8219,1.3219,0.5804,52
6.862,132,6.8791,4.2362,-8.2062,0.0189,-0.1882,0.5198,88,6.965,134,8.8945,6.0095,-5.0753,-0.3103,0.298,-0.0666,52
6.914,133,9.9118,2.4706,-10.5265,0.307,0.032,1.0332,88,7.017,135,10.0033,6.7924,-7.761,0.4482,0.3897,-0.0389,52
6.966,134,11.3716,7.1551,-11.8901,-0.2523,0.0263,0.7248,88,7.069,136,10.2257,4.7797,-10.3043,0.1775,0.4065,-0.0263,52
7.018,135,9.1984,7.9703,-11.642,-0.0832,-0.5991,-0.145,88,7.121,137,10.3031,4.1311,-11.5082,0.1246,0.9613,0.0009,52
7.069,136,7.7463,3.0008,-10.0909,-0.736,-0.6081,-0.7795,88,7.172,138,12.6369,2.6543,-9.5029,0.5503,1.3866,0.0951,52
7.121,137,6.0499,2.3847,-10.4293,-0.6261,-0.4124,-0.4942,88,7.224,139,9.188,4.3371,-12.1176,0.7734,0.9016,-0.1022,52
7.173,138,5.4362,-3.4966,-13.0395,-0.381,-0.5931,-0.2733,88,7.276,140,8.0872,3.4163,-12.7639,1.2391,-0.0088,-0.3519,52
7.225,139,9.2334,-2.0444,-14.0509,-0.0258,0.1428,-0.1849,88,7.328,141,7.7497,2.2152,-11.1717,0.9307,-0.6732,-0.2253,52
7.277,140,12.0047,-1.9858,-14.167,-0.4629,-0.224,-0.7413,88,7.38,142,7.1991,4.2906,-16.1348,0.4094,-0.5383,-0.0401,52
7.328,141,13.9515,-0.4694,-15.102,-0.953,-0.5478,-1.1197,88,7.431,143,10.3715,1.1816,-15.5221,0.5439,-0.6871,-0.0972,52
7.38,142,11.58,-1.7964,-14.2413,-0.9467,-0.245,-0.625,88,7.483,144,11.1928,-0.363,-18.9841,0.3303,-0.6209,-0.1621,52
7.432,143,8.65,-4.1012,-13.1417,-0.6916,-0.0894,0.2216,88,7.535,145,11.9364,0.9206,-16.409,0.5997,0.0863,-0.0652,52
7.484,144,9.4359,-4.126,-13.3144,0.1718,-0.1516,0.8393,88,7.587,146,9.9504,1.1592,-15.3324,0.2704,0.3516,-0.0486,52
7.536,145,8.9746,-2.3183,-13.3141,0.8019,-0.0049,1.1801,88,7.638,147,8.7887,0.6498,-10.5322,0.5381,0.9416,-0.1111,52
7.587,146,7.0337,3.6599,-17.312,1.2618,0.0805,0.9791,88,7.69,148,7.8969,0.8679,-10.3464,0.563,1.3722,-0.1047,52
7.639,147,10.3992,-2.5659,-10.051,0.4207,0.6784,1.2294,88,7.742,149,6.3994,0.6529,-12.981,-0.2661,1.6105,-0.02,52
7.691,148,9.3292,-1.2993,-9.1249,0.1025,0.5401,1.077,88,7.794,150,5.8942,0.8953,-17.4553,-0.8713,0.8505,0.4658,52
7.743,149,10.929,-0.4973,-10.1094,0.0159,-0.2238,1.2061,88,7.846,151,9.4192,5.9456,-10.1319,-0.0998,-0.0461,0.3535,52
7.794,150,10.9753,-2.6468,-12.3068,-0.2518,0.2011,1.4852,88,7.897,152,7.98,0.9943,-11.7263,0.2537,0.175,0.3354,52
7.846,151,7.6031,3.4202,-16.4736,-0.859,-0.0084,1.1378,88,7.949,153,9.7646,-2.2564,-13.032,0.3168,0.7814,0.2534,52
7.898,152,8.9451,3.3586,-14.8563,-1.3022,-0.1185,0.1564,88,8.001,154,10.0753,-0.4802,-11.3625,0.0688,1.2552,0.6587,52
7.95,153,6.7442,-1.4971,-13.1412,-1.4449,-0.015,-0.5599,88,8.053,155,6.4183,4.9417,-16.2741,0.7249,1.2509,-0.143,52
8.002,154,5.6453,-6.3297,-10.2472,-0.7166,-0.0442,0.1437,88,8.105,156,6.8322,0.2655,-16.7279,0.9887,0.2462,-0.581,52
8.054,155,4.2041,-5.4091,-9.5939,-0.725,0.6461,0.1654,88,8.156,157,5.9873,-0.4812,-13.6739,0.4929,-0.4871,-0.3959,52
8.106,156,8.3341,-3.9836,-10.1963,-0.5975,0.1523,-0.5498,88,8.208,158,5.9961,-2.8869,-7.372,0.0335,-0.7907,-0.5229,52
8.157,157,8.9416,0.5071,-9.77,-0.5558,-0.3556,-0.0675,88,8.26,159,9.4935,-2.6349,-7.0005,0.0909,-0.9569,-0.7283,52
8.209,158,11.7918,-0.2892,-11.1906,-0.7132,-0.7294,-0.2565,88,8.312,160,10.8069,-0.4237,-10.8066,0.2679,-1.12,-0.7255,52
8.261,159,9.4328,0.3037,-13.1296,-1.0154,-1.0367,-0.0167,88,8.364,161,12.4209,0.8485,-11.8713,0.4593,-0.3018,-0.336,52
8.313,160,9.9821,0.7261,-14.3333,-0.9149,-0.8554,-0.1442,88,8.415,162,11.0606,2.6136,-10.8378,0.8558,0.1712,-0.4676,52
8.364,161,6.8555,-1.8385,-12.1477,-0.7244,-0.3599,0.1138,88,8.467,163,9.2755,1.332,-8.3915,0.2694,-0.0676,-0.4034,52
8.416,162,4.2617,-1.9451,-10.811,0.1472,-0.0092,0.4245,88,8.519,164,6.9327,0.0493,-6.8937,-0.2481,0.6356,-0.1785,52
8.468,163,-0.5456,1.0203,-9.1611,0.698,0.6716,0.9441,88,8.571,165,6.49,0.1802,-7.7945,-0.4172,1.1489,-0.1116,52
8.52,164,4.8675,1.2612,-5.4554,1.186,0.5641,0.4045,88,8.622,166,4.5722,-0.8345,-10.1364,-0.9815,1.4536,0.0672,52
8.572,165,6.8022,1.5662,-6.2344,1.2603,-0.0688,-0.0853,88,8.674,167,7.1611,1.0419,-15.3792,-1.2517,0.7188,0.5613,52
8.623,166,9.3629,1.4387,-6.6152,0.9421,-0.0506,0.5568,88,8.726,168,4.565,-4.5364,-18.2611,-1.3617,0.4579,0.6277,52
8.675,167,7.6702,6.4019,-12.4708,0.3646,0.1806,0.5501,88,8.778,169,8.449,-7.1643,-17.5068,-1.0206,1.0192,0.5846,52
8.727,168,7.2159,6.9259,-14.1631,-0.4091,-0.5416,-0.2544,88,8.83,170,9.0418,-5.0784,-19.6078,-0.0702,1.4288,0.5792,52
8.779,169,5.3388,3.9371,-11.4944,-0.8284,-0.2536,-0.8597,88,8.881,171,9.1426,0.2742,-19.1036,0.6234,0.376,0.3431,52
8.831,170,1.7628,0.5109,-9.501,-0.6864,0.0785,-1.1127,88,8.933,172,7.8504,-2.0815,-18.7217,0.6835,-0.3924,0.749,52
8.882,171,6.5523,0.6461,-11.5562,0.0393,-0.2386,-0.2131,88,8.985,173,7.4754,-0.2477,-16.652,0.513,-0.9532,0.8654,52
8.934,172,10.0479,5.4004,-10.0022,0.6134,-0.5105,-0.4503,88,9.037,174,10.5732,3.7272,-9.5456,-0.3026,-0.9653,1.247,52
8.986,173,12.5505,3.7955,-12.5266,0.1055,-0.8365,-0.9295,88,9.088,175,12.834,-1.338,-12.1073,-0.3267,-0.2889,0.9339,52
9.038,174,12.0473,4.8087,-10.48,0.4401,-0.8177,-0.3563,88,9.14,176,13.1945,-0.3957,-10.6579,-0.2862,-0.7339,0.8863,52
9.09,175,10.6339,3.9011,-10.8358,0.6763,-0.563,-0.4179,88,9.192,177,13.9624,-0.6283,-10.8887,0.4658,-1.1315,0.5789,52
9.141,176,11.2751,0.5906,-11.8765,0.335,-0.5014,-0.8394,88,9.244,178,8.5463,-1.4019,-10.4733,0.5272,-0.3777,0.0522,52
9.193,177,10.0419,-2.8066,-12.0828,-0.4308,-0.4342,-0.0521,88,9.295,179,7.5062,2.4754,-7.4806,1.0519,0.2912,-0.4806,52
9.245,178,5.8014,-4.845,-9.975,-0.568,0.1301,0.6397,88,9.347,180,6.3966,1.583,-8.7109,0.0907,0.8975,-0.2984,52
9.297,179,3.0397,1.8158,-15.2851,-0.2144,-0.3584,1.1446,88,9.399,181,5.7482,2.3492,-10.9109,-0.6109,1.2743,0.3032,52
9.349,180,7.4842,2.9115,-19.1606,0.1814,-0.655,0.7519,88,9.451,182,2.6187,-3.5822,-15.9445,-1.1229,0.8521,0.7745,52
9.4,181,7.1034,6.5628,-17.5491,0.6938,-0.317,0.3722,88,9.503,183,6.1984,-7.0345,-17.823,-1.4856,0.1825,0.8255,52
9.452,182,10.4501,4.6071,-14.3142,1.1828,0.0382,0.9466,88,9.554,184,8.5635,-5.9492,-18.0111,-1.2015,0.5462,0.7441,52
9.504,183,8.0648,8.7144,-18.452,1.5398,-0.009,0.6086,88,9.606,185,11.1057,-5.1758,-16.9358,-0.6683,1.0836,0.6214,52
9.556,184,8.4726,10.7789,-19.8198,0.4486,-0.68,-0.2298,88,9.658,186,11.1559,-1.4714,-20.3417,0.1869,1.363,0.4401,52
9.608,185,8.6315,2.6299,-18.5136,-0.3478,0.1216,-0.8418,88,9.71,187,9.03,2.8318,-19.4175,0.8111,0.3286,0.4005,52
9.659,186,1.1952,-3.3176,-14.5871,-0.5714,0.7671,-1.2519,88,9.762,188,7.8499,0.5053,-18.3125,0.5773,-0.4269,0.2028,52
9.711,187,6.1381,-4.3152,-18.6512,0.2595,0.0306,-0.2359,88,9.813,189,7.5933,0.2633,-15.5453,-0.1391,-0.9784,0.1653,52
9.763,188,9.7456,-1.3366,-13.7766,-0.4809,0.35,-0.3052,88,9.865,190,7.6812,-1.8264,-10.5652,-0.3593,-1.3809,0.2458,52
9.815,189,11.4827,0.0608,-14.5511,-0.2088,-0.3243,0.063,88,9.917,191,10.7234,1.9661,-14.13,-0.7637,-0.6997,-0.0543,52
9.867,190,11.0721,0.0727,-14.0278,-0.8047,-0.0925,0.3691,88,9.969,192,12.9437,2.452,-15.385,-0.2577,-1.1775,-0.0631,52
9.918,191,9.2626,0.7513,-13.4136,-1.2625,-0.3362,0.6888,88,10.02,193,10.111,1.2624,-15.9325,0.0888,-0.1883,0.032,52
9.97,192,8.1398,-1.8695,-13.2047,-1.0507,-0.4556,0.7918,88,10.072,194,9.0312,1.9139,-14.0365,-0.6123,0.5393,0.5245,52
10.022,193,6.6362,-1.3791,-12.4784,-0.0903,-0.7004,0.5742,88,10.124,195,7.3126,1.0603,-11.8146,-0.2761,0.0501,0.3176,52
10.074,194,4.3622,-0.3872,-10.9445,0.6106,-0.0324,0.7402,88,10.176,196,7.1013,-0.3882,-10.8815,0.4732,0.4672,0.029,52
10.126,195,-1.7233,1.2095,-8.4459,0.4044,0.6547,1.1668,88,10.228,197,5.1881,0.7601,-9.634,1.0118,0.9796,-0.3011,52
10.177,196,4.008,-1.314,-3.5801,-0.2569,1.1248,0.8382,88,10.279,198,2.3344,-0.0137,-10.9837,0.0614,1.3999,0.009,52
10.229,197,3.8807,1.7033,-4.0111,-0.1924,1.2695,1.2075,88,10.331,199,-0.0451,-0.0273,-15.9976,0.7152,1.6978,0.5484,52
10.281,198,8.098,0.3147,-6.9684,-0.7999,0.9373,1.559,88,10.383,200,5.0844,-4.8765,-9.1929,-0.1551,0.9708,0.941,52
10.333,199,9.4436,5.5816,-12.3237,-1.0906,1.1174,1.3742,88,10.435,201,6.2989,-6.5051,-10.8608,-0.279,0.3045,0.6825,52
10.385,200,6.3074,3.3628,-15.8506,-0.5626,0.1972,0.6739,88,10.486,202,6.8814,-7.8269,-11.3188,-0.1828,0.9072,0.2105,52
10.436,201,6.4914,2.825,-13.9508,-1.057,0.018,-0.1822,88,10.538,203,6.0794,-0.8923,-16.2422,0.3713,1.3471,0.063,52
10.488,202,5.5815,-0.1966,-12.1599,-1.4461,0.3959,-0.807,88,10.59,204,4.8316,0.1477,-17.1199,0.2275,0.3164,0.0539,52
10.54,203,2.5154,-5.3806,-16.8592,-0.4906,0.3808,-0.0386,88,10.642,205,4.8587,1.5119,-17.9926,0.8407,-0.4359,-0.5732,52
10.592,204,-0.1238,-5.3562,-13.1381,-0.8711,0.9563,0.1017,88,10.694,206,5.5332,1.2493,-15.8858,1.1879,-0.9849,-0.2282,52
10.644,205,2.8416,-2.7103,-15.1929,-0.8903,0.9592,-0.5597,88,10.745,207,5.1242,-0.0584,-14.4804,0.5778,-1.3856,-0.2073,52
10.695,206,6.7303,-2.4462,-13.5167,-1.0501,0.0488,-0.1925,88,10.797,208,8.8571,4.8665,-14.05,-0.1532,-1.3438,-0.545,52
10.747,207,5.2279,-2.1966,-13.3042,-1.255,0.5035,-0.0772,88,10.849,209,11.5816,1.3941,-15.8178,0.346,-1.6058,-0.2861,52
10.799,208,4.3631,-1.218,-14.7185,-1.5912,-0.2758,0.0464,88,10.901,210,7.9188,0.8843,-17.6787,0.4085,-0.794,-0.2515,52
10.851,209,5.1685,-4.9372,-13.9898,-0.5162,-0.4221,-0.247,88,10.953,211,9.1184,0.9133,-18.3713,0.9543,0.1054,-0.4596,52
10.903,210,3.4443,-4.7189,-11.7202,0.2998,-0.0396,-0.1178,88,11.004,212,5.7388,1.5686,-15.3249,1.1142,0.6859,-0.6921,52
10.954,211,2.0877,-6.1209,-9.8659,0.8953,0.0988,0.5914,88,11.056,213,7.2819,1.0252,-13.3063,0.3848,1.0782,-0.5812,52
11.006,212,2.4685,0.8846,-15.2055,1.2766,-0.4989,0.0955,88,11.108,214,5.9158,2.0824,-12.6481,-0.1086,1.0981,-0.7912,52
11.058,213,0.8823,2.2115,-17.376,0.9422,-0.7959,-0.6043,88,11.16,215,3.8507,1.5094,-12.5389,-0.7563,1.3309,-1.1979,52
11.11,214,3.1828,2.5238,-16.89,0.7588,-0.5841,-0.1993,88,11.212,216,-1.3569,6.3726,-17.1327,-0.2005,1.3982,-0.4719,52
11.162,215,4.7964,3.4916,-16.1395,0.7381,-0.9791,0.4691,88,11.263,217,4.1269,-0.6458,-12.0001,-0.4108,0.6787,-0.0022,52
11.213,216,8.7664,0.7723,-16.1393,1.2152,-0.2443,1.0201,88,11.315,218,5.6161,1.1374,-13.0411,-0.2635,0.422,-0.3073,52
11.265,217,4.7265,5.9156,-19.784,1.0105,-0.0044,0.7755,88,11.367,219,5.6031,2.1708,-13.4644,0.2199,0.7088,-0.0545,52
11.317,218,8.7153,7.4226,-15.9765,0.0623,-0.6766,-0.108,88,11.419,220,7.4599,2.6831,-12.7257,-0.2776,1.1418,0.5024,52
11.369,219,5.7615,0.1803,-12.9567,-0.6297,0.1108,-0.7351,88,11.47,221,8.6508,-1.1929,-11.0367,0.3517,1.5183,0.3853,52
11.421,220,8.7302,-1.5103,-12.9681,-0.9678,-0.3511,-0.9151,88,11.522,222,4.6845,2.7222,-12.0258,0.0042,0.8878,0.3504,52
11.472,221,9.8578,-1.914,-15.2423,-0.9175,-0.7629,-0.7985,88,11.574,223,5.0271,3.0112,-14.2837,0.6777,-0.0188,0.1589,52
11.524,222,12.4604,0.7135,-14.4797,-0.801,-0.615,-0.7305,88,11.626,224,5.6743,3.6191,-12.6627,1.1624,-0.6805,0.5037,52
11.576,223,14.3599,-0.5103,-14.0686,-0.1823,-1.1223,-1.2066,88,11.678,225,3.4808,3.7041,-17.223,0.1713,-0.3539,0.5339,52
11.628,224,12.6445,-0.7977,-14.0456,0.1719,-0.5653,-1.2588,88,11.729,226,7.6578,-1.6638,-17.7047,-0.0603,-0.5978,0.3733,52
11.68,225,8.8235,0.3781,-17.7459,-0.0308,0.0783,-0.4843,88,11.781,227,10.2428,-0.1701,-18.4231,0.0973,-0.9951,0.4342,52
11.731,226,6.7151,-0.8345,-16.0494,0.0506,0.4223,0.271,88,11.833,228,11.8965,0.9203,-16.4763,0.3136,-0.2377,0.3721,52
11.783,227,6.2,-1.8521,-15.5772,0.2561,0.5201,0.8701,88,11.885,229,8.8078,2.4031,-15.5333,-0.2778,0.1056,0.3356,52
11.835,228,5.1497,-1.561,-14.672,0.8632,0.5757,1.3127,88,11.937,230,7.9988,3.0354,-11.1555,-0.7907,0.5539,0.3127,52
11.887,229,4.133,-0.172,-13.9731,1.3065,0.8048,1.595,88,11.988,231,7.6339,2.4327,-10.7506,-1.0819,1.0892,0.4413,52
11.938,230,8.2822,5.2264,-17.5922,0.6648,0.4249,0.5432,88,12.04,232,5.5904,2.5951,-12.8998,-1.4667,1.4789,0.743,52
11.99,231,7.0432,7.1562,-17.5525,0.7208,0.2891,-0.2243,88,12.092,233,3.5342,6.1368,-17.396,-1.6339,1.0124,1.09,52
12.042,232,9.6112,5.9843,-16.2203,0.6535,-0.4581,0.514,88,12.144,234,7.6967,-0.8179,-17.782,-1.5791,0.4512,1.0161,52
12.094,233,11.2225,3.1475,-16.5664,0.0976,0.036,1.0523,88,12.195,235,5.4733,0.5592,-18.1819,-1.2487,0.7851,0.7886,52
12.146,234,9.1714,7.462,-17.1908,-0.3207,-0.4173,0.384,88,12.247,236,9.112,0.1299,-17.3673,-0.6529,1.2577,0.667,52
12.197,235,11.4843,5.2711,-18.4658,-0.9093,-0.881,-0.3937,88,12.299,237,10.9369,-1.3153,-16.1983,0.1121,1.6029,0.5471,52
12.249,236,7.9871,0.7085,-14.7925,-0.8771,-1.0354,-0.9614,88,12.351,238,5.623,2.469,-17.4784,0.7369,1.4629,0.273,52
12.301,237,4.7701,-3.3773,-13.007,-1.3056,-0.6184,-1.1922,88,12.402,239,4.1849,-0.5684,-16.0446,1.2125,0.4018,0.0677,52
12.353,238,5.0051,-7.7019,-10.2435,-1.3132,0.227,-0.297,88,12.455,240,4.1968,-0.9107,-14.1254,1.5596,-0.2637,0.1154,52
12.405,239,7.7532,-4.3885,-11.4114,-0.9276,0.0983,-0.5265,88,12.506,241,3.8288,-0.1154,-13.2798,0.6631,-0.838,0.3914,52
12.457,240,8.5821,-0.5527,-10.5263,-0.5613,-0.5913,0.0681,88,12.558,242,7.1884,2.3159,-14.5857,-0.1911,-0.8051,0.3305,52
12.508,241,11.1646,-1.2332,-12.7851,-0.3704,-0.073,0.4633,88,12.61,243,10.3637,-2.3877,-12.9825,-0.1632,-0.9008,0.2334,52
12.56,242,9.0042,1.5589,-13.2947,-0.7004,-0.3059,0.7533,88,12.661,244,12.6812,-4.8152,-16.1475,-0.3192,-0.9854,0.1429,52
12.612,243,7.2282,-0.7704,-13.5229,-1.0275,-0.8891,0.9437,88,12.713,245,13.7817,-0.0907,-13.2241,-0.117,-0.0524,0.1562,52
12.664,244,5.0009,-1.7667,-11.7073,-1.0981,-0.1175,1.1087,88,12.765,246,13.1064,1.699,-10.8138,-0.7251,-0.4128,0.2612,52
12.716,245,3.0851,-1.268,-14.0899,-0.237,-0.2035,1.1113,88,12.817,247,10.1238,1.0197,-8.4515,-0.4953,0.2117,0.2363,52
12.767,246,1.8173,0.9895,-14.2865,0.5036,-0.0355,1.2782,88,12.869,248,7.8079,2.0669,-9.357,-0.2793,0.8394,-0.0591,52
12.819,247,6.5921,6.0741,-7.8429,0.3237,-0.6347,1.1408,88,12.92,249,6.8771,2.6442,-13.4452,-0.8797,0.8882,-0.3194,52
12.871,248,6.5859,4.5529,-12.1572,0.611,-1.0761,0.2799,88,12.972,250,0.0347,0.363,-16.9303,-0.615,0.4373,-0.3296,52
12.923,249,10.0724,-1.9141,-9.338,0.2311,-1.4363,0.882,88,13.024,251,5.1426,-5.0272,-9.7487,-1.1259,-0.282,0.4218,52
12.974,250,7.0656,3.9549,-14.8202,-0.4962,-0.9142,0.8677,88,13.076,252,1.3891,-3.0367,-13.6338,-1.4804,-0.8392,0.4471,52
13.026,251,7.0216,8.1749,-16.6653,-0.0172,-1.3257,-0.0407,88,13.127,253,6.0844,-2.4414,-14.4434,-0.8183,-0.0086,0.4187,52
13.078,252,4.5518,2.9005,-13.2401,-0.6878,-0.4258,-0.4013,88,13.179,254,9.5579,-2.748,-10.8454,-0.6479,0.6787,0.5279,52
13.13,253,4.4534,1.8523,-13.3394,-1.1772,-0.9016,-0.3867,88,13.231,255,1.5032,3.2866,-14.3631,0.2018,1.1803,-0.0856,52
13.182,254,3.7216,-1.6976,-12.7795,-0.5536,-0.3303,-0.9467,88,13.283,256,2.9885,1.0233,-14.3707,0.6738,0.1947,0.0497,52
13.234,255,7.1666,-2.4554,-15.8551,0.1964,-0.3987,-0.8889,88,13.335,257,4.117,0.9554,-13.2672,1.1665,-0.5247,0.1394,52
13.285,256,10.4963,-0.8778,-14.124,0.2057,-0.1005,-0.8537,88,13.386,258,1.7762,-1.7104,-15.1715,0.9573,-1.0498,0.5158,52
13.337,257,12.9264,-1.3513,-12.6695,0.0746,-0.7467,-1.2493,88,13.438,259,2.6552,0.7769,-19.054,0.0216,-0.5513,0.7237,52
13.389,258,13.1547,-1.0731,-14.4028,-0.0203,-0.3692,-0.8842,88,13.49,260,7.0552,-1.1488,-17.6845,0.6844,-0.8445,0.6133,52
13.441,259,10.1607,1.7927,-14.2416,0.1294,-0.1386,-0.7783,88,13.542,261,10.2665,-2.7012,-16.9059,0.6109,-1.1782,0.2504,52
13.493,260,9.1948,0.8288,-13.7428,0.5057,0.107,-1.106,88,13.594,262,8.2217,0.6381,-16.4165,1.0691,-0.2592,0.0421,52
13.544,261,5.8396,-1.4384,-11.9544,0.6612,0.7564,-0.8074,88,13.645,263,6.8165,2.1679,-14.9061,0.6925,0.3439,-0.0208,52
13.596,262,1.7215,-3.3381,-10.5167,0.9014,1.2091,0.0787,88,13.697,264,6.8245,1.6457,-10.9939,1.0065,0.8605,-0.4406,52
13.648,263,1.0234,-2.5945,-10.5557,1.3344,0.7759,0.7352,88,13.749,265,6.2011,1.1933,-10.7962,0.6569,1.313,-0.6127,52
13.7,264,6.0127,3.4583,-15.7089,1.169,-0.1058,0.8764,88,13.801,266,5.4298,0.5614,-11.4693,-0.1976,1.6433,-0.456,52
13.752,265,8.7172,2.6602,-10.9887,0.9723,-0.4127,0.3067,88,13.853,267,3.779,1.2558,-12.9041,-0.7498,1.7498,-0.1743,52
13.803,266,7.432,5.1789,-10.3287,0.7875,-0.3333,0.7971,88,13.904,268,7.8753,-0.432,-6.8102,-1.0881,0.6103,0.1981,52
13.855,267,10.6899,0.3387,-14.2964,0.5225,0.1921,1.2107,88,13.956,269,4.659,3.0998,-7.746,-0.1228,0.6954,0.0951,52
13.907,268,7.1598,5.5991,-17.7271,-0.2939,0.3386,1.2291,88,14.008,270,8.5176,2.1422,-9.5583,0.1439,0.8725,-0.1153,52
13.959,269,6.2508,7.0766,-17.3576,-0.8897,-0.4263,0.2231,88,14.06,271,9.7525,3.643,-8.4792,0.0275,1.3218,0.3419,52
14.011,270,5.3369,2.5316,-13.2392,-0.6665,-0.3263,-0.5112,88,14.112,272,5.6704,3.4227,-14.1697,0.598,1.6476,0.1569,52
14.062,271,2.919,-0.2435,-11.0318,0.1901,0.3344,-0.589,88,14.164,273,5.5019,2.2706,-14.6205,0.365,0.5357,0.0187,52
14.114,272,7.3962,-1.8894,-15.8502,0.7707,-0.1429,-0.0711,88,14.215,274,4.1099,0.9452,-11.5956,0.9409,-0.2758,-0.1735,52
