right_hand_timestamp,right_hand_index,right_hand_accel_x,right_hand_accel_y,right_hand_accel_z,right_hand_gyro_x,right_hand_gyro_y,right_hand_gyro_z,right_hand_battery_percentage,left_hand_timestamp,left_hand_index,left_hand_accel_x,left_hand_accel_y,left_hand_accel_z,left_hand_gyro_x,left_hand_gyro_y,left_hand_gyro_z,left_hand_battery_percentage,right_leg_timestamp,right_leg_index,right_leg_accel_x,right_leg_accel_y,right_leg_accel_z,right_leg_gyro_x,right_leg_gyro_y,right_leg_gyro_z,right_leg_battery_percentage,left_leg_timestamp,left_leg_index,left_leg_accel_x,left_leg_accel_y,left_leg_accel_z,left_leg_gyro_x,left_leg_gyro_y,left_leg_gyro_z,left_leg_battery_percentage,ball_timestamp,ball_index,ball_accel_x,ball_accel_y,ball_accel_z,ball_gyro_x,ball_gyro_y,ball_gyro_z,ball_battery_percentage
0.754,14,0.6967,-2.7493,-10.2284,0.3204,-1.9179,-0.7759,73,0.026,0,7.1156,6.3688,-7.0589,-0.7203,-0.6613,1.8779,88,0.568,10,8.7803,-1.4283,-10.1657,0.2209,-0.1483,-0.9993,70,0.371,7,7.222,-2.568,-13.1573,-0.3842,-0.3417,0.5289,40,80423.868,1555215,-3.7925,3.9367,-13.5618,-1.3717,-1.5445,0.8427,47
0.805,15,5.5651,-4.8714,-4.874,0.7886,-0.7173,-0.6197,73,0.078,1,8.472,6.9294,-7.583,0.1047,-0.5942,2.0359,88,0.619,11,8.9268,-1.6214,-10.4819,0.6975,0.5701,-1.0419,70,0.423,8,7.4007,-2.7066,-13.2139,-0.4119,-0.3679,0.5025,40,80423.92,1555216,-4.0448,3.3148,-10.9362,-1.679,-0.9839,-0.061,47
0.857,16,6.0109,-4.6284,-2.5256,-0.0965,0.0864,-0.2518,73,0.13,2,8.8534,6.6519,-8.1862,0.7481,-0.7046,2.1513,88,0.671,12,9.7636,-2.42,-11.3281,1.1812,1.0945,-1.0449,70,0.474,9,7.583,-2.7251,-13.1529,-0.423,-0.4437,0.5142,40,80423.971,1555217,-4.1886,2.8375,-9.7015,-1.9033,-0.6394,-0.7206,47
0.909,17,4.9241,-5.6013,-2.7592,-0.6055,0.7455,0.3408,73,0.181,3,9.0975,6.3228,-8.6714,1.2177,-0.9043,2.2355,88,0.723,13,9.4639,-3.5371,-14.7135,1.5386,1.4771,-0.9092,70,0.526,10,7.4669,-3.0013,-12.9146,-0.4648,-0.762,0.631,40,80424.023,1555218,-4.275,2.4294,-8.7872,-2.067,-0.449,-1.202,47
0.961,18,2.9898,-5.7802,-3.6012,-0.1492,1.0535,0.8738,73,0.233,4,8.684,5.9531,-9.2489,1.533,-1.1735,2.2969,88,0.775,14,8.1109,-7.4199,-18.7434,1.1399,1.0978,-0.2283,70,0.578,11,10.2019,-4.169,-13.3799,-0.6173,-1.2229,0.6564,40,80424.075,1555219,-4.3313,2.0869,-8.1283,-2.1864,-0.3609,-1.5533,47
1.013,19,1.1758,-5.3911,-3.5638,0.0823,1.3631,1.3143,73,0.285,5,8.2929,5.2604,-9.5418,1.2374,-1.4837,2.2994,88,0.827,15,7.6806,-4.0857,-18.8379,0.3174,0.2406,0.0408,70,0.63,12,12.5631,-4.4371,-13.7143,-0.1919,-1.5593,0.6603,40,80424.127,1555220,-4.3562,1.7763,-7.6597,-2.2736,-0.3573,-1.8097,47
1.064,20,-2.0139,-6.1737,-3.4758,0.0707,1.6773,1.6359,73,0.337,6,8.1745,4.4852,-9.4187,0.4871,-1.6114,2.0315,88,0.878,16,8.4358,-2.2428,-17.0959,0.8062,-0.1605,0.1814,70,0.681,13,10.3473,-3.8241,-11.4728,0.4698,-1.5767,0.1514,40,80424.178,1555221,-4.3746,1.5109,-7.3386,-2.3373,-0.4052,-1.9969,47
1.116,21,-3.6271,-6.4608,-3.8598,0.5844,1.4301,1.8706,73,0.389,7,7.8893,2.8963,-9.1836,-0.0696,-1.3316,1.3954,88,0.93,17,8.3376,-2.4113,-15.7046,0.7336,-0.3676,0.1707,70,0.733,14,8.268,-3.9972,-9.0477,0.6809,-0.8139,-0.5143,40,80424.23,1555222,-6.0897,6.4338,-2.7926,-2.3495,-0.3886,-2.1335,47
1.168,22,-3.701,-5.7223,-6.4296,1.0257,0.9484,2.0419,73,0.441,8,8.5226,1.0531,-10.071,0.4663,-1.0426,0.4575,88,0.982,18,8.513,-1.819,-14.2882,0.6111,-0.5156,0.2447,70,0.785,15,7.5537,-5.1804,-8.2865,0.832,0.0909,-1.0468,40,80424.282,1555223,-6.9813,9.3952,-0.2279,-2.0788,-0.3825,-2.2332,47
1.22,23,-1.3056,-2.38,-4.3246,1.3541,0.0262,1.5094,73,0.492,9,9.0175,1.0688,-10.0379,1.012,-0.6199,-0.3109,88,1.034,19,8.9777,-1.4692,-13.5694,0.6582,-0.7552,0.2178,70,0.837,16,7.6795,-6.8767,-9.3138,1.2819,0.7513,-1.4354,40,80424.334,1555224,-1.5579,10.8044,-1.3776,-1.6737,-0.5565,-1.8405,47
1.272,24,-1.4681,-0.7876,-5.0349,1.4805,-0.3185,0.7784,73,0.544,10,10.0435,0.5298,-9.14,1.1849,-0.152,-0.778,88,1.086,20,9.1105,-1.7857,-12.7104,0.4423,-1.0537,0.2094,70,0.889,17,7.4667,-8.2369,-14.5345,1.6103,1.2122,-1.719,40,80424.386,1555225,-1.0418,7.9412,-3.5392,-0.9397,-1.0693,-1.0372,47
1.323,25,0.3555,-1.0183,-6.5301,1.0499,-0.9018,-0.1067,73,0.596,11,10.3693,-0.724,-9.3609,1.5365,0.3999,-1.1399,88,1.137,21,10.6258,-2.2655,-11.8573,-0.0785,-1.4425,0.1357,70,0.94,18,4.3515,-9.3267,-18.5891,0.7496,0.6693,-0.9042,40,80424.437,1555226,-0.6573,5.8362,-5.1312,-0.4051,-1.4435,-0.4466,47
1.375,26,5.3162,3.3186,-3.4284,1.4406,-1.3275,-0.6484,73,0.648,12,9.65,-0.4293,-7.774,1.7576,0.9548,-0.9712,88,1.189,22,12.1683,-3.2976,-12.4108,-0.02,-1.7262,-0.1087,70,0.992,19,8.2932,-9.3156,-10.9594,0.2839,-0.1783,-0.9267,40,80424.489,1555227,4.8786,-0.9984,-11.7705,-0.3891,-1.7004,-0.1666,47
1.427,27,8.9368,0.4048,-1.9973,0.374,-0.6867,0.0089,73,0.7,13,8.36,0.0591,-8.2639,1.9545,0.925,-0.1334,88,1.241,23,10.315,-1.2715,-10.677,0.0327,-1.6084,-0.1234,70,1.044,20,9.1073,-9.0489,-12.4312,-0.0982,-0.4946,-0.5469,40,80424.541,1555228,3.7612,-0.4611,-10.3246,-0.9619,-1.8061,0.5541,47
1.478,28,11.4122,-3.1986,-1.053,-0.4044,0.1812,0.575,73,0.751,14,5.4864,1.403,-7.848,1.8905,0.5149,0.3199,88,1.293,24,9.6142,0.8085,-9.5792,0.1067,-0.7105,-0.1676,70,1.095,21,9.5143,-7.366,-12.7661,-0.4812,-0.2295,-0.1874,40,80424.592,1555229,3.0029,-0.1154,-9.8606,-1.3799,-1.8732,1.0801,47
1.53,29,8.2564,-3.2715,-1.774,-0.8535,0.8147,1.0963,73,0.803,15,5.5518,1.4272,-7.6231,1.2662,-0.2969,0.6746,88,1.344,25,9.0631,0.3726,-9.576,-0.0067,0.1598,-0.0916,70,1.147,22,9.7319,-5.7588,-12.6822,-0.1912,-0.5169,-0.1789,40,80424.644,1555230,2.4542,0.1326,-9.5065,-1.685,-1.9123,1.464,47
1.582,30,3.9899,-2.0799,-3.4909,-0.1396,1.1106,1.2597,73,0.855,16,7.6657,1.9689,-8.3857,0.2441,-0.8893,1.0696,88,1.396,26,9.623,-0.158,-10.2691,0.1839,0.795,-0.0139,70,1.199,23,9.2347,-5.0876,-12.6199,-0.3685,-0.5193,0.0015,40,80424.696,1555231,2.0443,0.3123,-9.2448,-1.9076,-1.9296,1.7442,47
1.634,31,-1.1174,-0.0973,-3.6225,0.5149,0.9098,1.0366,73,0.907,17,8.8225,1.3034,-9.4823,-0.5019,-0.8047,1.1403,88,1.448,27,10.5257,-1.7874,-13.3768,0.4562,1.2586,0.0364,70,1.251,24,9.0382,-4.4474,-12.663,-0.4284,-0.6893,0.2072,40,80424.748,1555232,1.755,0.4447,-9.0491,-2.0702,-1.9331,1.9487,47
1.686,32,-2.2743,-0.0449,-3.6317,0.6415,0.5606,0.4907,73,0.959,18,8.8388,0.4781,-9.3069,-1.0116,-0.5823,0.8914,88,1.5,28,7.0117,-5.5328,-17.7679,-0.285,1.5552,0.4159,70,1.303,25,9.2953,-4.6204,-12.8092,-0.5952,-1.0711,0.4021,40,80424.799,1555233,3.1903,-0.0331,-7.7768,-1.7221,-1.634,2.0979,47
1.737,33,-2.6101,0.9871,-4.7075,1.0392,0.5689,-0.317,73,1.011,19,8.0465,-0.3126,-10.182,-1.4183,-0.3445,0.9172,88,1.552,29,10.3832,-2.0354,-10.3837,0.3006,0.9374,0.2184,70,1.355,26,11.9014,-5.8185,-13.0793,-0.5918,-1.4485,0.4965,40,80424.851,1555234,1.9864,-2.4746,-5.6248,-1.2775,-1.549,1.9463,47
1.789,34,-1.0434,5.5754,-11.4322,0.1019,-0.2541,-0.6243,73,1.062,20,6.9069,-1.2336,-9.7554,-1.3564,-0.0794,1.2756,88,1.603,30,2.8249,1.2058,-12.535,0.8366,0.5496,0.3123,70,1.406,27,9.8258,-3.487,-14.2378,-0.0561,-1.724,0.7304,40,80424.903,1555235,1.5696,-0.5142,-6.7744,-0.9284,-1.4172,1.4726,47
1.841,35,-6.2938,5.266,-10.6885,0.2278,-0.021,-0.6313,73,1.114,21,7.4379,-0.4323,-9.6933,-0.3705,0.0468,1.0128,88,1.655,31,4.9788,-0.649,-12.0896,0.0186,0.3238,0.4795,70,1.458,28,8.0992,-3.321,-12.0843,-0.0971,-1.3665,0.6526,40,80424.955,1555236,1.159,-0.3038,-7.6537,-0.6195,-1.3382,1.0485,47
1.893,36,-1.3294,4.4285,-10.5327,0.1716,-0.6847,-1.1358,73,1.166,22,8.5373,-0.458,-10.9375,0.3132,0.3769,0.4892,88,1.707,32,5.3511,-1.6008,-11.8927,0.0748,0.0166,0.3625,70,1.51,29,6.7584,-2.3404,-10.693,-0.0288,-0.519,0.6076,40,80425.006,1555237,0.8404,-0.0849,-8.3436,-0.3955,-1.2827,0.7369,47
1.945,37,4.0865,0.997,-14.702,-0.5521,-0.0759,-0.2243,73,1.218,23,7.8365,-0.7792,-12.4912,0.7128,0.7348,0.0514,88,1.759,33,6.4061,-2.255,-11.9765,0.0613,-0.1819,0.2097,70,1.562,30,7.5697,-1.718,-10.6996,-0.1378,0.3062,0.2337,40,80425.058,1555238,2.2417,0.7833,-3.5261,-0.9654,-0.2475,1.2135,47
1.996,38,8.0393,1.7125,-11.889,0.1999,0.627,0.4795,73,1.27,24,8.7343,-1.361,-11.4844,-0.1486,0.1478,-0.0191,88,1.811,34,6.991,-2.1187,-11.7494,0.1775,-0.3814,0.116,70,1.613,31,8.7224,-1.7399,-11.0779,-0.0531,0.9084,-0.2887,40,80425.11,1555239,2.097,0.2551,-4.566,-1.3825,0.508,1.5614,47
2.048,39,4.5157,-0.0906,-8.6384,-0.5202,1.14,1.0266,73,1.322,25,8.4662,-1.3126,-11.5789,-0.7544,-0.0619,0.1166,88,1.863,35,7.5173,-1.8967,-11.5074,0.094,-0.5869,0.1088,70,1.665,32,10.8646,-2.3178,-12.1168,0.0426,1.348,-0.7737,40,80425.162,1555240,1.9763,-0.147,-5.3229,-1.6869,1.0595,1.8153,47
2.1,40,1.1105,0.0967,-7.3927,-0.2207,1.5145,1.0616,73,1.373,26,7.7722,-4.4655,-12.0375,-0.4234,-0.3166,0.0687,88,1.914,36,7.6854,-2.4112,-11.6565,0.0283,-0.8187,0.1323,70,1.717,33,9.7299,-3.901,-14.6317,-0.0271,1.6688,-0.8997,40,80425.214,1555241,1.8917,-0.4736,-5.8752,-1.909,1.4619,2.0005,47
2.152,41,0.0576,-0.3907,-7.7711,0.0052,1.7878,0.8879,73,1.425,27,7.9056,-4.639,-11.1282,0.3627,-0.3062,0.106,88,1.966,37,8.4821,-2.1336,-12.0733,-0.0836,-1.2478,0.2088,70,1.769,34,5.7673,-4.0216,-18.3888,0.1036,1.9029,-0.7876,40,80425.265,1555242,1.8143,-0.7171,-6.2709,-2.0705,1.7556,2.1358,47
2.204,42,-2.8003,0.1571,-8.9682,0.3307,1.9872,1.1274,73,1.477,28,8.0504,-2.4073,-10.1688,0.1244,0.0211,0.489,88,2.018,38,11.4563,-2.0924,-13.0571,-0.5998,-1.5841,0.3602,70,1.821,35,9.3266,-4.0786,-10.8132,-0.0862,0.7565,-0.331,40,80425.317,1555243,1.7523,-0.9161,-6.5496,-2.1835,1.97,2.2345,47
2.255,43,-5.5826,0.0474,-9.9711,0.3976,1.7532,1.3785,73,1.529,29,6.6307,-3.8509,-10.9388,-0.2372,0.0733,0.8852,88,2.069,39,12.0273,-3.4023,-12.1769,-1.1121,-1.6362,0.2992,70,1.872,36,7.8685,-2.3304,-11.932,-0.0177,0.1367,-0.4958,40,80425.369,1555244,-3.9526,-3.4448,-12.8057,-1.8033,1.4321,2.3065,47
2.307,44,-5.9284,0.057,-13.6705,0.8597,0.7307,1.0488,73,1.581,30,7.1971,-3.113,-11.4891,-0.5797,-0.045,0.9979,88,2.121,40,9.4389,-2.6706,-12.5271,-0.4107,-1.6902,0.2242,70,1.924,37,10.1521,-4.3131,-12.9135,-0.1869,-0.5421,-0.6643,40,80425.421,1555245,-2.494,-3.1702,-10.4321,-1.1331,0.3948,2.3591,47
2.359,45,-2.39,0.7772,-17.9739,1.3018,-0.1361,0.1045,73,1.632,31,7.9675,-2.1346,-10.4246,-0.9738,-0.4197,0.9219,88,2.173,41,7.8283,-2.2928,-11.5243,-0.3757,-0.9309,0.1125,70,1.976,38,9.5531,-3.3991,-12.8854,-0.2387,-0.488,-0.3395,40,80425.472,1555246,-1.7814,-1.9861,-9.9056,-0.4548,-0.3749,2.3975,47
2.411,46,-3.6715,5.0724,-10.527,1.5589,0.5608,0.1179,73,1.684,32,8.444,-2.1878,-11.8124,-1.1511,-0.4544,0.6709,88,2.225,42,6.4518,-1.1502,-11.0834,-0.432,-0.0011,-0.1389,70,2.028,39,9.5985,-3.4533,-12.8335,-0.1161,-0.4865,-0.0801,40,80425.524,1555247,-0.7921,-1.2655,-9.4349,0.0248,-0.9367,2.4255,47
2.463,47,2.377,7.792,-15.6796,0.9565,-0.26,-0.3295,73,1.736,33,9.33,-3.407,-13.6172,-0.1921,0.1081,0.1296,88,2.277,43,5.9315,-0.9794,-11.0754,-0.3538,0.6776,-0.2496,70,2.079,40,9.8072,-3.5049,-12.6955,-0.1478,-0.4968,0.1245,40,80425.576,1555248,-0.0286,-1.2744,-9.2811,0.0,0.005,2.0632,47
2.514,48,5.6691,3.734,-9.9241,0.039,0.4927,0.3458,73,1.788,34,10.53,-2.9272,-12.4142,-0.5394,-0.3606,-0.2678,88,2.328,44,6.8951,-0.9238,-11.6364,-0.0386,1.1729,-0.2428,70,2.131,41,8.7051,-3.7899,-12.5912,-0.0277,-0.5864,0.1162,40,80425.628,1555249,0.0799,-1.0924,-8.3238,-0.0088,0.6923,1.7984,47
2.566,49,9.1942,3.7034,-8.2928,-0.0221,1.042,0.929,73,1.84,35,7.0678,-5.1995,-12.8599,-1.0692,-0.1955,-0.1912,88,2.38,45,9.2255,-1.0364,-13.1462,-0.3371,1.5344,0.0394,70,2.183,42,7.341,-2.9073,-12.8751,-0.4399,-0.4967,0.2094,40,80425.68,1555250,0.1527,-0.9705,-7.655,-0.0059,1.194,1.6052,47
2.618,50,6.958,3.1386,-8.9444,0.2199,1.4429,0.6558,73,1.891,36,6.2071,-3.733,-11.6671,-1.4604,-0.1171,0.5258,88,2.432,46,9.2768,-1.7617,-17.5996,-0.8947,1.7982,0.2863,70,2.235,43,8.2299,-2.6147,-12.9012,-0.7447,-0.6993,0.2346,40,80425.731,1555251,0.2002,-0.8776,-7.1777,0.0056,1.5601,1.4644,47
2.67,51,2.5121,2.8423,-13.2473,-0.2769,1.7355,0.0391,73,1.943,37,5.7947,-4.0886,-12.124,-1.7459,-0.0873,0.955,88,2.484,47,11.1105,-4.4007,-10.2609,-1.3282,1.2481,0.4531,70,2.287,44,10.2338,-4.3295,-13.1161,-0.836,-1.1772,0.3541,40,80425.783,1555252,0.2317,-0.8062,-6.8258,0.0219,1.8273,1.3622,47
2.721,52,-2.8911,5.0054,-16.2879,0.4611,0.7897,-0.3757,73,1.995,38,4.3491,-4.6969,-11.9215,-1.1351,0.4175,0.8738,88,2.535,48,13.3747,-4.4006,-7.7895,-1.0614,0.6535,0.3995,70,2.338,45,11.1659,-4.5421,-12.8142,-0.556,-1.3454,0.8361,40,80425.835,1555253,5.5275,4.2107,-3.5206,0.5642,1.752,1.4763,47
2.773,53,-7.0307,3.4414,-14.0473,-0.2284,-0.0628,-0.8554,73,2.047,39,3.5729,-2.2527,-11.8893,-0.9608,0.6892,0.8951,88,2.587,49,14.0161,-3.6832,-9.8456,-1.3524,0.2604,0.5311,70,2.39,46,9.9709,-3.2985,-13.1731,-0.5785,-1.4743,0.9889,40,80425.886,1555254,5.1619,6.1422,-8.195,1.0857,0.8072,1.0215,47
2.825,54,-4.9318,-0.8634,-18.2489,0.1833,-0.7152,-0.5579,73,2.099,40,5.4535,-1.3415,-11.946,-1.3813,-0.0606,1.1144,88,2.639,50,12.7968,-3.9173,-10.7453,-1.2497,0.0272,0.4193,70,2.442,47,8.5794,-2.8924,-10.7939,0.1964,-1.2842,0.7607,40,80425.938,1555255,3.8921,4.4592,-7.5068,1.4663,-0.074,0.501,47
2.877,55,-4.9863,1.386,-19.9793,0.8081,0.1605,-0.1966,73,2.151,41,7.0288,-1.3687,-13.4211,-1.6091,-0.1924,1.0392,88,2.691,51,11.4314,-3.4712,-11.0008,-1.273,-0.055,0.3114,70,2.494,48,7.8211,-2.4786,-9.9015,0.6433,-0.5248,0.3023,40,80425.99,1555256,2.9124,3.2631,-6.8352,1.744,-0.7171,0.1196,47
2.929,56,-2.4069,5.1326,-21.6794,1.2642,-0.5522,-0.2578,73,2.202,42,8.0344,-2.1665,-15.62,-0.5077,0.2182,0.4533,88,2.743,52,10.8386,-3.7149,-10.9458,-0.9576,-0.2013,0.1585,70,2.545,49,7.5387,-2.8569,-10.162,0.6011,0.3019,-0.0848,40,80426.042,1555257,1.8095,2.2918,-9.2778,0.595,0.1379,0.0611,47
2.98,57,3.3001,-1.4518,-23.8191,0.2453,0.2794,0.4885,73,2.254,43,6.7615,-1.1981,-14.6777,0.2352,0.1177,-0.0276,88,2.794,53,9.904,-3.6794,-11.2968,-0.6007,-0.4126,-0.1101,70,2.597,50,9.0378,-2.8253,-11.7229,0.2897,0.9053,-0.4216,40,80426.093,1555258,1.409,1.831,-7.5817,-0.2436,0.7893,0.016,47
3.032,58,4.8339,-6.2573,-16.0661,0.1882,0.5984,1.0332,73,2.306,44,7.001,-2.6589,-14.469,-0.3215,0.2344,-0.0491,88,2.846,54,8.9293,-3.1375,-11.9802,0.1301,-0.74,-0.4364,70,2.649,51,9.0963,-3.269,-15.0006,-0.1038,1.3457,-0.3851,40,80426.145,1555259,1.1328,1.4882,-6.2333,-0.8557,1.2647,-0.0456,47
3.084,59,3.7779,-6.8533,-14.1144,-0.3122,1.1192,1.4307,73,2.358,45,6.8214,-2.7742,-15.1514,-0.0709,0.0792,-0.216,88,2.898,55,9.4044,-2.5209,-11.7387,0.1628,-1.1682,-0.613,70,2.701,52,4.8676,-4.4776,-18.9293,0.431,1.6671,-0.3904,40,80426.197,1555260,0.9364,1.2355,-5.2666,-1.3024,1.6117,-0.0919,47
3.136,60,0.9735,-1.6092,-15.1411,0.4465,1.4992,1.7208,73,2.41,46,6.0312,-2.3022,-14.3537,0.5708,0.2307,-0.3787,88,2.95,56,12.1295,-3.2958,-12.2472,-0.0866,-1.526,-0.6392,70,2.753,53,5.0665,-3.8598,-21.7966,-0.356,1.7086,0.2869,40,80426.249,1555261,0.817,1.0568,-4.5686,-1.6284,1.865,-0.1234,47
3.187,61,-1.6798,0.698,-15.9511,0.9098,1.3433,1.9326,73,2.461,47,5.4072,-2.4386,-13.9137,0.6244,0.3907,-0.3638,88,3.002,57,11.7678,-2.7943,-12.1544,-0.1089,-1.7376,-0.6284,70,2.805,54,5.4885,-3.7883,-20.8461,-0.764,0.7413,0.2415,40,80426.3,1555262,5.9546,2.3668,-0.771,-1.4379,2.0498,-0.7661,47
3.239,62,-0.5005,4.6081,-19.2234,1.3384,0.3111,1.6023,73,2.513,48,5.324,-2.0032,-13.4385,0.8641,0.4026,-0.3552,88,3.054,58,11.2932,-0.8866,-11.1995,0.0284,-1.3913,-0.3823,70,2.856,55,6.0004,-3.347,-18.7644,-0.4908,0.4625,0.1894,40,80426.352,1555263,9.7043,7.0585,-0.1757,-1.0651,2.1847,-1.2352,47
3.291,63,4.6914,1.844,-11.439,1.6512,-0.4423,1.2726,73,2.565,49,5.0571,-1.5607,-12.6442,1.2769,0.0842,-0.4449,88,3.105,59,10.8974,0.0873,-10.1225,0.1735,-0.6712,-0.1239,70,2.908,56,6.3721,-3.8325,-17.2117,-0.5029,0.2898,0.3266,40,80426.404,1555264,7.7215,6.1381,-2.1385,-0.1035,2.2155,-1.5776,47
3.343,64,-2.1083,2.2906,-11.8848,0.608,-0.6228,0.8717,73,2.617,50,7.6023,-1.2484,-11.9679,0.4298,-0.5629,-0.667,88,3.157,60,10.3929,0.0893,-9.7456,-0.0261,0.1885,0.2159,70,2.96,57,6.5946,-4.0065,-16.4559,-0.4231,0.0571,0.2501,40,80426.456,1555265,6.4782,5.3296,-3.8856,0.5984,2.2696,-1.8274,47
3.395,65,3.5179,7.0617,-6.1102,-0.2336,-1.1239,0.9267,73,2.669,51,8.7847,-2.7517,-14.2451,-0.3663,-0.3878,-0.0507,88,3.209,61,10.3892,-0.2155,-9.7411,-0.128,0.8159,0.5339,70,3.012,58,7.0268,-4.1505,-14.9155,-0.2946,-0.1341,0.0767,40,80426.507,1555266,7.5965,6.3982,-0.2725,0.499,0.9934,-0.658,47
3.446,66,7.6241,-0.0438,-9.8512,-0.8479,-0.3135,1.353,73,2.72,52,9.176,-3.772,-13.3263,0.31,-0.5028,-0.1338,88,3.261,62,10.474,-0.7826,-9.9962,-0.4499,1.2738,0.8382,70,3.063,59,6.9895,-3.7245,-14.4839,0.0251,-0.4026,-0.0436,40,80426.559,1555267,5.5668,5.8136,-2.0235,0.2793,0.0619,0.1954,47
3.498,67,8.6362,5.358,-7.6752,0.0556,0.1136,1.0002,73,2.772,53,7.4145,-2.1618,-13.1784,-0.1613,-0.7066,0.266,88,3.313,63,10.4957,-1.3019,-10.3548,-0.8778,1.6081,1.1345,70,3.115,60,7.1756,-3.5217,-13.8896,-0.0419,-0.6571,0.061,40,80426.611,1555268,4.2851,5.3846,-3.4383,0.0628,-0.6179,0.8183,47
3.55,68,6.1113,3.9719,-6.2605,-0.6368,0.7653,0.8009,73,2.824,54,7.5977,-2.184,-12.3211,-0.7978,-0.5351,0.674,88,3.364,64,10.0634,-0.4157,-11.38,-1.3158,1.852,1.3698,70,3.167,61,7.0558,-3.4001,-14.349,-0.284,-0.8455,0.0722,40,80426.662,1555269,3.3979,5.0635,-4.4654,-0.141,-1.1141,1.2729,47
3.602,69,-0.0696,4.6288,-5.8543,-0.7269,1.241,0.1974,73,2.876,55,7.3548,-1.9154,-12.4391,-0.6321,-0.2414,0.8662,88,3.416,65,7.9299,1.4708,-14.5582,-1.6356,1.9275,1.0,70,3.219,62,7.0958,-3.2033,-14.5129,-0.5551,-1.2567,0.232,40,80426.714,1555270,2.7934,4.8203,-5.2319,-0.3447,-1.4762,1.6047,47
3.654,70,-0.4976,4.2314,-6.5447,0.1403,1.5881,-0.4329,73,2.928,56,7.4701,-1.3235,-12.5756,0.0858,-0.0029,1.093,88,3.468,66,11.0534,6.4254,-12.3813,-0.7016,0.9115,0.4991,70,3.27,63,10.2961,-6.3616,-16.9513,-0.425,-1.584,0.639,40,80426.766,1555271,2.3979,4.6376,-5.7984,-0.5378,-1.7405,1.8469,47
3.706,71,-1.9439,6.4715,-8.1089,0.7751,1.8415,-0.9911,73,2.98,57,6.8152,-1.1773,-12.6565,0.322,0.1997,1.1737,88,3.52,67,2.7431,7.0445,-17.0413,-1.1293,1.0576,0.2058,70,3.322,64,12.6319,-4.9759,-15.4968,-0.1472,-1.8229,1.1467,40,80426.818,1555272,2.1848,4.4548,-6.194,-0.7319,-1.9334,2.0236,47
3.757,72,-1.9344,5.7277,-10.4634,0.1512,1.2394,-1.3984,73,3.031,58,6.2031,-0.8962,-13.5511,0.0984,0.3447,1.225,88,3.572,68,5.3259,3.9919,-16.1845,-1.1685,0.1018,0.3232,70,3.374,65,9.434,-3.2051,-14.9665,-0.2885,-0.8037,1.5173,40,80426.87,1555273,2.1861,5.3911,-2.4489,-0.4794,-2.0673,2.0993,47
3.809,73,-1.3782,3.3835,-15.6332,-0.0053,0.2352,-1.6957,73,3.083,59,6.8215,-1.3008,-13.9777,-0.3123,0.012,1.1702,88,3.623,69,4.9288,2.1729,-15.9468,-1.0194,-0.3422,0.1892,70,3.426,66,9.2155,-2.2593,-15.4217,0.4641,-0.2953,1.7374,40,80426.921,1555274,2.223,4.4768,-4.1622,0.324,-1.4894,0.8561,47
3.861,74,0.7081,-0.8607,-19.4063,0.1063,-0.278,-1.6161,73,3.135,60,6.2673,-1.2803,-14.4404,-0.9079,-0.4517,0.7617,88,3.675,70,6.1557,0.1901,-15.6248,-0.932,-0.503,-0.066,70,3.478,67,7.9625,-1.3354,-15.3486,1.0134,0.4694,1.4209,40,80426.973,1555275,1.9756,3.5167,-5.4988,0.9103,-1.0298,-0.0512,47
3.913,75,5.5734,0.1242,-22.1601,0.752,-0.8722,-1.4618,73,3.187,61,6.3656,-2.3908,-17.3735,-1.3427,-0.004,0.8081,88,3.727,71,6.9533,-0.8914,-15.2512,-0.8468,-0.4429,-0.2382,70,3.529,68,9.3759,-0.1499,-16.0714,0.6504,1.0276,0.7371,40,80427.025,1555276,-0.9751,3.4184,-1.4499,0.3243,-1.1432,0.5005,47
3.964,76,5.067,2.1579,-15.5263,-0.1286,0.0458,-1.2405,73,3.239,62,7.5192,-2.8982,-17.3585,-0.3082,-0.2709,0.4725,88,3.779,72,5.4406,-1.5998,-14.8642,-0.7753,-0.3801,-0.4798,70,3.581,69,10.3981,-0.538,-16.2952,-0.2024,1.4349,0.4378,40,80427.077,1555277,-0.6195,2.6548,-3.5672,-0.0805,-1.2495,0.9535,47
4.016,77,8.7549,-3.6228,-11.0319,-0.7712,-0.6359,-0.3324,73,3.29,63,7.5199,-2.91,-17.9201,-0.3253,-0.1606,0.4446,88,3.83,73,7.4187,-1.2023,-14.2956,-0.5244,-0.5852,-0.7662,70,3.633,70,11.0303,-1.2052,-17.0085,-0.7182,1.7322,0.3422,40,80427.128,1555278,-0.3682,2.0859,-5.1641,-0.3807,-1.3233,1.2828,47
4.068,78,7.4207,-5.9991,-6.2379,-1.0806,0.2183,0.434,73,3.342,64,7.2768,-2.8937,-17.7825,-0.8915,0.0562,0.3661,88,3.882,74,8.9982,-1.9719,-13.5438,-0.4303,-1.1005,-0.9516,70,3.685,71,9.2543,-0.4019,-20.3947,-0.6252,1.9492,0.4851,40,80427.18,1555279,-0.1809,1.6598,-6.3318,-0.6049,-1.3735,1.5228,47
4.12,79,2.6577,-3.871,-4.3592,-0.1266,0.8418,0.9934,73,3.394,65,5.9585,-2.9173,-17.2433,-0.6305,0.2306,0.2198,88,3.934,75,11.8331,-3.8391,-12.9704,-0.9892,-1.4766,-0.7107,70,3.737,72,11.8715,-4.7037,-12.2772,0.2184,0.7558,-0.3174,40,80427.232,1555280,-0.0341,1.338,-7.1836,-0.7724,-1.407,1.6973,47
4.172,80,-2.2522,2.1686,-5.742,0.582,1.2968,1.0111,73,3.446,66,4.996,-2.438,-15.7953,-0.5077,0.2491,0.2172,88,3.986,76,8.7432,-1.7203,-13.755,-1.1033,-1.576,-0.1507,70,3.788,73,5.4791,0.7522,-8.6246,0.5983,1.2015,0.2863,40,80427.284,1555281,-5.1215,3.7878,-2.6795,-0.7222,-1.0052,1.4029,47
4.223,81,-2.4891,3.9281,-9.8013,0.983,0.7855,0.1215,73,3.498,67,3.9041,-2.0335,-14.8848,-0.5587,0.2966,0.1844,88,4.038,77,7.2773,-1.921,-13.7779,-0.1473,-1.285,0.5677,70,3.84,74,9.1162,-4.7478,-6.6463,-0.0794,0.2101,-0.2275,40,80427.336,1555282,-0.9657,0.239,-4.4658,0.0554,-0.2276,1.0504,47
4.275,82,-1.0579,4.1253,-15.1499,0.2977,-0.0961,-0.5864,73,3.549,68,2.6057,-2.1321,-13.8567,-1.0878,0.2481,0.2681,88,4.09,78,7.5181,1.4845,-13.7749,-0.1639,-0.2599,0.911,70,3.892,75,7.4818,-4.985,-9.7302,-0.3839,0.0316,-0.2172,40,80427.387,1555283,1.4626,-0.1568,-5.9138,0.3434,0.5226,0.7098,47
4.327,83,-2.483,4.964,-13.9618,0.8917,0.6123,-0.3908,73,3.601,69,4.4255,-2.2678,-13.0904,-1.4739,-0.3411,0.6312,88,4.141,79,8.244,2.1398,-14.3217,-0.6537,0.4887,0.8515,70,3.943,76,6.9898,-4.6636,-11.0095,-0.1735,0.1428,-0.16,40,80427.439,1555284,1.1674,0.3151,-5.5575,0.5799,1.0701,0.0416,47
4.379,84,-2.1071,5.1632,-13.0023,0.9374,-0.2224,-0.7006,73,3.653,70,7.2941,-2.5378,-15.5304,-0.6195,0.2305,0.7927,88,4.193,80,8.5646,1.9356,-14.1456,0.1994,1.035,0.5686,70,3.995,77,7.0263,-4.5132,-11.7357,-0.0241,0.1295,-0.2379,40,80427.491,1555285,0.7809,0.817,-5.4098,0.7325,1.4696,-0.4466,47
4.431,85,3.519,9.1583,-11.4055,0.0068,-0.8317,-1.1467,73,3.705,71,8.5212,-2.2644,-16.6709,0.2196,0.8473,0.4887,88,4.245,81,8.7324,1.2225,-13.6009,0.1972,1.4337,0.3288,70,4.047,78,7.1469,-4.1528,-12.1167,0.1188,0.041,-0.3039,40,80427.543,1555286,0.4604,0.269,-5.5987,0.5278,0.4095,-0.9277,47
4.482,86,3.6484,4.1116,-8.7846,0.6793,0.0754,-1.4323,73,3.757,72,8.1549,-1.8741,-17.0191,0.2233,1.1114,0.5027,88,4.297,82,8.9893,-0.1462,-13.0458,-0.0636,1.7248,0.3563,70,4.099,79,6.9693,-4.0829,-12.5448,0.0598,-0.013,-0.2756,40,80427.594,1555287,0.4232,-0.1411,-5.3143,0.3955,-0.3642,-1.3074,47
4.534,87,-0.7197,5.6595,-5.1622,-0.0864,0.1276,-1.0055,73,3.808,73,8.2412,-1.5224,-17.1873,-0.1847,1.0728,0.608,88,4.349,83,9.344,-0.9489,-12.7837,-0.7217,1.9372,0.5919,70,4.151,80,6.6969,-4.1517,-12.8509,-0.0715,-0.1343,-0.1572,40,80427.646,1555288,0.3986,-0.4461,-5.0826,0.3216,-0.9289,-1.588,47
4.586,88,0.6542,1.9273,-3.9387,-0.5522,0.3226,-0.751,73,3.86,74,7.6962,-1.0946,-16.8519,-0.7651,1.0718,0.6757,88,4.4,84,9.3683,-1.2077,-12.9363,-1.2019,2.0922,0.9018,70,4.202,81,6.9326,-4.4664,-13.5784,-0.2208,-0.3253,-0.0966,40,80427.698,1555289,0.3825,-0.673,-4.9069,0.2866,-1.341,-1.7956,47
4.638,89,-0.7032,3.0363,-4.5954,0.2665,0.9179,-0.5915,73,3.912,75,6.9878,-0.7678,-16.0005,-0.8276,1.009,0.6754,88,4.452,85,7.5665,0.0256,-15.237,-1.5524,2.1993,0.7043,70,4.254,82,7.5302,-4.5702,-13.6974,-0.432,-0.8085,0.0563,40,80427.75,1555290,0.3858,-0.8615,-4.7688,0.2844,-1.6418,-1.9497,47
4.69,90,-2.0242,2.828,-4.594,0.6011,1.3456,-0.5238,73,3.964,76,6.4605,-0.6044,-15.0474,-0.9738,0.932,0.7725,88,4.504,86,7.6572,-5.2184,-9.008,-1.2071,1.3662,0.4979,70,4.306,83,7.6173,-4.8157,-14.4189,-0.8842,-1.2346,0.4788,40,80427.801,1555291,0.3988,-0.9979,-4.6613,0.3025,-1.8614,-2.064,47
4.741,91,-4.3353,3.9943,-4.5761,1.1131,1.6645,-0.4606,73,4.016,77,6.0313,-0.501,-14.0501,-0.9427,0.9105,0.8322,88,4.556,87,10.8543,-1.0594,-9.4643,-1.2952,1.2828,0.415,70,4.358,84,10.6767,-5.825,-12.8461,-0.8781,-1.5678,1.0298,40,80427.853,1555292,0.4279,-1.1017,-4.595,0.3384,-2.0216,-2.1492,47
4.793,92,-6.2418,4.4843,-5.174,1.4867,1.8042,-0.755,73,4.067,78,5.7349,-0.284,-13.4078,-0.9412,0.8866,0.873,88,4.607,88,13.1877,0.4598,-10.1786,-0.3352,0.2628,0.3957,70,4.41,85,12.0725,-5.3099,-13.1702,-1.1075,-1.8111,1.4319,40,80427.905,1555293,-4.9193,-1.4952,-11.0091,-0.1378,-2.1385,-1.5536,47
4.845,93,-5.0561,4.3011,-8.6343,1.5121,0.6589,-1.226,73,4.119,79,5.7551,0.0808,-13.3171,-0.7028,0.6969,0.7864,88,4.659,89,11.8006,-2.089,-11.4812,-0.9181,-0.1547,0.2535,70,4.461,86,9.1838,-3.2391,-17.5065,-0.9557,-0.9087,1.7254,40,80427.957,1555294,-7.3682,-0.3474,-14.7686,-0.7784,-1.5272,-0.8161,47
4.897,94,1.3666,0.2214,-14.2982,1.4227,0.0414,-1.505,73,4.171,80,6.7381,0.3103,-14.0099,-0.9488,0.4639,0.5174,88,4.711,90,11.1596,-2.5702,-12.1121,-0.8219,-0.4104,0.2,70,4.513,87,8.7123,-0.2824,-16.5725,-0.0228,-0.6019,1.8809,40,80428.009,1555295,-4.8242,-0.4036,-12.3311,-1.246,-0.4259,0.0801,47
4.949,95,-0.8253,-1.9775,-12.5521,0.4015,-0.4367,-1.7735,73,4.223,81,8.4656,-0.4036,-13.194,-1.3725,0.3531,0.2464,88,4.763,91,10.3534,-3.8068,-12.4567,-0.8695,-0.3724,0.0852,70,4.565,88,9.0292,-1.6983,-15.3844,0.658,0.2457,1.883,40,80428.06,1555296,-2.9974,-0.5005,-10.5693,-1.5873,0.3778,0.7341,47
5.0,96,4.4545,3.9466,-10.4786,0.8917,-0.9881,-1.9695,73,4.275,82,8.7031,-2.0499,-14.7393,-1.042,0.9368,0.1128,88,4.815,92,12.132,-5.1264,-12.418,-1.085,-0.4831,0.4404,70,4.617,89,7.9384,0.3709,-15.6871,0.5724,0.8643,1.4583,40,80428.112,1555297,-1.8822,-0.197,-10.2522,-1.6917,0.2905,0.8506,47
5.052,97,8.3079,1.1744,-5.0566,-0.0266,-0.2022,-1.1948,73,4.327,83,9.2328,-1.4816,-14.1775,-0.0887,0.7891,-0.547,88,4.866,93,13.9357,1.5675,-12.759,-1.461,-0.8615,0.3639,70,4.669,90,7.3745,-1.2351,-19.4303,-0.2593,1.3157,1.6614,40,80428.164,1555298,-1.1532,-0.1245,-9.935,-1.9126,0.2281,1.1318,47
5.104,98,11.1202,-0.0712,-1.0994,-0.6968,0.5349,-0.5199,73,4.378,84,10.0209,-3.4264,-14.512,0.607,0.8599,-0.8288,88,4.918,94,12.1685,5.9823,-13.1748,-0.5668,-0.6948,0.1936,70,4.72,91,9.1711,-0.0876,-18.5345,-0.8663,1.6453,1.531,40,80428.215,1555299,-0.6569,-0.0668,-9.6711,-2.0737,0.1905,1.3704,47
5.156,99,7.4858,-1.6589,-2.6238,-1.1859,1.0728,0.0731,73,4.43,85,9.7568,-1.9701,-13.2473,1.0367,0.7659,-0.7225,88,4.97,95,11.3965,4.8381,-13.4084,-0.497,-0.5815,0.1131,70,4.772,92,10.2726,0.7945,-18.371,-0.2338,1.8857,0.9344,40,80428.267,1555300,-0.3124,-0.0206,-9.4695,-2.1914,0.1689,1.5447,47
5.208,100,3.3277,0.596,-4.7072,-0.2116,1.4654,0.1042,73,4.482,86,8.6984,-2.2619,-12.7702,0.6818,0.748,-0.6539,88,5.022,96,10.9652,2.2311,-13.5212,-0.3622,-0.6175,0.038,70,4.824,93,10.8442,0.8905,-19.439,0.0228,2.0613,0.0106,40,80428.319,1555301,-0.0505,0.0014,-9.323,-2.2772,0.1601,1.6711,47
5.26,101,-3.1036,2.5268,-7.5919,0.238,1.7519,0.0382,73,4.534,87,7.8028,-1.7684,-12.2958,-0.088,0.8494,-0.4555,88,5.074,97,10.8084,0.3739,-13.1333,-0.389,-0.8967,-0.05,70,4.876,94,8.5424,-0.3577,-22.1687,-0.2557,2.1894,-0.1338,40,80428.371,1555302,-2.2072,5.3321,-14.8299,-2.1023,0.2394,1.6872,47
5.311,102,-3.3634,2.6536,-11.606,0.2969,0.6424,-0.5888,73,4.586,88,7.0894,-1.292,-12.0758,-0.712,0.8714,-0.1845,88,5.126,98,13.1542,-1.3664,-12.4438,-0.5308,-1.3278,-0.038,70,4.927,95,9.1236,-1.2222,-17.8258,-0.8637,1.1241,0.133,40,80428.422,1555303,-1.4362,7.6997,-12.7469,-1.065,0.6488,1.394,47
5.363,103,-1.3976,-2.4743,-5.8794,0.617,-0.2005,-1.0461,73,4.637,89,7.1759,-0.4098,-11.5708,-1.0022,0.7981,-0.0015,88,5.177,99,14.5027,-2.2411,-11.5552,-1.0626,-1.6425,0.0382,70,4.979,96,7.9319,1.6985,-17.8318,-0.5247,0.9889,-0.0888,40,80428.474,1555304,1.9077,9.6371,-11.8693,-0.1856,0.6799,1.4538,47
5.415,104,-1.9756,-1.7689,-7.0904,-0.227,0.5305,-0.9713,73,4.689,90,6.4962,-0.1115,-11.6154,-0.945,0.7315,-0.0245,88,5.229,100,9.5444,-1.5172,-14.9272,-1.234,-1.3916,0.4567,70,5.031,97,8.7576,-3.2986,-18.1841,-0.8073,0.109,-0.0378,40,80428.526,1555305,1.1306,7.0211,-11.1118,0.5384,0.5428,1.7367,47
5.467,105,-0.1291,-0.8894,-2.5837,0.5087,-0.2821,-0.9661,73,4.741,91,6.9689,0.3295,-11.3984,-1.0104,0.3372,-0.0416,88,5.281,101,8.2387,0.3723,-14.2659,-0.2241,-0.7181,0.9049,70,5.083,98,8.4648,-3.0341,-15.8523,-0.803,0.0575,-0.0682,40,80428.578,1555306,0.5311,5.0815,-10.5278,1.0668,0.4316,1.9432,47
5.519,106,4.9626,4.7408,-7.0478,-0.3061,-0.6728,-1.0543,73,4.793,92,8.2798,0.3236,-11.5656,-1.4175,0.2385,0.0482,88,5.333,102,7.5656,2.4894,-13.702,-0.1787,0.1543,0.9076,70,5.135,99,8.1987,-4.0511,-14.9626,-0.679,-0.1339,-0.0494,40,80428.63,1555307,0.5468,3.58,-10.1584,0.184,0.1367,0.7458,47
5.57,107,8.6349,-1.7377,-4.3905,-0.0065,0.1914,-0.2281,73,4.845,93,9.4744,-0.1111,-11.674,-1.594,0.2869,-0.0273,88,5.384,103,8.1871,2.4939,-13.6528,-0.8056,0.791,0.8355,70,5.186,100,7.5888,-4.2705,-14.2306,-0.5498,-0.1632,-0.0948,40,80428.681,1555308,0.1533,2.5866,-9.9342,-0.4967,-0.0949,-0.1318,47
5.622,108,6.6526,1.7032,-0.6132,-0.5055,0.8221,0.0978,73,4.896,94,10.3238,-0.177,-11.8915,-1.2426,0.2838,-0.3605,88,5.436,104,9.2643,2.1292,-13.6338,-0.8474,1.2556,0.8286,70,5.238,101,7.5614,-4.0818,-13.5514,-0.5077,-0.2798,-0.0691,40,80428.733,1555309,-0.1224,1.8645,-9.7775,-0.9897,-0.2738,-0.7722,47
5.674,109,5.8118,-2.9793,-1.4125,-0.7334,1.2824,0.748,73,4.948,95,10.5606,-0.0027,-12.0302,-1.5869,0.479,-0.4895,88,5.488,105,10.6157,1.604,-14.044,-1.1963,1.5948,0.8294,70,5.29,102,7.5688,-4.0249,-13.3333,-0.5393,-0.4526,-0.0309,40,80428.785,1555310,-0.3103,1.3298,-9.6765,-1.343,-0.4148,-1.2397,47
5.726,110,2.2292,0.274,-3.6862,0.1391,1.6184,1.2074,73,5.0,96,9.9921,0.0314,-11.9511,-1.7786,0.5795,-0.6931,88,5.54,106,10.3579,0.7791,-17.9335,-1.5276,1.8423,0.9465,70,5.342,103,7.6267,-3.9787,-13.2108,-0.564,-0.6988,0.0823,40,80428.837,1555311,-0.4285,0.933,-9.6058,-1.5946,-0.5268,-1.5808,47
5.777,111,1.3806,1.47,-5.4695,0.7364,1.1574,1.0793,73,5.052,97,8.8342,0.2279,-11.6204,-1.8057,0.5596,-0.8842,88,5.592,107,8.4286,-4.2002,-21.0936,-1.6905,1.2829,1.1166,70,5.393,104,8.2121,-4.9279,-13.6634,-0.5449,-1.1414,0.3144,40,80428.888,1555312,-5.5443,6.012,-4.4473,-0.866,-0.112,-1.7694,47
5.829,112,1.0439,2.863,-7.3045,0.6267,0.9399,0.6763,73,5.104,98,7.977,0.4319,-11.3021,-1.9979,0.5521,-0.8937,88,5.643,108,11.4173,-1.9983,-22.8291,-1.5176,0.2629,0.4859,70,5.445,105,11.1108,-6.3745,-14.3212,-0.3302,-1.4999,0.7481,40,80428.94,1555313,-5.5366,8.6838,-0.9672,-0.2918,0.2648,-1.8429,47
5.881,113,-0.0422,3.2461,-11.4003,0.8731,0.0299,0.1394,73,5.156,99,7.5199,0.4921,-11.1286,-2.1372,0.5737,-0.8933,88,5.695,109,12.3777,-0.6168,-19.9865,-0.8887,-0.4815,0.4825,70,5.497,106,10.2459,-4.2538,-14.5976,-0.2367,-1.7615,1.1348,40,80428.992,1555314,-4.0111,11.6458,-3.3757,0.3655,0.496,-1.1562,47
5.933,114,-1.1669,4.456,-5.7293,1.3116,0.6962,-0.0475,73,5.207,100,7.5499,0.8562,-10.927,-1.7077,0.4998,-0.9158,88,5.747,110,11.8455,-1.5775,-17.7443,-0.8079,-0.738,0.3484,70,5.549,107,6.8054,-3.7592,-15.341,-0.7595,-0.6757,1.5086,40,80429.044,1555315,-2.9786,8.428,-4.775,0.9406,0.6764,-0.3042,47
5.985,115,0.4623,5.1694,-7.7189,0.3594,-0.1612,-0.535,73,5.259,101,8.339,0.9895,-10.4198,-1.7607,0.6154,-0.7092,88,5.799,111,11.1293,-1.9068,-16.3687,-0.7939,-0.7257,0.3199,70,5.601,108,6.5533,-2.5457,-13.2882,-0.1483,-0.0746,1.5961,40,80429.095,1555316,-2.2304,6.0261,-5.8009,1.3604,0.7992,0.3186,47
6.036,116,5.394,6.0585,-8.2088,-0.4151,-0.787,-0.4895,73,5.311,102,8.4275,0.5724,-9.8321,-1.3194,0.3425,-0.653,88,5.851,112,10.7624,-2.3325,-14.8446,-0.6271,-0.6787,0.2762,70,5.652,109,7.1018,-1.2654,-11.9094,0.428,0.6305,1.2042,40,80429.147,1555317,-1.4969,5.5571,-1.6703,0.315,-0.0798,0.9082,47
6.088,117,8.9934,0.9263,-6.1467,-0.9803,0.1081,0.1886,73,5.363,103,7.417,0.4689,-9.5968,-0.2912,-0.3128,-0.9105,88,5.903,113,10.1711,-3.3231,-13.6541,-0.5107,-0.6423,0.2293,70,5.704,110,9.5327,-0.1888,-12.695,-0.2086,1.1451,0.8176,40,80429.199,1555318,-0.0318,4.7122,-2.2245,-0.448,-0.7213,1.3385,47
6.14,118,9.1785,-0.3931,-3.8091,-1.1509,0.7613,0.4337,73,5.414,104,8.4064,1.8931,-9.1959,-0.7322,-0.7161,-0.5606,88,5.954,114,9.3885,-3.535,-12.987,-0.4596,-0.6784,0.1131,70,5.756,111,11.8335,0.3098,-14.0816,-0.8293,1.5207,0.7002,40,80429.25,1555319,1.0494,4.0956,-2.6322,-1.0048,-1.1895,1.6526,47
6.192,119,2.8919,-0.8404,-5.1831,-1.2255,1.238,0.0978,73,5.466,105,8.7388,1.8202,-8.9023,-1.1816,-0.5979,-0.2229,88,6.007,115,9.102,-3.3993,-12.475,-0.5698,-0.7666,0.1314,70,5.808,112,13.1725,0.615,-15.5702,-1.0949,1.7949,0.2962,40,80429.302,1555320,1.8509,3.6342,-2.9435,-1.4112,-1.5313,1.8818,47
6.244,120,0.5166,-0.7355,-6.2434,-0.9221,1.5812,-0.1373,73,5.518,106,8.6211,1.5884,-8.8036,-1.1022,-0.3464,-0.0603,88,6.058,116,9.5851,-3.1475,-12.3716,-0.7132,-1.046,0.2652,70,5.86,113,10.5101,-1.1322,-19.345,-0.1759,1.9949,-0.4552,40,80429.354,1555321,2.4424,3.2967,-3.176,-1.7079,-1.7807,2.0491,47
6.295,121,-2.6112,0.9261,-7.7767,0.0014,1.8364,-0.2578,73,5.57,107,8.0166,1.5095,-8.75,-1.0669,-0.1029,0.0961,88,6.11,117,12.2614,-2.9547,-12.3634,-1.1451,-1.4368,0.6767,70,5.911,114,7.1126,-1.7068,-21.7826,-0.2708,1.0385,0.1152,40,80429.406,1555322,4.2494,-2.6503,-3.8254,-1.9243,-1.9532,2.1712,47
6.347,122,-4.1266,2.8338,-9.0859,0.5824,1.6706,-0.7712,73,5.622,108,7.6554,1.2668,-8.8784,-1.4587,0.0955,0.3918,88,6.162,118,12.2445,-4.6876,-12.9311,-1.511,-1.6977,0.8415,70,5.963,115,9.236,-2.9378,-19.0491,-0.8253,1.105,0.6741,40,80429.457,1555323,3.6395,-6.9321,-3.0887,-0.7306,-1.2711,2.2604,47
6.399,123,-4.9363,2.5333,-13.3606,0.3138,0.7619,-1.238,73,5.673,109,7.4489,0.7763,-9.1125,-1.3935,0.2969,0.4666,88,6.214,119,9.1257,-3.6905,-13.0893,-1.778,-1.3531,0.9317,70,6.015,116,6.4426,-3.3841,-16.8105,-1.2442,0.179,0.8576,40,80429.509,1555324,2.7263,-3.3212,-0.1225,0.1407,-0.6155,2.3254,47
6.451,124,1.4541,1.6921,-9.114,0.5568,-0.1133,-1.0206,73,5.725,110,6.7162,0.4853,-9.6309,-0.4411,0.164,0.3484,88,6.266,120,8.1856,-1.1216,-11.8032,-1.0376,-0.711,0.8968,70,6.067,117,6.0743,-1.8204,-15.4576,-0.99,0.3725,0.8901,40,80429.561,1555325,1.1245,-2.138,-0.0361,0.7765,-0.1905,2.3729,47
6.503,125,-2.4396,1.2331,-9.9035,-0.2708,-0.2682,-1.2989,73,5.777,111,6.5977,1.892,-9.2938,-0.908,-0.2793,0.517,88,6.317,121,7.9697,0.3908,-11.642,-0.4829,0.1594,0.6322,70,6.119,118,7.2009,-3.7698,-15.7423,-0.7767,0.0432,0.5226,40,80429.613,1555326,-0.0139,-1.2877,-0.03,1.2406,0.0614,2.4075,47
6.554,126,3.2761,-4.2248,-15.2245,-0.875,-0.8651,-0.7372,73,5.829,112,9.5083,1.6447,-9.1385,-1.3427,-0.6246,0.8492,88,6.369,122,8.6923,0.2491,-11.6909,-0.4049,0.7947,0.2594,70,6.17,119,7.6321,-4.4098,-15.5633,-0.4042,-0.1462,0.2278,40,80429.665,1555327,-1.0274,-0.1158,-2.8813,0.2276,0.7335,1.0811,47
6.606,127,5.0321,2.3065,-15.2461,0.0358,0.0511,-1.2132,73,5.881,113,11.2621,1.7706,-8.4194,-0.8315,-0.4498,0.467,88,6.421,123,10.265,-0.0795,-11.5329,-0.0599,1.2584,-0.052,70,6.222,120,7.5221,-4.0158,-14.4647,-0.0203,-0.2261,0.0876,40,80429.716,1555328,-1.2138,0.6242,-3.2203,-0.5118,1.224,0.1129,47
6.658,128,2.5114,3.8109,-10.2039,-0.6513,-0.2694,-1.316,73,5.933,114,11.6646,2.0263,-8.385,-1.0682,0.1145,0.0221,88,6.473,124,10.5109,-0.0066,-11.1092,0.0544,1.5968,-0.2809,70,6.274,121,7.5716,-3.7723,-13.397,-0.0504,-0.2923,0.0807,40,80429.768,1555329,-1.3734,1.1543,-3.4486,-1.0514,1.582,-0.5936,47
6.71,129,5.3239,-2.4089,-5.388,-0.0958,0.4858,-1.0501,73,5.985,115,11.284,1.205,-9.1031,-1.1103,0.6324,-0.1605,88,6.524,125,10.5477,-0.2289,-11.8871,0.0009,1.8437,-0.394,70,6.326,122,7.821,-2.8893,-13.1117,-0.2309,-0.6061,0.2758,40,80429.82,1555330,-1.5046,1.5299,-3.5885,-1.4452,1.8433,-1.1093,47
6.762,130,-0.5138,-0.5293,-4.0986,0.5382,1.037,-0.9162,73,6.036,116,9.995,0.8488,-9.3533,-0.6033,0.776,-0.311,88,6.576,126,8.6625,-1.1085,-16.2656,-0.428,2.024,-0.411,70,6.377,123,7.8353,-3.9161,-13.3002,-0.6228,-1.027,0.794,40,80429.872,1555331,-1.5991,1.8009,-3.6897,-1.7327,2.034,-1.4857,47
6.813,131,-0.7224,-0.4363,-4.0828,0.3467,1.4393,-0.7765,73,6.088,117,8.4634,0.916,-9.6212,-0.6941,0.7671,-0.2828,88,6.628,127,11.588,-1.4126,-9.701,-0.8697,0.8038,-0.243,70,6.429,124,10.8359,-5.8205,-14.804,-0.684,-1.4163,1.0673,40,80429.923,1555332,-1.6843,1.9839,-3.7619,-1.9424,2.1731,-1.7604,47
6.865,132,-2.5507,-0.9646,-9.096,0.048,1.7244,-0.5501,73,6.14,118,6.8904,0.7098,-9.8153,-1.1318,0.64,-0.1132,88,6.68,128,10.7149,-2.3692,-10.5365,-0.4134,-0.0867,-0.4796,70,6.481,125,11.7909,-5.6014,-15.7825,-0.5466,-1.7005,1.4593,40,80429.975,1555333,-1.478,1.2259,-6.7395,-1.8565,1.9898,-1.7574,47
6.917,133,-0.7015,-1.3974,-14.6352,0.1856,0.5892,-0.3458,73,6.192,119,5.9178,0.3376,-9.6573,-1.2216,0.3778,0.0839,88,6.731,129,11.5624,-3.1532,-12.0546,-0.5099,-0.6062,-0.2792,70,6.533,126,8.3597,-4.7397,-15.3309,-0.3892,-1.1229,1.6506,40,80430.027,1555334,-1.1985,-1.0403,-9.3267,-1.0111,1.3262,-1.1388,47
6.969,134,3.2424,0.8924,-18.6779,0.6951,0.7807,-0.7839,73,6.244,120,5.4817,0.6131,-8.992,-0.6447,0.1995,0.0229,88,6.783,130,10.0137,-2.7347,-12.6017,-0.3082,-0.7519,-0.2081,70,6.585,127,7.066,-3.0312,-13.936,-0.6401,-0.6491,1.0809,40,80430.079,1555335,-0.8808,-0.6147,-9.2988,-0.2021,0.6551,-0.4144,47
7.021,135,-1.9224,-3.3595,-14.4647,0.5567,0.222,-0.8426,73,6.295,121,5.8758,0.2848,-8.6833,-0.7781,0.0719,0.0117,88,6.835,131,9.9256,-2.5489,-12.7041,-0.2422,-0.6102,-0.1952,70,6.636,128,4.6265,-3.167,-12.9086,-0.5834,0.2112,0.3842,40,80430.131,1555336,-0.6622,-0.293,-9.2826,0.385,0.1604,0.1152,47
7.072,136,3.6536,-1.9678,-13.1434,0.5256,-0.5073,-0.3793,73,6.347,122,9.0284,-0.0056,-8.6963,-0.6821,-0.5219,-0.1018,88,6.887,132,9.8112,-2.4818,-12.3753,-0.1593,-0.4116,-0.1807,70,6.688,129,4.6066,-3.4254,-12.8777,0.1298,0.8391,-0.391,40,80430.182,1555337,-0.4577,0.0799,-9.2032,0.8084,-0.2028,0.5001,47
7.124,137,7.0111,-0.001,-7.0015,-0.2096,0.3122,-0.1649,73,6.399,123,11.3896,-0.5901,-9.0122,0.0653,-0.9686,-0.5098,88,6.939,133,8.9274,-2.4363,-12.3674,-0.0785,-0.1899,-0.1909,70,6.74,130,5.4382,-4.0916,-13.1692,0.7694,1.2974,-0.9567,40,80430.234,1555338,-0.5428,0.3339,-8.6386,-0.0878,0.13,0.2837,47
7.176,138,8.8653,-4.1611,-3.0779,-0.8303,0.6542,0.1728,73,6.451,124,12.5278,-1.2094,-8.1436,0.1582,-0.8052,-0.6343,88,6.99,134,8.5256,-1.8938,-12.3152,0.0859,-0.2331,-0.2361,70,6.792,131,7.2576,-5.0893,-13.5612,1.0696,1.6318,-1.3697,40,80430.286,1555339,-0.3457,0.3679,-8.2807,-0.742,0.3677,0.126,47
7.228,139,5.3604,-4.2549,-2.3809,-0.494,1.1599,0.6545,73,6.503,125,11.7124,-2.7822,-6.8899,-0.1601,-0.0812,-0.251,88,7.042,135,9.1391,-1.9862,-11.8559,0.0868,-0.4667,-0.1652,70,6.844,132,8.454,-6.3952,-15.0645,1.4033,1.876,-1.6711,40,80430.338,1555340,-0.2107,0.3699,-7.9415,-1.2194,0.5348,0.01,47
7.279,140,0.6271,-4.3044,-3.808,0.0242,1.3644,1.1481,73,6.554,126,9.5462,-2.0116,-6.7457,0.5549,0.2982,-0.148,88,7.094,136,9.0193,-2.2032,-11.7945,0.0256,-0.7617,-0.1247,70,6.895,133,6.6657,-6.9442,-18.9759,1.6988,2.0541,-1.7635,40,80430.389,1555341,-0.1067,0.3614,-7.6887,-1.5678,0.6504,-0.0744,47
7.331,141,-0.9853,-2.989,-4.9394,0.6754,0.8041,1.5146,73,6.606,127,8.185,-1.391,-6.966,1.0033,0.5951,0.0525,88,7.146,137,10.03,-2.1052,-12.1491,-0.1654,-1.0101,-0.0775,70,6.947,134,4.8256,-5.6427,-19.6799,1.3002,1.0307,-1.35,40,80430.441,1555342,-0.0453,0.3437,-7.4942,-1.8222,0.7298,-0.1363,47
7.383,142,-5.1162,-0.9479,-6.8383,0.9054,1.2693,1.6339,73,6.658,128,6.7012,-0.8445,-7.372,0.7221,0.8103,0.3207,88,7.198,138,12.5861,-2.8642,-11.1386,-0.4464,-1.2803,-0.1104,70,6.999,135,4.2092,-9.4151,-22.3445,0.2719,1.0517,-0.7218,40,80430.493,1555343,0.0145,0.3372,-7.3543,-2.0078,0.7816,-0.1815,47
7.435,143,-5.8246,-0.8274,-7.1402,0.7915,0.9682,1.465,73,6.71,129,5.6307,-0.391,-8.1449,0.7164,0.7379,0.5155,88,7.249,139,12.4386,-4.0878,-10.9185,-0.7356,-1.6078,-0.213,70,7.051,136,5.8863,-3.3505,-20.941,0.567,0.1008,-0.7074,40,80430.544,1555344,2.1201,5.5772,-13.393,-2.1432,0.445,-0.6838,47
7.487,144,-5.506,-0.4641,-12.0021,0.881,0.0544,0.634,73,6.762,130,4.6813,0.6868,-8.7055,0.8767,0.0841,0.5002,88,7.302,140,11.1858,-2.9556,-9.4874,-0.975,-1.5841,-0.3412,70,7.103,137,5.581,-4.859,-19.1438,0.0395,-0.2414,-0.1962,40,80430.596,1555345,0.8218,6.303,-14.7886,-2.2017,-0.3383,-1.1751,47
7.538,145,1.0381,-5.0584,-6.1685,1.202,-0.6296,-0.0741,73,6.814,131,6.8717,2.1389,-9.1647,-0.0341,-0.6113,0.8237,88,7.353,141,10.0061,-2.7469,-9.2469,-0.3732,-1.0745,-0.5635,70,7.154,138,5.5332,-4.4244,-17.6604,-0.1949,-0.3336,0.1861,40,80430.648,1555346,0.5877,4.2388,-13.1154,-1.8726,-0.91,-1.5337,47
7.59,146,-1.073,-1.145,-9.2233,0.1999,-0.0244,-0.0113,73,6.865,132,9.2367,1.249,-8.6396,-0.7049,-0.8785,1.0171,88,7.405,142,8.6492,-2.3122,-9.5314,0.4042,-0.1274,-0.7478,70,7.206,139,6.1067,-4.2472,-16.7915,-0.1769,-0.3574,0.3195,40,80430.7,1555347,0.4841,2.6537,-11.8484,-1.6097,-1.3272,-1.7954,47
7.642,147,4.2737,-1.9993,-14.1241,0.8203,-0.6871,-0.6834,73,6.917,133,10.1958,-0.6162,-9.2802,0.0157,-0.5467,0.5014,88,7.457,143,8.2108,-2.2182,-10.0914,0.9715,0.5854,-0.8986,70,7.258,140,6.5787,-3.5764,-15.945,-0.1358,-0.2958,0.407,40,80430.751,1555348,-0.7019,2.0285,-8.8498,-1.8527,-1.2408,-0.7672,47
7.694,148,8.0882,0.3384,-11.17,-0.0787,0.1809,0.1736,73,6.969,134,10.4418,-0.4996,-9.0657,0.6832,-0.4196,-0.3204,88,7.509,144,9.0991,-2.5656,-10.8831,1.3856,1.1056,-0.9246,70,7.31,141,6.7877,-3.654,-15.1161,-0.1183,-0.3157,0.4057,40,80430.803,1555349,-0.1818,1.58,-8.5915,-2.0301,-1.1537,0.087,47
7.746,149,10.1371,-0.8591,-7.7024,-0.3909,0.8145,0.4823,73,7.021,135,9.8241,-0.5076,-8.6917,0.4261,-0.3445,-0.5407,88,7.56,145,10.7232,-3.057,-12.4649,1.6878,1.4852,-0.7505,70,7.362,142,6.1543,-3.0227,-14.6791,-0.1425,-0.2662,0.3991,40,80430.855,1555350,0.2032,1.2384,-8.4551,-2.1595,-1.0795,0.7365,47
7.797,150,5.6957,-0.8222,-6.1202,-0.7377,1.2768,0.5106,73,7.073,136,9.4375,-2.8761,-8.6882,-0.369,-0.3586,-0.3598,88,7.612,146,10.277,-4.6251,-15.4794,1.8307,1.7325,-0.5879,70,7.414,143,6.3543,-2.8433,-14.2407,-0.2668,-0.3572,0.4857,40,80430.907,1555351,0.4881,0.9847,-8.3554,-2.254,-1.0123,1.2119,47
7.849,151,1.7536,-1.2113,-5.8976,-0.6318,1.3859,0.72,73,7.124,137,8.775,-3.4194,-9.2991,-0.7152,-0.207,-0.0188,88,7.664,147,11.6559,-7.6579,-19.3024,0.702,0.6803,-0.3226,70,7.465,144,8.5201,-3.6444,-13.9581,-0.6559,-0.8149,0.7122,40,80430.958,1555352,0.6897,0.8031,-8.3092,-2.3229,-0.9529,1.5597,47
7.901,152,-1.446,-0.5139,-7.2656,0.1033,1.6939,0.8186,73,7.176,138,8.0882,-3.4673,-9.9284,-0.0582,-0.1426,0.1716,88,7.716,148,10.7967,-4.1654,-22.0927,0.8407,-0.0853,-0.233,70,7.517,145,10.6973,-4.4402,-14.625,-0.6963,-1.2615,0.9289,40,80431.01,1555353,-1.1636,5.9173,-3.501,-2.0893,-0.9255,1.7747,47
7.953,153,-3.5329,0.5395,-9.1474,0.3587,1.0971,0.4239,73,7.228,139,7.8691,-1.5323,-10.1579,0.6292,-0.0413,0.3588,88,7.767,149,9.8509,-2.4959,-18.4938,0.8222,-0.456,-0.1079,70,7.569,146,10.9493,-4.9229,-14.9898,-0.2958,-1.5711,0.9496,40,80431.062,1555354,-2.8522,6.2225,-2.1596,-2.2027,-0.3124,1.6498,47
8.004,154,-2.9441,-0.9921,-14.6727,-0.4156,0.1314,0.1114,73,7.28,140,6.8589,-0.7592,-10.3911,0.7996,0.0106,0.5388,88,7.819,150,10.4474,-2.1747,-16.6841,0.6793,-0.5033,0.1184,70,7.621,147,7.4828,-3.9668,-15.0057,0.0635,-1.2452,0.8169,40,80431.114,1555355,-6.1755,6.5942,-1.9111,-2.2855,0.4606,1.1894,47
8.056,155,-2.0611,2.616,-14.032,0.3711,0.6125,0.0217,73,7.332,141,6.4861,-0.4144,-10.1308,0.4959,-0.3477,0.5979,88,7.871,151,10.8454,-1.1926,-14.9116,0.3253,-0.3228,0.2891,70,7.673,148,6.1474,-3.1819,-14.8318,0.3346,-1.1836,0.2461,40,80431.165,1555356,-4.4101,4.9353,-3.0096,-2.346,1.0249,0.6651,47
8.108,156,0.6835,-1.0295,-12.9161,0.4228,-0.2223,0.1671,73,7.383,142,8.8625,0.0394,-10.804,0.1548,-0.4648,0.6316,88,7.923,152,10.2525,-1.4363,-13.814,-0.0534,-0.1074,0.4068,70,7.724,149,5.1637,-3.5491,-13.7237,0.4775,-0.6262,-0.0892,40,80431.217,1555357,-3.0735,3.7076,-3.8922,-2.3901,1.4366,0.2853,47
8.16,157,5.5556,-4.407,-14.2702,-0.3635,-0.8316,0.7986,73,7.435,143,8.4606,-1.6755,-10.0384,0.7844,-0.643,-0.0237,88,7.975,153,9.9903,-1.7679,-12.4854,-0.4189,-0.0384,0.4666,70,7.776,150,5.541,-3.8834,-13.3764,0.5103,0.0218,-0.423,40,80431.269,1555358,-2.5432,2.5587,-6.4926,-2.4222,1.6321,-0.4678,47
8.211,158,9.1115,-0.1653,-10.0276,0.1702,0.0755,0.9603,73,7.487,144,8.7772,-1.9187,-10.1239,0.4712,-0.1736,0.2014,88,8.026,154,9.3105,-2.5988,-11.6779,-0.566,-0.1291,0.4601,70,7.828,151,6.2319,-3.8266,-13.1696,0.6078,0.5845,-0.7547,40,80431.321,1555359,-2.0441,2.1427,-6.7919,-2.4457,1.764,-1.0175,47
8.263,159,7.9861,-0.3486,-8.3077,0.0279,0.7375,0.9506,73,7.539,145,8.8018,-2.068,-10.2963,0.3278,-0.0267,0.2447,88,8.078,155,9.1806,-2.8104,-11.352,-0.4335,-0.3087,0.3836,70,7.88,152,7.1993,-3.8206,-13.1446,0.7737,1.0569,-1.0751,40,80431.372,1555360,-1.7142,1.8586,-6.9441,-2.4629,1.8403,-1.4187,47
8.315,160,0.7863,-3.401,-8.0191,-0.0776,1.0619,1.1204,73,7.591,146,8.1445,-2.1035,-10.7773,0.5599,0.0278,0.1874,88,8.13,156,8.8547,-3.2319,-11.043,-0.1931,-0.533,0.2675,70,7.932,153,7.7921,-3.9824,-13.816,1.2224,1.3968,-1.4557,40,80431.424,1555361,-1.4876,1.6512,-7.0525,-2.4754,1.8796,-1.7115,47
8.367,161,-0.6701,-5.3836,-7.56,0.1483,0.8182,1.467,73,7.642,147,7.6679,-2.0711,-11.396,0.5558,0.0594,0.1892,88,8.182,157,8.8981,-3.0593,-10.954,0.1674,-0.8628,0.0858,70,7.983,154,6.8182,-5.1236,-15.5617,1.5668,1.3058,-1.5401,40,80431.476,1555362,-1.3265,1.4786,-7.1354,-2.4845,1.8888,-1.9252,47
8.419,162,-1.7593,-4.7505,-9.4329,0.7826,0.6144,1.7473,73,7.694,148,7.1569,-1.7137,-11.1776,0.9668,-0.0203,0.1218,88,8.234,158,9.8597,-2.693,-10.9946,0.0847,-1.1999,-0.0294,70,8.035,155,5.587,-5.8785,-17.5634,0.9251,0.9793,-0.905,40,80431.528,1555363,3.9862,-3.4629,-9.6431,-2.2774,1.6423,-1.8582,47
8.47,163,-1.5378,-0.4215,-13.4737,1.2455,0.0975,1.7006,73,7.746,149,7.2531,-2.0366,-10.7222,0.7306,-0.0939,0.1343,88,8.285,159,12.1281,-1.9685,-10.8563,0.0378,-1.5491,-0.199,70,8.087,156,6.242,-4.5009,-15.3965,0.4397,0.7165,-0.8106,40,80431.58,1555364,2.8866,-5.297,-12.1127,-0.9883,1.2888,-1.2675,47
8.522,164,-3.0636,0.5083,-13.0193,0.8446,-0.5982,1.5547,73,7.798,150,7.4332,-2.2546,-10.5895,1.0362,-0.1388,0.2186,88,8.337,160,13.1854,-1.5682,-10.655,0.4267,-1.804,-0.7804,70,8.139,157,6.0087,-3.9119,-14.3514,0.282,0.8268,-0.1081,40,80431.632,1555365,2.1162,-3.6212,-10.2603,-0.0474,0.7678,-0.6723,47
8.574,165,2.8209,1.8045,-6.9925,1.0845,-0.3806,1.2682,73,7.85,151,7.7279,0.3133,-10.358,1.348,-0.2411,0.0172,88,8.389,161,9.4145,-1.2578,-11.8475,0.9879,-1.9901,-1.2436,70,8.191,158,8.9762,-5.2797,-14.2724,0.0508,0.0904,-0.0561,40,80431.683,1555366,1.5248,-2.4258,-8.9124,0.6393,0.3759,-0.2392,47
8.626,166,5.7232,0.2053,-7.4873,1.4539,-0.9471,0.3857,73,7.902,152,7.7867,-0.2571,-10.2958,0.5054,-0.3809,0.0416,88,8.441,162,6.2742,-0.078,-9.4824,0.1106,-1.0621,-1.5816,70,8.242,159,8.8014,-4.5188,-14.3524,0.1512,-0.195,0.0047,40,80431.735,1555367,0.4865,-3.0495,-7.7465,1.1404,0.0729,0.0754,47
8.677,167,7.2003,5.5398,-13.4611,1.7355,-1.3606,-0.2547,73,7.953,153,8.8773,-0.0599,-10.4103,0.5686,-0.6571,-0.0405,88,8.493,163,6.1909,-2.0836,-10.5838,-0.465,-0.0968,-1.3108,70,8.294,160,8.7904,-4.511,-13.7262,0.0476,-0.3397,0.1908,40,80431.787,1555368,-0.0208,-1.9463,-5.2357,0.1545,-0.3718,-0.621,47
8.729,168,10.3119,-0.566,-10.9274,0.5893,-0.3678,0.4843,73,8.005,154,8.4119,-0.1744,-10.2633,0.5696,-0.6205,-0.1949,88,8.544,164,8.0394,3.8312,-15.7294,0.3372,-0.214,-1.067,70,8.346,161,8.7311,-5.322,-12.724,-0.0363,-0.5562,0.2761,40,80431.838,1555369,-0.5896,-1.2717,-4.3074,-0.5651,-0.7436,-1.1293,47
8.781,169,7.6843,-2.1024,-5.9079,-0.0995,0.414,1.021,73,8.057,155,8.6762,-0.6531,-10.8579,-0.0868,-0.5316,-0.1779,88,8.596,165,3.2248,8.1481,-11.5455,0.0826,-0.0213,-0.7207,70,8.398,162,11.4896,-5.8343,-12.1121,0.2615,-1.0446,0.3004,40,80431.89,1555370,-1.0159,-0.7904,-3.6186,-1.0903,-1.0539,-1.5003,47
8.833,170,4.8923,-2.7034,-3.1692,0.2053,0.9845,1.4218,73,8.109,156,8.5463,-1.6649,-11.3521,-0.2275,-0.2466,-0.0214,88,8.648,166,2.863,3.6465,-11.9594,0.7158,-0.2596,-0.4694,70,8.45,163,13.0082,-4.9633,-7.4135,0.8394,-1.2357,-0.118,40,80431.942,1555371,-1.3467,-0.4749,-3.0921,-1.4736,-1.3268,-1.771,47
8.885,171,0.8597,-1.5683,-3.6957,0.5881,1.401,1.7144,73,8.161,157,7.102,-2.5656,-11.2246,0.2725,-0.0734,0.0534,88,8.7,167,4.3539,3.2736,-12.8944,0.3733,-0.5589,-0.3794,70,8.501,164,12.4725,-4.1422,-3.847,1.2873,-0.5806,-0.7576,40,80431.994,1555372,-1.5686,-0.2764,-2.7138,-1.7534,-1.5642,-1.9686,47
8.936,172,-1.597,-2.1471,-5.889,0.4067,1.7049,1.9279,73,8.212,158,5.6986,-1.8353,-10.9694,0.8078,-0.0031,0.0924,88,8.752,168,6.2132,2.3723,-13.3715,0.4335,-0.7533,-0.2291,70,8.553,165,10.269,-5.7261,-5.8142,1.6142,0.2612,-1.2243,40,80432.046,1555373,-1.7289,-0.1452,-2.4662,-1.9576,-1.7778,-2.1129,47
8.988,173,-3.0137,-1.5808,-10.4905,0.2304,1.4322,1.8083,73,8.264,159,6.7529,-1.4882,-10.5515,1.0041,-0.0495,0.266,88,8.803,169,9.8004,1.1246,-13.217,0.224,-1.2232,-0.2367,70,8.605,166,4.4498,-9.476,-10.7791,1.8528,0.8756,-1.565,40,80432.097,1555374,0.4431,4.7766,-9.8255,-2.0773,-1.7431,-2.1734,47
9.04,174,2.8568,0.0033,-13.3678,0.7696,0.376,0.6494,73,8.316,160,9.3785,-0.9111,-11.3872,1.4046,-0.1491,0.1239,88,8.855,170,11.8836,-0.4246,-14.063,0.2125,-1.5662,-0.4916,70,8.657,167,8.365,-10.1353,-5.2593,1.1085,1.2607,-0.7698,40,80432.149,1555375,0.4475,3.6435,-9.9844,-0.8422,-1.7245,-2.2589,47
9.092,175,6.6689,5.3818,-17.7529,1.2213,0.6189,-0.2012,73,8.368,161,10.5399,-0.5568,-10.0905,0.8287,-0.501,0.1087,88,8.907,171,9.3665,1.0084,-13.0587,0.8316,-1.6236,-0.7526,70,8.709,168,3.9031,-8.5771,-10.804,0.1319,0.5912,-0.9866,40,80432.201,1555376,0.6331,2.5858,-9.4892,0.0592,-1.694,-2.3247,47
9.144,176,9.4224,-1.2684,-14.2605,1.0535,-0.2176,0.0823,73,8.42,162,10.3419,-1.5988,-10.1519,0.0032,-0.5298,0.0681,88,8.959,172,7.6144,1.4111,-11.5525,1.1651,-0.8023,-1.1025,70,8.76,169,7.966,-7.6071,-14.6256,0.1151,-0.0106,-1.3103,40,80432.253,1555377,5.0392,3.3397,-4.3622,0.1223,-1.2017,-1.6509,47
9.195,177,11.9337,-0.0316,-7.8168,0.8118,0.0708,0.5397,73,8.471,163,8.7127,-2.018,-10.7963,0.6741,-0.6085,-0.2478,88,9.011,173,6.815,0.936,-11.2279,1.1696,0.0928,-1.4708,70,8.812,170,6.1364,-6.9486,-14.5156,0.1735,-0.2297,-0.9064,40,80432.304,1555378,3.745,2.4398,-6.235,0.1263,-0.6819,-1.1742,47
9.247,178,13.7664,-1.5228,-3.1139,-0.0849,0.4999,0.8067,73,8.523,164,8.2044,-1.9697,-10.8542,0.7739,-1.0561,-0.309,88,9.062,174,7.731,-0.0463,-12.4838,1.0535,0.7461,-1.6878,70,8.864,171,6.1548,-5.4917,-13.3662,0.3165,0.275,-0.5532,40,80432.356,1555379,2.8012,1.784,-7.1698,0.1304,-0.3002,-0.7133,47
9.299,179,11.1434,-3.5524,-1.1905,-0.7393,1.0473,1.1853,73,8.575,165,8.7505,-5.6765,-11.3264,0.5458,-1.3709,-0.5053,88,9.114,175,8.4013,-2.1594,-15.2862,1.4455,1.2229,-1.5592,70,8.916,172,6.8534,-5.3509,-12.3573,0.1548,0.3384,-0.273,40,80432.408,1555380,2.0978,1.3039,-7.8482,0.1345,-0.02,-0.208,47
9.351,180,6.8804,-2.7793,-2.336,-0.0199,1.4468,1.5393,73,8.627,166,8.725,-5.747,-12.3575,0.0902,-1.2571,-0.0811,88,9.166,176,7.6207,-2.4643,-18.7901,1.1943,1.1126,-1.1172,70,8.967,173,7.6207,-4.2711,-11.4533,0.0689,-0.0018,0.0164,40,80432.46,1555381,1.5888,0.9406,-8.3357,0.1384,0.1857,0.16,47
9.403,181,1.1178,3.3615,-7.6649,0.6599,1.7383,1.3884,73,8.679,167,7.1929,-6.0141,-12.1298,0.4421,-0.6659,0.0392,88,9.218,177,9.4094,2.418,-18.2174,1.2944,0.5249,-0.6842,70,9.019,174,8.9801,-3.7201,-12.154,-0.0241,-0.3659,0.3426,40,80432.511,1555382,1.2126,0.6816,-8.7048,0.142,0.337,0.4282,47
9.454,182,0.3519,2.5497,-8.2089,0.1106,0.5994,0.8009,73,8.73,168,5.943,-4.2097,-12.2544,0.4836,-0.3978,0.0588,88,9.27,178,9.0552,-0.6061,-17.013,1.3738,-0.1469,-0.291,70,9.071,175,9.2989,-4.3662,-12.2858,0.2385,-0.7343,0.4808,40,80432.563,1555383,4.0284,-1.1981,-5.6602,-0.3797,0.3816,0.8017,47
9.506,183,-2.7894,2.0344,-10.0133,-0.5967,0.0782,0.1251,73,8.782,169,5.0903,-3.613,-12.3951,0.7859,-0.2243,0.0122,88,9.321,179,9.3244,-1.2866,-15.5138,0.6966,-0.2201,-0.0336,70,9.123,176,8.96,-3.9445,-12.0487,0.7744,-1.0506,0.1981,40,80432.615,1555384,2.1974,0.4134,-9.5387,-0.2023,0.9256,0.7304,47
9.558,184,-1.9902,-3.7129,-15.3047,-0.8786,-0.6122,0.0311,73,8.834,170,4.0185,-3.042,-12.538,1.028,-0.4376,-0.1917,88,9.373,180,9.2158,-1.2759,-14.934,0.8555,-0.3038,0.0175,70,9.175,177,9.181,-4.6054,-11.9796,1.1462,-1.2175,-0.1118,40,80432.667,1555385,1.6411,0.3593,-9.2269,0.5088,1.3435,0.5354,47
9.61,185,1.3157,-1.8078,-16.5573,0.0248,0.2108,0.1914,73,8.886,171,5.5043,-2.8409,-11.9505,0.6878,-0.9854,-0.7604,88,9.425,181,9.4887,-1.3705,-14.1331,0.6327,-0.2202,0.0659,70,9.226,178,8.9517,-4.585,-11.018,1.082,-1.043,-0.2474,40,80432.718,1555386,1.1988,0.3234,-8.9191,1.0256,1.648,0.3922,47
9.662,186,-3.1987,-5.3938,-13.9479,0.6641,-0.4254,0.4878,73,8.938,172,6.9936,-3.5351,-12.6966,-0.0981,-0.339,-0.8522,88,9.477,182,9.3696,-1.3572,-13.4507,0.5268,-0.2045,0.0689,70,9.278,179,8.1581,-4.326,-8.1512,1.0311,-0.5046,-0.735,40,80432.77,1555387,0.5563,0.1269,-8.3217,0.7169,0.7935,0.3314,47
9.713,187,2.7223,-3.1618,-9.0365,0.3958,-0.0093,0.8946,73,8.989,173,7.4767,-3.742,-13.703,-0.4735,-0.1196,-0.1856,88,9.529,183,9.2485,-1.624,-13.1836,0.5716,-0.277,-0.0107,70,9.33,180,8.9746,-4.4837,-9.1337,1.0798,0.2523,-1.2079,40,80432.822,1555388,0.4704,0.1688,-8.6031,0.4816,-0.0839,0.3704,47
9.765,188,1.75,-2.6858,-5.806,-0.3885,0.6756,0.7807,73,9.041,174,7.7651,-3.1878,-13.9467,0.0536,0.3661,-0.1137,88,9.58,184,9.4269,-0.9939,-13.0592,0.4195,-0.2636,0.0329,70,9.382,181,8.2684,-4.5437,-11.2557,1.4628,0.4866,-1.553,40,80432.874,1555389,0.4124,0.1849,-8.6612,0.3057,-0.7243,0.4055,47
9.817,189,2.1674,-3.2443,-5.5458,-0.2931,1.1755,1.2465,73,9.093,175,7.569,-2.3715,-13.8815,0.2131,0.2907,-0.1501,88,9.632,185,9.3394,-0.9819,-12.6516,0.2091,-0.2504,0.1968,70,9.434,182,6.4686,-5.3868,-13.2829,1.7423,0.3134,-1.7232,40,80432.925,1555390,0.3846,0.1929,-8.7035,0.1748,-1.1917,0.4323,47
9.869,190,-1.8277,0.1634,-8.504,0.4605,1.5404,1.5264,73,9.145,176,7.5201,-2.133,-14.2015,-0.0583,0.3613,-0.2371,88,9.684,186,9.4237,-1.8201,-12.4255,0.0192,-0.3974,0.2376,70,9.485,183,9.8384,-2.6306,-7.0867,1.3022,0.0849,-1.7621,40,80432.977,1555391,0.3572,0.1977,-8.7447,0.0765,-1.5329,0.4519,47
9.92,191,-1.9003,-0.0904,-9.2857,0.7089,0.7905,0.8931,73,9.197,177,7.0713,-2.1367,-13.8748,0.4604,0.1768,-0.0759,88,9.736,187,9.3208,-2.0822,-12.5379,0.0706,-0.6281,0.0518,70,9.537,184,10.7071,-7.2167,-6.7298,0.7775,-0.1754,-1.2467,40,80433.029,1555392,-4.9709,5.4754,-14.4078,0.1841,-1.6617,0.3712,47
9.972,192,-0.468,-1.2773,-13.3279,-0.0941,-0.0924,-0.0233,73,9.249,178,6.8931,-2.1092,-13.1298,1.0077,-0.1774,-0.0353,88,9.788,188,11.1627,-1.8619,-12.3858,0.177,-0.9699,-0.1853,70,9.589,185,11.8878,-3.4072,-8.7735,0.4006,-0.4111,-0.306,40,80433.081,1555393,-5.6409,2.2866,-13.2483,0.7674,-1.8692,-0.4052,47
10.024,193,0.3633,-5.8786,-9.2225,-0.746,-0.1041,-0.6921,73,9.3,179,6.9646,-0.9831,-11.7844,1.4072,-0.1798,0.2226,88,9.839,189,11.4096,-2.1452,-12.0205,0.2311,-1.1718,-0.4643,70,9.64,186,11.1034,-2.8835,-9.7421,0.0508,-0.4283,0.0568,40,80433.132,1555394,-3.4217,0.6104,-10.6517,1.234,-2.0273,-0.9718,47
10.076,194,-5.2672,-5.3213,-14.7275,-1.2219,0.6064,-1.1802,73,9.352,180,6.4089,-0.7058,-11.6597,1.4083,-0.1926,-0.1427,88,9.891,190,9.7603,-1.7051,-12.7473,0.76,-1.2955,-0.6478,70,9.692,187,10.0142,-3.7785,-9.7984,0.1439,-0.3581,0.1988,40,80433.184,1555395,-1.5669,-0.0069,-9.1614,1.5745,-2.1427,-1.3853,47
10.128,195,1.2126,-9.0814,-14.5961,-1.5692,-0.2267,-0.8338,73,9.404,181,7.1492,-1.3548,-12.4897,0.397,-0.3523,-0.2209,88,9.943,191,8.6728,-1.5272,-11.0842,1.0631,-0.8941,-0.7653,70,9.744,188,9.8399,-2.665,-10.7894,0.1475,-0.2664,0.1824,40,80433.236,1555396,-1.5023,-0.242,-8.5152,1.823,-2.1365,-1.1492,47
10.179,196,5.9418,-11.8257,-14.4161,-1.1495,-0.8348,-0.615,73,9.456,182,8.3338,-2.3945,-13.567,-0.1193,-0.6205,-0.4026,88,9.995,192,8.264,-0.9735,-11.3726,0.8581,0.0053,-0.9642,70,9.796,189,9.781,-2.8826,-11.0442,-0.0288,-0.104,0.2912,40,80433.288,1555397,-0.9372,-0.0797,-8.0935,2.0044,-2.1383,-0.9743,47
10.231,197,9.3934,-7.8923,-9.9758,-0.1645,0.0731,-0.8585,73,9.508,183,8.0301,-2.6523,-14.2492,0.0363,-0.4217,-0.1136,88,10.046,193,7.9666,-0.9163,-12.7909,0.8129,0.6822,-1.1094,70,9.848,190,9.3743,-3.2029,-11.5912,0.0263,-0.0017,0.2347,40,80433.339,1555398,-0.5223,0.0149,-7.804,2.1368,-2.1409,-0.8464,47
10.283,198,7.5773,-6.0246,-7.7273,0.5543,0.7358,-0.046,73,9.559,184,7.4991,-3.0791,-14.7489,0.2663,-0.4088,0.1092,88,10.098,194,8.5517,-1.1413,-15.3475,1.2698,0.8858,-1.2618,70,9.899,191,9.1661,-3.0815,-11.8425,0.2711,0.1841,-0.0701,40,80433.391,1555399,-0.2257,0.0667,-7.5879,2.2334,-2.1431,-0.7534,47
10.335,199,4.051,-6.8947,-8.5266,0.3306,0.8671,0.6431,73,9.611,185,7.386,-2.983,-14.4883,0.7083,-0.7122,0.0555,88,10.15,195,8.8117,-2.4624,-11.6221,1.523,0.7509,-1.0152,70,9.951,192,8.939,-1.8845,-11.6725,0.7616,0.2553,-0.2665,40,80433.443,1555400,0.0003,0.1089,-7.4379,2.3039,-2.1463,-0.6859,47
10.387,200,2.9062,-6.8324,-10.7733,0.8729,0.1259,1.146,73,9.663,186,7.2975,-2.7939,-14.0436,0.0787,-0.6866,0.0504,88,10.202,196,9.7802,-2.8054,-11.4471,0.5526,0.845,-0.3752,70,10.003,193,9.5408,-0.2702,-10.733,1.0147,-0.0435,-0.3395,40,80433.495,1555401,0.1541,0.1308,-7.3195,2.3554,-2.1504,-0.6361,47
10.438,201,0.8055,-2.5192,-15.8593,1.3115,-0.1487,1.513,73,9.715,187,6.8862,-2.7068,-14.5269,-0.6226,-0.3213,-0.1168,88,10.254,197,9.5422,-3.7461,-10.8879,0.5661,0.6991,-0.2016,70,10.055,194,7.1575,-4.6514,-12.3311,1.4116,-0.3068,0.0063,40,80433.546,1555402,-1.8088,3.4795,-11.2661,1.4737,-1.5506,-0.6538,47
10.49,202,-3.228,0.4033,-18.3986,1.6316,-0.5971,1.7634,73,9.767,188,6.1502,-1.2219,-14.5146,0.0457,-0.0824,-0.2505,88,10.306,198,8.6098,-2.1015,-11.2174,0.384,0.6158,-0.0517,70,10.107,195,7.6268,-2.2209,-14.6764,1.7049,-0.8907,0.0119,40,80433.598,1555403,-4.1856,1.2863,-9.8055,0.5968,-0.9598,-1.0821,47
10.542,203,-6.7822,3.2637,-19.6968,0.5134,-1.1051,1.3774,73,9.818,189,6.9374,-0.5011,-14.977,0.3819,-0.0375,-0.2062,88,10.357,199,9.7792,-1.7845,-10.7288,0.3193,0.0562,-0.0091,70,10.158,196,6.4283,0.7957,-17.7237,0.5672,-0.2266,0.0217,40,80433.65,1555404,-3.1866,0.9934,-9.7563,-0.1803,-0.4094,-1.4658,47
10.594,204,0.1069,2.6449,-11.7845,1.0491,-0.1927,0.7414,73,9.87,190,6.8804,-1.5655,-15.6442,0.742,-0.0124,-0.0788,88,10.409,200,9.676,-2.3366,-11.118,0.0965,-0.3701,-0.1996,70,10.21,197,6.4349,-4.716,-15.1239,-0.0849,-0.3831,0.323,40,80433.702,1555405,-4.3949,4.1137,-6.1979,0.5423,-0.2986,-0.3984,47
10.646,205,5.1348,-1.0157,-9.5552,0.1794,0.5411,1.0218,73,9.922,191,6.2356,-2.1398,-15.6566,1.2133,-0.3848,-0.0869,88,10.461,201,10.6514,-3.5559,-10.9239,-0.2179,-0.8193,-0.3192,70,10.262,198,7.3567,-5.2529,-13.2164,-0.4839,-0.5233,0.5627,40,80433.753,1555406,-3.9193,3.2389,-4.8459,1.0697,-0.2952,0.3849,47
10.697,206,5.5693,-0.7151,-9.0695,-0.4059,0.9977,1.421,73,9.974,192,6.8984,-0.7502,-13.8583,1.5572,-0.9336,-0.2388,88,10.513,202,13.0396,-0.754,-9.4743,0.3422,-1.2203,-0.486,70,10.314,199,7.6381,-4.3831,-13.944,-0.0526,-0.9331,0.2412,40,80433.805,1555407,-3.5637,2.6602,-3.7721,1.4546,-0.3385,0.9566,47
10.749,207,2.5676,-0.362,-7.9071,-0.4927,1.4106,1.7138,73,10.026,193,6.9056,1.0869,-13.3302,0.8459,-0.6028,-0.2294,88,10.565,203,13.2379,0.561,-7.6477,0.9263,-0.844,-0.6301,70,10.366,200,7.4892,-3.6102,-14.316,0.0355,-0.7623,0.195,40,80433.857,1555408,-3.2737,2.2652,-2.9881,1.7355,-0.4254,1.3739,47
10.801,208,-3.6583,1.4646,-8.025,0.0992,0.737,1.9274,73,10.078,194,6.1293,-0.2788,-12.7145,1.0968,-0.3362,-0.6384,88,10.616,204,12.3352,2.1489,-6.8767,1.1318,0.0324,-0.9442,70,10.417,201,7.2864,-3.6368,-14.4746,-0.0706,-0.6976,0.3828,40,80433.909,1555409,-3.0426,2.0043,-2.4265,1.9405,-0.5431,1.6784,47
10.853,209,-4.7584,-0.5994,-8.3719,0.2527,1.2203,2.0802,73,10.129,195,5.9834,-0.6929,-12.8234,1.205,-0.005,-0.5999,88,10.668,205,11.3348,1.3245,-7.8627,1.1391,0.702,-1.1707,70,10.469,202,7.1177,-3.7513,-14.7237,-0.1397,-0.707,0.5091,40,80433.961,1555410,-4.6459,-3.3181,0.7924,2.0902,-0.8029,1.2039,47
10.905,210,-4.4955,-0.0013,-11.0316,0.8135,0.8596,1.7188,73,10.181,196,8.3577,-0.388,-12.9445,1.5512,-0.4046,-0.8819,88,10.72,206,8.6412,-1.5047,-11.8985,1.5079,1.1907,-1.3084,70,10.521,203,7.0966,-3.3797,-15.0477,-0.0989,-0.8055,0.6358,40,80434.012,1555411,-1.3761,-0.7758,-4.388,1.8741,-1.248,0.2085,47
10.957,211,-2.763,-0.5458,-14.0345,0.5674,-0.042,0.9946,73,10.233,197,7.3379,-0.6836,-14.1761,0.8876,-0.1538,-0.2448,88,10.772,207,7.8679,-2.5714,-13.7892,1.7222,1.439,-1.0952,70,10.573,204,8.8217,-3.7795,-15.905,0.0767,-1.2541,0.7086,40,80434.064,1555412,-1.0631,-0.8732,-5.7773,0.9534,-1.5739,-0.5239,47
11.008,212,0.4517,1.9537,-14.2515,1.0885,0.032,0.3619,73,10.285,198,6.9689,-1.0734,-13.4166,1.3038,0.0414,-0.5648,88,10.824,208,11.0081,-3.9457,-11.6841,1.6635,0.3769,-1.0919,70,10.624,205,11.5557,-4.9714,-17.541,0.3111,-1.5821,0.797,40,80434.116,1555413,-1.0131,-1.1194,-6.4402,0.1882,-1.8118,-1.0584,47
11.06,213,3.3683,-0.2691,-14.6484,1.2802,-0.6459,-0.256,73,10.337,199,7.8292,-0.3711,-13.3393,0.965,0.2394,-0.3032,88,10.875,209,13.2999,-3.4487,-12.5774,1.7625,-0.1978,-0.5003,70,10.676,206,10.0614,-4.2726,-16.1709,0.9017,-1.7502,0.6851,40,80434.167,1555414,-0.9178,-1.3303,-6.8326,-0.3404,-1.9854,-1.4485,47
11.112,214,7.515,0.3536,-8.5128,0.3861,-0.8709,-0.0339,73,10.388,200,6.7006,-0.1702,-13.3674,1.376,0.3162,-0.5084,88,10.927,210,13.5739,-3.1673,-12.908,1.2334,-0.5455,-0.2029,70,10.728,207,5.2749,-4.3306,-14.9411,0.6487,-0.9974,0.3528,40,80434.219,1555415,-1.2829,-1.1858,-3.5262,0.4254,-0.7604,-0.4425,47
11.164,215,5.8008,-1.3496,-4.1494,-0.3956,0.0468,0.1194,73,10.44,201,6.0665,-0.5056,-12.866,1.3991,0.0386,-0.6506,88,10.979,211,12.7795,-2.6463,-13.1052,1.0324,-0.5194,-0.003,70,10.78,208,5.6873,-5.0391,-14.3091,-0.2036,-0.1391,-0.2299,40,80434.271,1555416,-1.359,-1.3888,-3.7595,0.9844,0.1337,0.3527,47
11.216,216,2.7726,-1.9474,-1.0131,-0.4871,0.7166,0.5768,73,10.492,202,6.0983,-1.0239,-12.4841,0.9787,-0.5978,-0.7612,88,11.031,212,11.7323,-2.48,-12.9822,0.7749,-0.4695,0.0728,70,10.832,209,5.293,-6.7726,-13.4018,0.2991,0.3183,-0.8392,40,80434.323,1555417,-1.3936,-1.5268,-3.9335,1.3923,0.7862,0.9331,47
11.267,217,-0.2715,-2.8364,-2.4687,-0.6672,1.2054,0.9916,73,10.544,203,9.3704,-2.9136,-12.5148,0.779,-1.0507,-1.2419,88,11.083,213,11.1374,-2.232,-12.7255,0.6379,-0.4355,0.0969,70,10.883,210,5.564,-7.3832,-12.6598,0.893,0.7717,-1.2839,40,80434.374,1555418,-1.4204,-1.5981,-4.0602,1.6901,1.2625,1.3567,47
11.319,218,-0.5016,-4.6065,-4.765,-0.9781,1.0919,1.1473,73,10.596,204,9.8085,-3.5885,-13.3347,-0.1115,-0.5387,-0.7367,88,11.134,214,10.6844,-1.836,-12.6626,0.5688,-0.4396,0.1089,70,10.935,211,6.2226,-7.5004,-12.9717,1.3264,1.2482,-1.6085,40,80434.426,1555419,-1.4439,-1.6364,-4.1609,1.9074,1.6101,1.6659,47
11.371,219,-1.4304,-5.2823,-8.3844,-1.0056,1.1197,1.2658,73,10.648,205,8.1818,-4.8746,-13.6653,0.4375,-0.0855,-0.1616,88,11.186,215,10.2669,-1.7066,-12.5627,0.495,-0.4565,0.1323,70,10.987,212,6.2318,-7.626,-13.5749,1.6428,1.5423,-1.8453,40,80434.478,1555420,4.3045,-5.1787,-1.976,2.0008,1.8585,1.5616,47
11.423,220,-2.4459,-5.1076,-10.9408,-0.7832,0.1555,1.0533,73,10.699,206,7.339,-2.5456,-13.4722,0.991,0.2657,-0.2924,88,11.238,216,10.0406,-1.7366,-12.3034,0.4693,-0.5486,0.1066,70,11.039,213,5.987,-8.3179,-15.701,1.8736,1.4583,-2.0182,40,80434.53,1555421,7.7587,-5.2266,-5.935,1.5979,1.6376,0.5055,47
11.475,221,3.2717,-7.0429,-15.9816,-0.2914,-0.5558,0.4591,73,10.751,207,8.0142,-1.9933,-13.5318,0.8623,0.1464,-0.2377,88,11.29,217,10.4252,-1.4801,-12.208,0.4228,-0.7767,0.0354,70,11.09,214,5.3209,-8.3039,-16.3751,2.0421,1.0952,-2.0748,40,80434.582,1555422,5.5525,-3.8119,-7.0543,0.9433,0.9337,-0.3071,47
11.526,222,-0.493,-6.9653,-16.8132,0.4617,-0.2115,1.0117,73,10.803,208,8.2222,-1.9664,-12.9635,1.1314,-0.3953,-0.4575,88,11.341,218,11.186,-1.7433,-12.3,0.2929,-1.1111,-0.0548,70,11.142,215,8.9808,-2.9817,-12.4424,1.2346,0.528,-1.6591,40,80434.633,1555423,3.9418,-2.7641,-7.824,0.4694,0.4174,-0.9002,47
11.578,223,4.697,-4.109,-17.3025,1.0112,-0.8237,0.6449,73,10.855,209,8.2956,-1.9748,-12.6043,1.1819,-0.4463,-0.3403,88,11.393,219,13.4298,-1.5934,-11.5432,0.2841,-1.4843,-0.3231,70,11.194,216,6.6252,-4.229,-13.7232,0.9493,0.8473,-0.8696,40,80434.685,1555424,-2.3547,-7.2752,-13.7358,-0.123,0.6877,-1.3331,47
11.63,224,8.114,-2.7861,-10.7041,0.1131,0.0757,0.7608,73,10.907,210,8.0381,-1.7785,-12.0518,1.5343,-0.2276,-0.0553,88,11.445,220,12.0282,-1.5695,-11.9867,0.6263,-1.7154,-0.5646,70,11.246,217,7.4191,-4.1407,-14.7965,0.2472,0.0426,-0.4631,40,80434.737,1555425,-2.0532,-4.0995,-11.2379,-0.6791,1.1906,-1.649,47
11.682,225,8.5653,-5.1008,-6.6049,-0.5948,0.7377,0.7711,73,10.959,211,7.2036,-1.6652,-11.1718,1.7916,-0.3648,-0.2728,88,11.497,221,10.837,-1.4495,-10.2398,0.9761,-1.3117,-0.6561,70,11.298,218,7.7922,-3.6419,-14.2006,0.2092,-0.1809,-0.3154,40,80434.789,1555426,-1.8349,-1.8347,-10.0797,-1.1397,1.5576,-1.8796,47
11.733,226,5.7578,-5.8947,-5.1527,-0.618,1.2208,1.0955,73,11.01,212,7.0832,-2.3496,-11.3488,1.2443,-0.4778,-0.0858,88,11.549,222,9.9136,-0.8376,-9.009,0.8139,-0.4277,-0.8682,70,11.349,219,8.5635,-2.2962,-13.8357,0.2081,-0.3495,-0.1158,40,80434.841,1555427,-1.6918,-0.1931,-9.2258,-1.5013,1.8255,-2.0479,47
11.785,227,3.4847,-6.2147,-6.6229,-0.4697,1.5706,1.4762,73,11.062,213,7.6408,-2.8266,-12.059,0.8175,-0.3927,-0.0337,88,11.601,223,9.5304,-1.1536,-8.9168,1.0295,0.3662,-1.0196,70,11.401,220,8.4808,-2.5966,-13.4801,0.0915,-0.2855,0.1616,40,80434.892,1555428,-1.601,0.9843,-8.5984,-1.7736,2.021,-2.1707,47
11.837,228,1.6992,-6.6099,-8.245,-0.392,1.4533,1.754,73,11.114,214,7.8479,-3.2466,-12.8116,0.6174,-0.354,-0.1101,88,11.653,224,9.2629,-1.9509,-10.4029,1.4279,0.9456,-1.0929,70,11.453,221,8.0772,-2.9119,-13.3006,0.2276,-0.5457,0.2312,40,80434.944,1555429,-1.5789,1.8371,-8.1329,-1.9723,2.1637,-2.2603,47
11.889,229,1.8535,-7.6448,-10.4071,-0.2957,0.3914,1.9568,73,11.166,215,7.6443,-3.5947,-12.7386,0.8356,-0.1742,-0.1811,88,11.704,225,8.2197,-5.5846,-15.5974,1.5208,0.1681,-0.7849,70,11.505,222,8.6112,-2.6043,-13.883,0.5214,-1.0651,0.1167,40,80434.996,1555430,-1.5636,2.4615,-7.7811,-2.1174,2.2678,-2.3257,47
11.941,230,2.2876,-5.7409,-12.5954,0.4398,-0.3837,2.1048,73,11.218,216,7.2869,-3.6444,-12.4217,0.8713,-0.0432,-0.1964,88,11.756,226,10.4977,-1.7942,-13.2121,1.3062,-0.2498,-0.5668,70,11.557,223,9.3631,-2.4981,-14.2504,0.8509,-1.4173,0.0493,40,80435.048,1555431,-1.8795,6.8807,-3.1156,-1.8068,2.3072,-2.3689,47
11.992,231,0.9744,-0.8697,-13.7791,0.9954,-0.9494,2.2128,73,11.269,217,6.3862,-4.0246,-12.3776,0.9816,0.1695,-0.1652,88,11.808,227,9.6382,-0.7734,-14.1131,1.4412,-0.5989,-0.4445,70,11.608,224,9.0613,-3.4613,-14.3223,1.0432,-1.51,-0.0285,40,80435.099,1555432,-1.4454,5.6468,-4.2617,-1.2385,2.3726,-2.1226,47
12.044,232,-0.7084,1.9724,-15.5048,1.3451,-1.3622,1.8417,73,11.321,218,5.4196,-4.5794,-13.3144,1.2668,0.4046,-0.1699,88,11.86,228,9.5975,-1.3393,-14.2925,1.0703,-0.5306,-0.2922,70,11.66,225,7.8522,-4.5526,-11.8997,1.3085,-1.1003,-0.0808,40,80435.151,1555433,-0.9089,4.3192,-5.4947,-0.8038,2.4203,-1.8894,47
12.096,233,3.0844,5.4982,-14.3504,1.0835,-0.317,1.706,73,11.373,219,6.017,-4.0793,-13.2143,1.4369,-0.2303,0.0968,88,11.911,229,9.6836,-1.155,-14.0724,0.5542,-0.3301,-0.1348,70,11.712,226,8.2715,-4.6704,-9.9619,1.4645,-0.4004,-0.311,40,80435.203,1555434,-5.7593,7.2374,-12.0358,-1.1454,2.4527,-2.055,47
12.148,234,7.3079,3.1418,-15.0165,0.1134,-0.9007,1.1244,73,11.425,220,7.9638,-4.0488,-13.768,1.7204,-0.8277,0.2611,88,11.963,230,8.5147,-1.3255,-13.7108,0.0585,-0.213,0.0301,70,11.764,227,8.6407,-4.7989,-9.7454,1.2958,0.3927,-0.5209,40,80435.255,1555435,-4.4403,6.2144,-10.6232,-1.5047,2.4787,-2.1759,47
12.2,235,8.038,-1.1968,-10.0454,0.1484,0.0251,1.4836,73,11.477,221,9.2923,-3.2395,-12.5296,1.3332,-1.1713,0.3192,88,12.015,231,7.6867,-1.2519,-13.8495,-0.3028,-0.1752,0.1586,70,11.815,228,9.3197,-4.5184,-10.4272,1.2587,0.9716,-0.6288,40,80435.306,1555436,-3.5199,5.4614,-9.6287,-1.7761,2.4978,-2.2641,47
12.252,236,9.1337,-3.6291,-8.891,0.0322,0.7007,1.7594,73,11.528,222,8.814,-3.4228,-11.9636,0.293,-1.2285,0.4393,88,12.067,232,5.0929,-0.4912,-14.451,-0.4484,-0.1416,0.1481,70,11.867,229,9.172,-4.0578,-11.291,1.3286,1.3662,-0.745,40,80435.358,1555437,-2.8891,4.8804,-8.8782,-1.9741,2.5116,-2.3285,47
12.303,237,4.3216,-2.4865,-10.7073,0.6195,1.1938,1.9608,73,11.58,223,7.871,-3.9438,-11.6033,-0.4221,-1.1596,0.2604,88,12.118,233,8.9827,-2.2329,-14.9837,-0.1371,-0.2541,0.2194,70,11.919,230,8.3887,-4.6032,-13.3071,1.3098,1.2755,-0.8214,40,80435.41,1555438,-2.4707,4.4353,-8.3215,-2.1187,2.5218,-2.3755,47
12.355,238,-1.6032,-1.0441,-12.0644,0.5279,1.0791,2.1077,73,11.632,224,6.1385,-4.7577,-11.496,-0.9149,-0.8408,0.2663,88,12.17,234,11.7775,-2.8558,-15.408,-0.2555,-0.8589,-0.1224,70,11.971,231,4.805,-5.6114,-15.4374,0.7414,1.4413,-0.4457,40,80435.461,1555439,-2.197,4.0863,-7.9156,-2.2242,2.5292,-2.4098,47
12.407,239,-5.7658,0.726,-13.5451,0.9751,1.3341,2.2149,73,11.684,225,5.5542,-4.8355,-11.2647,-0.264,-0.6734,0.3772,88,12.222,235,13.8615,-2.8444,-16.6766,-0.3712,-1.3002,-0.628,70,12.023,232,5.5306,-4.8223,-19.2481,0.6259,0.3852,0.2129,40,80435.513,1555440,-2.0133,3.8057,-7.6182,-2.3012,2.5346,-2.4349,47
12.459,240,-8.1775,1.1813,-13.6839,1.1663,0.94,2.2932,73,11.736,226,5.2354,-3.9227,-11.5014,0.479,-0.3705,0.4232,88,12.274,236,15.3824,-3.442,-14.7687,0.0717,-1.6224,-1.0754,70,12.074,233,2.1561,-2.7335,-19.0607,0.1791,0.6978,0.4964,40,80435.565,1555441,3.889,2.0001,-13.2212,-2.3499,2.5385,-2.3858,47
12.511,241,-7.2442,1.7537,-16.5844,1.2453,0.0167,1.9808,73,11.787,227,6.4314,-2.7989,-13.1354,1.0213,-0.6586,0.0893,88,12.326,237,14.1794,-3.3077,-13.2529,0.7289,-1.8575,-1.2294,70,12.126,234,6.6909,-3.6079,-18.6788,0.2436,-0.0393,0.0924,40,80435.617,1555442,4.4957,1.4153,-11.2211,-2.3929,2.5414,-1.0656,47
12.562,242,-0.2971,3.4766,-20.1005,1.0792,-0.6571,0.9456,73,11.839,228,7.0584,-2.6019,-13.0525,0.9825,-0.9336,-0.0637,88,12.377,238,11.77,-2.2708,-11.886,1.2085,-1.3196,-1.1674,70,12.178,235,6.619,-2.0202,-17.8504,0.2817,-0.3351,0.0552,40,80435.669,1555443,3.6586,0.4325,-9.9167,-2.4218,2.5435,-0.102,47
12.614,243,-1.5567,6.5666,-22.6668,0.1276,0.2028,0.3152,73,11.891,229,9.4339,-2.3999,-14.9931,0.0371,-0.6589,-0.2173,88,12.429,239,9.6647,-1.6798,-11.3307,0.9616,-0.2847,-1.1242,70,12.23,236,7.3701,-2.1152,-16.6346,0.3597,-0.2511,0.243,40,80435.72,1555444,0.2577,1.1663,-4.6742,-1.8086,2.545,-0.7078,47
12.666,244,3.9207,4.2636,-22.4042,0.6452,-0.5213,-0.2795,73,11.943,230,7.6702,-3.6119,-15.516,0.6988,-0.1108,-0.8449,88,12.481,240,9.0461,-1.814,-11.4557,0.9408,0.4705,-0.934,70,12.281,237,7.4254,-2.9699,-15.3727,0.3491,-0.1882,0.302,40,80435.772,1555445,0.2257,1.2325,-5.2909,-1.3661,2.5461,-1.1772,47
12.718,245,7.3916,-0.0162,-14.5386,-0.2065,-0.1766,0.0327,73,11.995,231,7.5972,-4.9969,-15.103,0.8123,-0.6708,-0.8952,88,12.533,241,9.9169,-1.9498,-12.0571,1.1302,1.0218,-0.675,70,12.333,238,6.779,-3.0814,-14.5374,0.2779,-0.2221,0.2697,40,80435.824,1555446,0.2507,1.2442,-5.8705,-1.0617,2.5469,-1.5301,47
12.769,246,8.961,-5.2096,-11.6543,-0.8281,0.5535,0.7005,73,12.046,232,8.2716,-4.9121,-15.6553,0.5757,-0.9072,-0.9316,88,12.585,242,10.2096,-1.764,-12.9857,0.4789,1.4241,-0.2289,70,12.385,239,5.9639,-1.1373,-13.7695,0.1839,-0.4395,0.2218,40,80435.876,1555447,0.2726,1.2501,-6.3075,-0.8544,2.5475,-1.7852,47
12.821,247,3.9501,-4.8792,-9.8334,-0.3964,1.0864,1.1879,73,12.098,233,9.5066,-5.8225,-13.6994,-0.2245,-0.1979,-0.0376,88,12.636,243,10.3499,-1.0954,-14.6268,-0.3257,1.7177,0.259,70,12.437,240,6.7782,-3.6802,-12.9403,-0.1703,-0.5795,0.2582,40,80435.927,1555448,0.2919,1.2601,-6.617,-0.7203,2.548,-1.9693,47
12.873,248,-0.3309,-4.4493,-8.9836,-0.0473,1.4012,1.5436,73,12.15,234,6.9519,-6.9501,-13.6999,-0.8439,0.4939,0.3071,88,12.688,244,7.3186,-1.047,-18.6802,-0.9129,1.2762,0.3802,70,12.488,241,7.4513,-4.0979,-14.1103,-0.667,-1.0397,0.5585,40,80435.979,1555449,0.3052,1.2672,-6.8356,-0.6378,2.5483,-2.1026,47
12.925,249,-2.1476,0.4786,-10.5526,0.6399,1.7051,1.8033,73,12.202,235,6.3258,-4.3056,-13.2995,0.0558,0.2015,0.4064,88,12.74,245,10.4077,-2.8424,-19.1717,-0.3398,0.258,0.0989,70,12.54,242,10.5556,-5.4145,-15.3664,-0.5421,-1.4256,0.5344,40,80436.031,1555450,0.2244,1.2613,-6.9813,-0.5957,2.5485,-2.1976,47
12.976,250,-1.5918,2.9351,-12.2269,1.1414,0.6635,1.864,73,12.254,236,4.9482,-3.4067,-13.6002,0.644,0.599,0.3655,88,12.792,246,11.5041,-0.7411,-16.8918,-0.7591,-0.4782,0.0975,70,12.592,243,10.8455,-5.2799,-15.0453,-0.3286,-1.6746,0.8779,40,80436.083,1555451,-3.3592,-1.0411,-8.8841,0.0912,1.6654,-2.2799,47
13.028,251,1.4575,7.5321,-16.4775,1.4047,-0.1851,0.798,73,12.306,237,3.8196,-2.2825,-13.2155,0.3543,0.6312,0.2745,88,12.844,247,11.0592,-1.4,-15.2327,-0.3611,-0.7668,-0.0479,70,12.644,244,8.351,-4.6383,-15.0915,-0.3706,-1.3073,1.3211,40,80436.135,1555452,-1.1345,-2.2375,-8.6055,0.6572,0.5524,-2.3401,47
13.08,252,3.3268,6.8077,-18.3414,1.3617,0.1864,0.4961,73,12.358,238,6.3734,-2.4585,-13.5429,0.1002,0.1355,0.1301,88,12.895,248,10.8748,-1.6134,-14.3037,-0.7535,-0.6708,0.0304,70,12.696,245,7.0309,-4.4852,-13.6343,-0.357,-0.6774,1.6444,40,80436.186,1555453,-0.2134,-2.0228,-8.6365,1.1079,-0.2599,-2.3839,47
13.132,253,5.7587,10.3585,-10.7952,0.3532,-0.5333,-0.2443,73,12.409,239,6.7349,-2.8678,-14.0898,0.0424,0.0883,-0.3904,88,12.947,249,10.3656,-2.0858,-13.912,-0.6762,-0.5838,0.0682,70,12.747,246,8.1225,-3.3796,-12.7708,0.3813,-0.1293,1.4771,40,80436.238,1555454,-1.7154,-3.2432,-11.3612,0.1308,-0.8528,-2.1455,47
13.184,254,9.2598,2.3624,-14.0708,-0.4196,-0.2184,0.0593,73,12.461,240,5.9785,-5.135,-13.7057,-0.649,-0.276,-0.4555,88,12.999,250,10.0656,-2.651,-13.255,-0.6409,-0.4475,0.1092,70,12.799,247,9.8911,-2.1757,-11.7563,0.4777,0.5906,0.998,40,80436.29,1555455,-1.5822,-2.3747,-8.3634,-0.5824,-1.2855,-1.9849,47
13.235,255,5.8026,-0.8049,-7.6889,0.0049,0.523,0.0471,73,12.513,241,7.3057,-5.4384,-15.2037,-1.1537,0.125,0.2569,88,13.051,251,9.4403,-3.0967,-12.1576,-0.4413,-0.4811,0.0085,70,12.851,248,11.4414,-1.5239,-11.2759,-0.3048,1.116,0.5713,40,80436.342,1555456,-1.4448,-1.7701,-6.1577,-1.103,-1.6013,-1.8732,47
13.287,256,3.1791,-2.7057,-3.5739,-0.6738,0.8935,0.5169,73,12.565,242,7.7317,-6.2493,-15.3378,-0.2729,-0.1303,0.4025,88,13.103,252,8.9533,-3.4558,-11.2291,-0.2264,-0.7868,-0.1123,70,12.903,249,11.5462,-1.572,-11.1114,-0.5757,1.4995,0.0633,40,80436.393,1555457,-1.3166,-1.3561,-4.5498,-1.4829,-1.8318,-1.7976,47
13.339,257,1.4783,-2.2508,-3.3763,-0.5375,1.3346,0.7729,73,12.617,243,7.2001,-5.2184,-15.1587,0.4566,0.301,0.5056,88,13.155,253,8.8402,-2.9237,-11.6248,-0.2524,-1.1978,-0.1896,70,12.955,250,10.9952,-2.4428,-14.1759,-0.266,1.7793,-0.6032,40,80436.445,1555458,-1.2083,-1.0768,-3.4044,-1.7601,-2.0,-1.7478,47
13.391,258,1.062,-2.0951,-3.7104,-0.3418,1.6564,1.1792,73,12.668,244,6.4927,-4.2976,-15.0593,0.6633,0.6394,0.5492,88,13.206,254,9.8301,-2.815,-12.158,-0.3953,-1.5457,-0.2128,70,13.006,251,7.5235,-2.8874,-18.3274,0.4806,1.9836,-0.946,40,80436.497,1555459,-1.1386,-0.8908,-2.5927,-1.9625,-2.1228,-1.716,47
13.443,259,-0.0198,-0.6848,-6.0329,0.4064,1.8914,1.2915,73,12.72,245,5.6676,-3.8876,-14.6748,0.7461,0.6203,0.5859,88,13.258,255,12.4402,-4.151,-12.6308,-0.8141,-1.8016,-0.1623,70,13.058,252,10.6083,-7.4041,-10.7684,0.6882,0.7809,-0.9843,40,80436.549,1555460,-6.0625,4.6809,-9.9178,-2.1102,-1.4668,-1.338,47
13.494,260,-0.4486,2.6273,-11.4327,0.971,0.7608,0.3888,73,12.772,246,5.9595,-3.1373,-14.1212,0.9534,0.5035,0.5285,88,13.31,256,12.3619,-4.7633,-11.2448,-1.1542,-1.985,-0.291,70,13.11,253,8.6789,-5.7136,-12.6718,0.0672,1.0007,-0.1728,40,80436.6,1555461,-7.0791,5.3784,-14.2699,-1.957,-0.3819,-0.7324,47
13.546,261,4.7294,0.0208,-5.7529,0.2532,-0.1141,-0.1046,73,12.824,247,5.9494,-2.5337,-14.0098,0.7694,0.3157,0.4544,88,13.362,257,9.9278,-3.9366,-11.0543,-0.6044,-1.7361,-0.2409,70,13.162,254,9.2053,-7.6796,-14.7051,-0.1846,0.0636,-0.2898,40,80436.652,1555462,-4.9692,3.4111,-10.5322,-1.4921,0.4099,0.0341,47
13.598,262,4.0405,-2.7194,-6.0354,0.2232,-0.5508,-0.6493,73,12.876,248,6.2859,-1.8926,-12.8628,0.1298,-0.1336,0.3734,88,13.413,258,8.5561,-1.6891,-10.6899,-0.1717,-0.7176,-0.2164,70,13.214,255,8.4334,-6.4073,-14.1533,-0.4523,-0.0104,0.0497,40,80436.704,1555463,-3.5359,1.9513,-7.8141,-1.1214,0.9879,0.5945,47
13.65,263,6.4895,1.8534,-10.0332,0.7381,-1.0713,-0.4086,73,12.927,249,6.5112,-1.8077,-12.4262,-0.5853,-0.0073,0.4132,88,13.465,259,7.7355,-0.761,-10.6905,-0.1597,0.1546,-0.0522,70,13.265,256,8.4953,-6.026,-14.3121,-0.3282,-0.2788,0.0383,40,80436.756,1555464,-3.7136,-1.1851,-6.4221,-1.4659,0.5483,-0.2422,47
13.702,264,9.7931,0.4905,-6.128,-0.1387,-1.4512,-0.5698,73,12.979,250,7.5152,-3.8545,-13.9055,0.1565,0.5817,-0.1194,88,13.517,260,8.3044,-0.6588,-11.0678,-0.386,0.7912,0.2067,70,13.317,257,7.8599,-5.2485,-14.2172,-0.2234,-0.2542,0.0255,40,80436.807,1555465,-3.2677,-1.292,-6.6903,-1.7478,-0.2629,-0.8528,47
13.753,265,10.9465,-0.1686,-1.8813,-0.4973,-0.3768,-0.4387,73,13.031,251,9.0101,-3.6817,-12.7412,0.2253,0.1907,-0.3511,88,13.569,261,10.1592,-0.7673,-11.6974,-0.7934,1.2558,0.5578,70,13.369,258,7.7063,-4.8106,-13.9031,-0.2129,-0.3775,0.0761,40,80436.859,1555466,-2.939,-1.3553,-6.8997,-1.9535,-0.855,-1.2985,47
13.805,266,10.7083,-2.7182,0.0666,-1.0403,0.4074,0.2237,73,13.083,252,8.7214,-3.3724,-14.6449,-0.3589,0.6868,-0.3672,88,13.621,262,11.2154,-1.3085,-12.4082,-1.1125,1.5949,0.8773,70,13.421,259,7.3321,-4.6693,-14.0273,-0.3747,-0.4816,0.237,40,80436.911,1555467,-2.6886,-1.4107,-7.0628,-2.1036,-1.2871,-1.6238,47
13.857,267,6.809,-2.7973,-0.046,-0.1369,0.9798,0.8399,73,13.135,253,8.2965,-3.8566,-14.6893,-0.0488,1.0202,-0.548,88,13.672,263,10.1382,-0.2455,-14.3123,-0.9095,1.8424,0.7481,70,13.472,260,7.8763,-4.7451,-14.3429,-0.5217,-0.8422,0.4505,40,80436.963,1555468,-2.4685,-1.4539,-7.1907,-2.2132,-1.6025,-1.8611,47
13.909,268,3.8292,0.3993,-2.1435,-0.3262,1.3975,0.9774,73,13.186,254,7.974,-3.1532,-14.0828,0.3634,1.0602,-0.7771,88,13.724,264,6.4782,-3.3704,-18.4506,-0.1241,1.1984,0.6115,70,13.524,261,10.4374,-5.3298,-14.793,-0.4077,-1.2815,0.6196,40,80437.014,1555469,-2.2984,-1.4775,-7.2831,-2.2931,-1.8326,-2.0344,47
13.961,269,3.3103,0.798,-4.0363,0.407,1.7024,0.9255,73,13.238,255,6.7388,-1.7457,-13.1379,-0.2869,1.2329,-0.8297,88,13.776,265,9.9938,-2.4583,-18.3807,-0.6337,0.2013,0.0201,70,13.576,262,12.7349,-5.9767,-15.5574,0.1134,-1.6021,0.8326,40,80437.066,1555470,-6.8095,0.3481,-9.4678,-2.3515,-2.0006,-2.1609,47
14.012,270,1.2766,0.61,-5.2884,0.6821,1.8995,0.9905,73,13.29,256,6.165,-1.7217,-13.0158,-0.8894,1.2709,-0.3427,88,13.828,266,10.377,-1.6183,-17.6985,-0.1842,-0.4724,0.0815,70,13.628,263,10.4089,-4.793,-14.0625,0.2456,-1.575,1.288,40,80437.118,1555471,-4.5808,3.1352,-7.0836,-1.8382,-2.0112,-2.0708,47
14.064,271,1.664,1.0691,-7.6157,1.167,0.7234,0.9138,73,13.342,257,5.4439,-2.0994,-13.2105,-0.0406,0.9038,-0.3559,88,13.88,267,11.3464,-2.2242,-16.4728,-0.5672,-0.6601,-0.0336,70,13.68,264,7.166,-3.436,-13.8738,0.0619,-0.6837,1.1648,40,80437.17,1555472,-3.4773,5.454,-2.8459,-0.9956,-2.1309,-1.6947,47
14.116,272,2.191,0.167,-11.3849,0.2345,-0.1355,1.1466,73,13.394,258,6.9845,-1.2027,-13.0994,0.2046,0.7332,-0.2923,88,13.931,268,11.1332,-2.2584,-15.1111,-0.3102,-0.6216,-0.0767,70,13.731,265,6.4968,-2.5742,-12.8935,0.2425,-0.0913,0.6288,40,80437.221,1555473,-1.9808,6.1184,-2.6659,-0.0528,-2.2183,-0.8769,47
14.167,273,1.7223,1.3701,-11.7714,0.8455,-0.7682,0.815,73,13.445,259,8.0318,-1.7147,-12.6324,0.1382,0.0272,-0.5666,88,13.983,269,10.3255,-2.9931,-13.9511,-0.1875,-0.5332,-0.1352,70,13.783,266,6.9114,-3.0645,-11.968,0.2517,0.6183,0.0824,40,80437.273,1555474,-1.4969,4.7507,-3.3297,0.6354,-2.2821,-0.1663,47
14.219,274,4.2069,3.1659,-9.5562,1.2915,-1.23,0.8241,73,13.497,260,10.533,-3.4051,-12.8225,-0.3814,-0.0844,-0.7248,88,14.035,270,9.9339,-3.0402,-12.7865,0.0863,-0.6157,-0.2546,70,13.835,267,8.0947,-2.814,-11.9521,0.0368,1.1362,-0.3331,40,80437.325,1555475,2.9851,-1.7906,-10.4517,0.4236,-2.2074,0.4057,47
14.271,275,8.127,6.6713,-7.4129,0.2652,-1.5671,1.1627,73,13.549,261,10.6336,-4.6378,-12.3737,-0.3212,-0.0529,-0.4061,88,14.087,271,9.4987,-2.8405,-11.5411,0.3633,-0.8813,-0.3673,70,13.887,268,9.0194,-2.5999,-12.6417,-0.385,1.5142,-0.5521,40,80437.377,1555476,2.4106,-0.3816,-9.0548,0.0383,-2.2741,0.9718,47
14.323,276,8.871,-0.3287,-3.3888,0.1565,-0.4613,0.2051,73,13.601,262,10.078,-3.1241,-11.3794,-0.3254,-0.0089,-0.2481,88,14.139,272,9.5101,-1.6556,-11.5662,0.3605,-1.2344,-0.4146,70,13.938,269,9.6066,-2.2583,-13.9056,-0.9492,1.7901,-0.5296,40,80437.428,1555477,1.9909,0.6155,-8.0841,-0.2896,-2.3228,1.385,47
14.375,277,3.2105,1.2415,-0.319,-0.5487,-0.0846,0.2613,73,13.653,263,8.6079,-2.5318,-11.3933,0.1908,0.1862,0.0051,88,14.19,273,9.2624,-1.4926,-11.603,0.0571,-1.5696,-0.2969,70,13.99,270,9.6057,-1.8538,-17.2345,-1.3699,1.9915,-0.5066,40,80437.48,1555478,1.7013,1.3499,-7.3717,-0.5679,-2.3584,1.6865,47
14.426,278,2.3287,1.0405,0.0764,-1.0219,0.6038,0.3221,73,13.705,264,7.8329,-2.2463,-11.1149,-0.0469,0.3926,0.3189,88,14.242,274,12.0259,-1.6766,-12.537,-0.2835,-1.8189,-0.055,70,14.042,271,7.6398,-1.2214,-20.5597,-0.4515,0.9787,-0.6949,40,80437.532,1555479,1.517,1.8873,-6.8586,-0.8168,-2.3843,1.9066,47
14.478,279,1.8253,0.6593,-1.2406,-0.4311,1.1231,0.1925,73,13.757,265,6.968,-1.5234,-11.0974,0.1195,0.4251,0.4065,88,14.294,275,13.8083,-2.6372,-12.1379,-0.881,-1.9646,0.2292,70,14.094,272,6.6993,-0.2167,-17.9067,0.3415,0.2651,-0.7734,40,80437.584,1555480,1.9224,-0.1177,-10.2729,-1.004,-2.3583,1.8725,47
14.53,280,3.647,1.7354,-3.7937,0.1223,1.1748,-0.3945,73,13.808,266,6.1855,-0.7165,-10.6321,0.0418,0.3134,0.4564,88,14.346,276,10.4112,-1.0728,-12.0553,-1.0956,-1.6205,0.6209,70,14.146,273,8.4354,-4.1138,-17.7696,-0.4279,-0.0677,-0.5277,40,80437.635,1555481,1.5309,-0.9368,-10.6198,-0.9648,-1.6775,1.3007,47
14.582,281,6.7882,-3.9311,-0.1776,0.7631,1.4661,-0.636,73,13.86,267,5.7825,0.1955,-9.7776,-0.3534,0.1955,0.3678,88,14.397,277,9.0965,0.0613,-11.6303,-0.2399,-0.9362,0.8709,70,14.197,274,8.2483,-2.9089,-17.0345,-0.3177,-0.4296,-0.305,40,80437.687,1555482,5.2643,-1.8691,-12.5293,-1.1137,-0.9506,0.3112,47
14.633,282,5.6821,-2.9568,-2.715,-0.1205,0.5677,-0.6478,73,13.912,268,6.4659,0.3409,-9.6029,-0.9222,0.1458,0.1706,88,14.449,278,8.0279,1.7857,-11.7828,-0.1299,-0.0049,0.6842,70,14.249,275,8.0564,-3.8334,-16.154,-0.3245,-0.4665,-0.1328,40,80437.739,1555483,5.5796,-1.3973,-12.434,-1.064,-0.3155,-0.4489,47
14.685,283,3.8883,-4.0516,-6.2623,0.0663,-0.2499,-1.0198,73,13.964,269,8.8167,0.628,-9.4741,-1.3531,0.1638,-0.0453,88,14.501,279,8.2282,1.9071,-12.1633,-0.1877,0.6748,0.3063,70,14.301,276,7.9473,-3.7887,-15.6436,-0.2836,-0.4476,0.0122,40,80437.791,1555484,3.9685,-0.6333,-11.2751,-1.2247,0.4584,-1.0037,47
14.737,284,2.3227,-0.5489,-5.8903,0.1762,-0.8517,-1.1144,73,14.015,270,11.3544,1.2609,-9.3161,-1.6676,0.4452,-0.3357,88,14.553,280,9.2283,1.661,-12.4677,0.0765,1.1708,0.0062,70,14.353,277,7.5996,-4.0309,-15.257,-0.2567,-0.3883,0.0983,40,80437.843,1555485,2.6099,-0.0502,-10.4116,-1.3667,1.0232,-1.4086,47
14.789,285,6.752,-0.4799,-7.5916,0.7093,-1.291,-1.3368,73,14.067,271,13.2025,-0.4755,-11.34,-1.1664,1.0035,-0.9314,88,14.605,281,10.4602,1.5865,-12.675,-0.5643,1.5329,-0.0635,70,14.405,278,7.6249,-3.9509,-14.924,-0.2889,-0.3897,0.1282,40,80437.894,1555486,2.5284,-0.5799,-9.5823,-0.9645,0.0837,-1.3519,47
14.841,286,9.9847,-0.3023,-4.5818,-0.0542,-0.2598,-1.1939,73,14.119,272,12.5237,0.1062,-13.5531,-0.4845,1.2157,-1.3662,88,14.657,282,11.085,1.3064,-13.3051,-1.0871,1.7971,0.0966,70,14.456,279,7.4322,-4.0513,-14.7186,-0.3645,-0.3875,0.2743,40,80437.946,1555487,1.8861,-0.5228,-9.3127,-0.6542,-0.602,-1.3127,47
14.892,287,9.6774,-0.3676,-0.7528,-0.7166,0.3322,-0.7557,73,14.171,273,11.3762,0.8966,-13.1007,-1.0337,1.1128,-1.5896,88,14.708,283,11.0398,0.9238,-13.9404,-1.4686,1.99,0.2624,70,14.508,280,7.5148,-4.0938,-14.8064,-0.3666,-0.4859,0.3973,40,80437.998,1555488,1.4371,-0.4697,-9.1174,-0.4221,-1.1025,-1.2839,47
14.944,288,7.1912,-0.2368,-2.35,-0.8586,0.9249,-0.6894,73,14.223,274,9.1431,0.9604,-12.9473,-1.4344,0.8973,-1.5213,88,14.76,284,9.6514,0.5916,-16.2748,-1.7471,1.7302,0.1401,70,14.56,281,7.9105,-4.4797,-14.7966,-0.4045,-0.7448,0.6056,40,80438.049,1555489,1.0974,-0.4313,-8.9694,-0.2481,-1.4677,-1.2632,47
14.996,289,3.7236,1.0064,-5.5978,-0.8947,1.3575,-1.0486,73,14.274,275,7.2882,0.7841,-12.7067,-1.7245,0.4389,-1.3866,88,14.812,285,8.6561,-2.065,-10.582,-1.6053,1.3027,0.0387,70,14.612,282,9.1117,-5.3556,-15.2198,-0.5426,-1.1121,1.0641,40,80438.101,1555490,-0.9273,3.0434,-11.95,-0.1118,-1.7343,-1.2483,47
15.048,290,-0.359,1.3886,-8.2176,-0.6634,1.6732,-1.3821,73,14.326,276,5.7766,1.1071,-11.9245,-1.9319,-0.0346,-1.2083,88,14.864,286,9.0889,-1.8778,-11.4002,-1.2497,0.3209,-0.0708,70,14.664,283,11.3269,-6.245,-14.7911,-0.5008,-1.3806,1.4569,40,80438.153,1555491,-1.0812,2.9361,-15.0608,0.0588,-1.7066,-1.3542,47
15.1,291,-3.2579,1.6093,-8.3628,-0.5561,0.9695,-1.5581,73,14.378,277,5.1933,1.6001,-11.5551,-2.0062,-0.4981,-0.9226,88,14.916,287,9.1569,-2.6132,-12.1207,-1.1665,-0.2587,-0.0842,70,14.715,284,10.0413,-4.707,-14.5922,-0.8872,-1.0721,1.7437,40,80438.205,1555492,0.3419,3.8033,-17.7011,0.1184,-0.9961,-0.7748,47
15.151,292,1.6148,-0.1817,-11.312,0.1214,1.0521,-1.2105,73,14.43,278,5.7851,3.2231,-11.1235,-2.1442,-0.8324,-0.5679,88,14.967,288,9.0982,-2.4403,-12.6135,-0.9722,-0.5039,-0.1165,70,14.767,285,9.1642,-4.1525,-13.6874,-1.3246,-0.5405,1.8623,40,80438.256,1555493,0.2505,2.7029,-15.7028,-0.3432,-0.0818,0.1102,47
15.203,293,-1.841,0.1808,-12.5953,0.7603,0.1592,-0.4319,73,14.482,279,7.4718,2.7249,-10.8031,-2.245,-0.7834,-0.257,88,15.019,289,9.4148,-3.1114,-12.0775,-0.794,-0.5763,-0.1184,70,14.819,286,8.7092,-3.4486,-13.104,-0.7624,0.1295,1.6801,40,80438.308,1555494,0.3856,1.736,-13.5612,-0.872,0.629,0.7561,47
15.255,294,1.3819,1.339,-10.9621,1.2293,-0.5532,-0.2059,73,14.534,280,9.1487,0.8918,-9.5473,-1.8289,-0.5604,-0.3406,88,15.071,290,9.1486,-3.4314,-11.88,-0.6343,-0.6002,-0.161,70,14.871,287,8.8223,-2.5981,-13.1886,-0.1728,0.7795,1.1694,40,80438.36,1555495,0.2939,0.9429,-11.8314,-1.2481,1.1477,1.2275,47
15.307,295,6.0654,5.7849,-8.701,0.2198,-1.0731,0.2623,73,14.585,281,9.4028,-0.0624,-9.9248,-0.6631,-0.3885,-0.6949,88,15.123,291,8.9599,-3.5569,-11.7714,-0.4897,-0.6412,-0.2444,70,14.922,288,9.1249,-2.0127,-13.7608,-0.1141,1.2538,0.6491,40,80438.412,1555496,0.4224,0.5406,-10.4898,-0.9695,0.175,0.3121,47
15.359,296,8.8069,2.2877,-6.8073,-0.5024,-0.1008,-0.0081,73,14.637,282,8.9406,2.0866,-9.5177,0.1878,-0.57,-0.836,88,15.175,292,8.7104,-3.5169,-11.8054,-0.3606,-0.7004,-0.3389,70,14.974,289,9.6928,-1.9045,-14.5538,-0.5406,1.6001,0.3019,40,80438.463,1555497,0.355,0.187,-10.0904,-0.7552,-0.5354,-0.4395,47
15.41,297,7.5081,1.6889,-3.8846,-1.0365,0.6089,0.0554,73,14.689,283,9.5625,3.0188,-9.1254,-0.543,-0.5086,-0.4794,88,15.226,293,8.571,-3.166,-12.0307,-0.237,-0.7674,-0.4239,70,15.026,290,10.5429,-2.1756,-15.7222,-0.8639,1.8528,0.0277,40,80438.515,1555498,0.3201,-0.0572,-9.7673,-0.5863,-1.0538,-0.9968,47
15.462,298,5.7776,-0.5681,-4.3795,-1.389,1.1268,0.5316,73,14.741,284,8.9524,2.5535,-9.0936,-1.0763,-0.164,-0.1288,88,15.278,294,8.68,-2.6169,-12.1776,-0.2407,-0.8453,-0.3854,70,15.078,291,10.7329,-2.4322,-19.0971,-0.9562,2.0372,-0.2921,40,80438.567,1555499,0.3017,-0.2363,-9.5384,-0.4513,-1.4322,-1.4036,47
15.514,299,2.9823,-0.6642,-5.6273,-0.7501,1.5048,0.9272,73,14.793,285,8.203,2.2563,-8.6887,-0.4446,0.0176,-0.1794,88,15.33,295,8.7518,-2.673,-12.3175,-0.3926,-0.9907,-0.2336,70,15.13,292,8.1704,-2.5142,-21.9191,-1.1251,2.1718,-0.237,40,80438.619,1555500,0.2889,-0.3664,-9.3797,-0.3427,-1.7084,-1.7004,47
15.566,300,2.593,-0.3575,-7.1131,0.102,1.3076,1.0017,73,14.844,286,7.323,2.5436,-8.5323,0.0567,0.105,-0.2277,88,15.382,296,10.0154,-3.0004,-12.7512,-0.6066,-1.2369,-0.165,70,15.181,293,11.0366,-2.1331,-13.3898,-0.9683,0.9183,-0.3351,40,80438.67,1555501,-2.2447,2.5506,-13.0947,-0.0875,-1.3127,-1.4532,47
15.618,301,1.8006,0.9521,-8.9026,0.5469,0.6811,0.6793,73,14.896,287,6.1648,2.9246,-8.099,-0.123,0.1824,-0.1631,88,15.434,297,11.354,-3.7474,-13.1455,-0.8067,-1.5761,-0.1911,70,15.233,294,10.5484,-6.8536,-15.8434,-1.3838,0.1693,-0.3372,40,80438.722,1555502,-2.9301,4.6203,-13.7976,-0.581,-1.3994,-1.5515,47
15.669,302,0.5207,3.8792,-14.2264,0.4265,1.0793,0.2862,73,14.948,288,5.8134,2.6455,-7.4545,-0.1033,0.1615,-0.1491,88,15.485,298,11.1359,-3.531,-13.1953,-0.9339,-1.5491,-0.1711,70,15.285,295,8.2121,-3.7765,-15.4874,-0.9037,-0.2645,-0.3298,40,80438.774,1555503,-1.9551,3.6416,-11.6311,-1.1019,-1.5581,-1.6683,47
15.721,303,-5.1523,4.5129,-16.6374,0.25,0.2076,-0.271,73,15.0,289,6.7723,3.7535,-6.0757,-0.1251,0.0945,-0.2142,88,15.537,299,8.8318,-1.4571,-13.0386,-1.0615,-1.1246,0.1885,70,15.337,296,8.0533,-4.5251,-14.9858,-0.9718,-0.3153,-0.0819,40,80438.826,1555504,-1.4878,2.6285,-10.251,-1.4821,-1.6007,-1.5734,47
15.773,304,-2.237,5.3139,-18.2031,0.6685,-0.5178,-0.8729,73,15.052,290,8.1161,4.2283,-6.0344,-0.7713,0.0766,-0.2206,88,15.589,300,8.3288,-0.1731,-11.7348,-1.0777,-0.3318,0.8043,70,15.389,297,7.5905,-3.7507,-15.0302,-0.6929,-0.3835,-0.1144,40,80438.878,1555505,3.5873,-3.3395,-9.9371,-1.7596,-1.6638,-1.4805,47
15.825,305,3.4242,5.4997,-10.6943,-0.1381,-0.6745,-0.7011,73,15.103,291,9.6845,3.3107,-7.343,-0.5405,0.2505,-0.265,88,15.641,301,8.9788,1.5781,-11.5709,-0.7179,0.4362,1.1244,70,15.44,298,8.7707,-4.4171,-14.0863,-1.0279,-0.2656,0.1014,40,80438.93,1555506,2.8443,-2.2575,-8.7501,-1.9621,-1.8774,-1.2308,47
15.877,306,7.5559,1.8451,-7.452,-0.7782,0.1902,-0.5054,73,15.155,292,9.3124,3.2761,-7.8417,-0.2856,0.1105,-0.1577,88,15.692,302,9.553,1.8498,-11.4829,-1.0847,0.9967,1.1493,70,15.492,299,9.3389,-4.5872,-13.5142,-0.8375,-0.5269,-0.0052,40,80438.981,1555507,2.1062,-1.6902,-8.2228,-2.1099,-2.0333,-1.0485,47
15.928,307,9.0906,0.1198,-6.7697,-1.2453,0.8212,-0.1906,73,15.207,293,8.0249,3.4828,-7.6966,-0.3831,-0.1866,-0.101,88,15.744,303,10.0848,2.8773,-12.0382,-1.4669,1.4058,0.9091,70,15.544,300,9.1602,-4.2304,-12.7562,-0.7442,-0.6887,-0.0369,40,80439.033,1555508,1.5448,-1.2656,-7.8322,-2.2178,-2.1471,-0.9165,47
15.98,308,6.4407,-0.6542,-7.6431,-1.5194,1.2818,-0.1773,73,15.259,294,7.1092,3.8812,-7.6436,-0.9352,-0.6269,-0.0597,88,15.796,304,9.0516,2.1306,-14.8789,-1.7458,1.7044,0.8527,70,15.596,301,8.7182,-3.7931,-12.5273,-0.7577,-0.8946,0.0236,40,80439.085,1555509,1.1432,-0.9585,-7.534,-2.2965,-2.2301,-0.8208,47
16.032,309,0.154,1.742,-9.7159,-0.4993,1.4095,-0.3282,73,15.311,295,6.8505,4.3738,-8.0281,-1.3626,-1.1125,-0.1434,88,15.848,305,9.0437,6.5072,-18.8642,-1.5918,0.9336,0.8483,70,15.648,302,8.6832,-3.8377,-14.2099,-1.1284,-1.3197,0.522,40,80439.137,1555510,-4.3972,2.3628,-2.9352,-2.1082,-1.8734,-0.7651,47
16.084,310,-3.0271,4.5131,-12.3758,0.31,0.7933,-0.9146,73,15.363,296,7.5169,2.9626,-7.8795,-1.6745,-0.958,-0.3208,88,15.9,306,10.0947,2.3079,-16.9137,-1.619,0.5628,0.4372,70,15.7,303,10.7737,-4.2052,-14.8627,-0.9338,-1.4745,0.9544,40,80439.188,1555511,-8.4019,5.8304,-7.4914,-1.1569,-1.2285,0.0846,47
16.136,311,-3.8358,5.1988,-16.0971,-0.4511,-0.0904,-1.3427,73,15.414,297,7.4662,2.5245,-8.5486,-1.9021,-0.6395,-0.0953,88,15.952,307,12.3471,1.7683,-15.1847,-1.4736,0.3602,0.2944,70,15.751,304,10.1914,-5.2344,-14.6076,-0.5904,-1.1064,1.3084,40,80439.24,1555512,-6.3208,3.2043,-5.6609,-0.1705,-0.208,0.7375,47
16.187,312,-2.7139,2.7225,-15.7114,-1.0066,0.5527,-0.6575,73,15.466,298,7.3358,2.1617,-9.006,-1.3735,-0.656,-0.2433,88,16.003,308,11.033,0.0368,-13.9262,-0.9491,0.0736,0.0817,70,15.803,305,9.1367,-4.4471,-8.6909,-1.0151,-0.5312,1.2681,40,80439.292,1555513,-4.8374,1.4756,-4.5528,0.5494,0.5369,1.2139,47
16.239,313,3.0759,-2.7168,-18.6266,-0.3286,-0.266,0.1968,73,15.518,299,6.1708,2.1649,-8.2028,-0.9668,-1.0192,-0.2991,88,16.055,309,10.8315,-0.0373,-13.3261,-0.7325,-0.021,-0.0685,70,15.855,306,8.4053,-5.3609,-6.9482,-0.9596,0.2973,1.2052,40,80439.343,1555514,1.8278,-4.1006,-11.3484,0.9705,0.3461,0.2099,47
16.291,314,5.213,-0.2377,-13.5044,-0.8968,-0.8634,0.0178,73,15.57,300,9.2601,4.9485,-8.0201,-1.3814,-1.415,-0.6824,88,16.107,310,10.5315,-0.212,-12.5133,-0.5788,-0.0788,-0.0859,70,15.907,307,8.51,-5.6338,-7.1471,-0.4228,0.9019,1.0129,40,80439.395,1555515,1.8533,-2.8332,-10.7382,1.2541,0.3318,-0.5229,47
16.343,315,8.8614,-2.3654,-8.4004,-1.1394,-0.0627,-0.5098,73,15.622,301,9.9678,3.0745,-8.7213,-1.4324,-0.4179,-0.5213,88,16.159,311,9.9948,-0.5555,-12.1922,-0.6056,-0.2227,-0.058,70,15.959,308,9.2485,-5.7793,-9.4283,-0.3788,1.3432,0.9002,40,80439.447,1555516,1.7889,-1.8781,-10.353,1.4574,0.3474,-1.0577,47
16.395,316,10.0931,-6.8933,-5.4333,-0.965,0.6367,-0.8104,73,15.673,302,9.362,2.8904,-8.9385,-1.0304,-0.4981,-0.4791,88,16.211,312,9.4724,-1.2234,-12.316,-0.5473,-0.4742,-0.1216,70,16.01,309,9.0722,-5.8484,-12.7592,-0.1408,1.6653,0.7419,40,80439.499,1555517,1.7402,-1.1667,-10.0829,1.6016,0.3801,-1.448,47
16.446,317,6.4108,-9.5891,-9.139,-0.5293,1.1471,-0.7043,73,15.725,303,8.6131,2.635,-8.9232,-0.6484,-0.4805,-0.3948,88,16.262,313,9.4033,-2.1025,-12.0436,-0.4908,-0.722,-0.2836,70,16.062,310,8.362,-4.6279,-17.2934,0.1246,1.7038,0.3851,40,80439.55,1555518,1.6905,-0.6155,-9.877,1.7004,0.4299,-1.7329,47
16.498,318,1.8217,-12.1938,-12.7709,-0.8764,1.5196,0.126,73,15.777,304,8.1373,3.3394,-8.5593,-0.9489,-0.1121,-0.245,88,16.314,314,9.8216,-2.4314,-12.3208,-0.4512,-1.0214,-0.5788,70,16.114,311,7.9735,-0.0104,-19.085,0.7656,0.6198,-0.3903,40,80439.602,1555519,1.6579,-0.1868,-9.7289,1.7675,0.4868,-1.9408,47
16.55,319,4.2842,-12.8699,-15.4322,-1.1428,0.4397,0.7686,73,15.829,305,7.6361,2.1262,-8.1822,-1.1216,0.3817,-0.1206,88,16.366,315,12.434,-2.3866,-11.996,-0.7189,-1.3234,-0.8767,70,16.166,312,9.9118,-5.3044,-15.7598,-0.1183,0.2357,-0.2708,40,80439.654,1555520,-3.5303,-5.3942,-4.5372,0.9167,0.9914,-2.0925,47
16.602,320,5.3433,-4.0031,-19.2596,-0.1597,-0.1412,1.2376,73,15.88,306,7.6644,0.9337,-7.6114,-0.9214,0.6683,0.1787,88,16.418,316,10.7647,-2.0657,-11.7525,-0.8775,-1.4159,-0.7712,70,16.218,313,8.2568,-2.6207,-14.3424,-0.6371,0.1534,0.0224,40,80439.706,1555521,-7.6462,-1.8946,-2.4121,-0.0089,1.4123,-2.2033,47
16.654,321,8.9566,-7.8187,-11.4654,0.5578,-0.7678,1.5799,73,15.932,307,7.6878,0.7988,-7.198,-0.5593,0.8956,0.3145,88,16.469,317,9.7946,-0.828,-15.0603,-1.3156,-1.3149,-0.0563,70,16.269,314,8.0296,-2.9822,-13.6252,-0.5116,-0.2455,0.0383,40,80439.757,1555522,-9.6454,-1.4961,-2.4907,-0.6743,1.7194,-2.2841,47
16.706,322,3.0262,-2.5378,-10.8188,0.7132,-1.1916,1.8041,73,15.984,308,7.6053,1.3362,-7.3734,-0.3352,0.4336,0.0429,88,16.521,318,9.5186,0.241,-13.2701,-0.2837,-1.2631,0.6367,70,16.321,315,8.0019,-3.1005,-13.7214,-0.5042,-0.3651,0.0261,40,80439.809,1555523,-7.0378,-0.3732,-1.8786,-1.17,1.9436,-2.3273,47
16.757,323,7.2654,3.5377,-5.3049,-0.1077,-1.539,1.61,73,16.036,309,8.3482,1.9133,-8.1425,0.0076,0.6915,0.2121,88,16.573,319,10.1408,3.2244,-11.9996,-0.2118,-0.2811,1.1322,70,16.373,316,7.8673,-3.4155,-13.7794,-0.4981,-0.2915,0.0511,40,80439.861,1555524,-5.2452,0.6623,-1.3849,-1.5318,2.1072,-2.3579,47
16.809,324,10.3594,-2.6157,-11.7804,-0.7559,-0.9865,1.8517,73,16.088,310,7.825,2.4147,-8.2365,0.4565,0.6261,0.3226,88,16.625,320,10.3972,3.8409,-11.2165,-0.8298,0.4732,1.1169,70,16.425,317,7.5286,-4.6125,-12.954,-0.3076,-0.2591,-0.0553,40,80439.913,1555525,-4.1468,1.8993,-2.747,-0.6105,0.8748,-1.0452,47
16.861,325,11.4548,-5.8503,-8.3882,0.0305,-0.0376,1.7206,73,16.139,311,7.4986,3.9951,-6.8148,0.4189,0.3528,0.1891,88,16.677,321,10.3842,4.2339,-10.2856,-0.3841,1.0237,0.8786,70,16.477,318,7.1809,-4.4501,-10.8169,0.4501,-0.7122,-0.2519,40,80439.964,1555526,-3.123,2.7559,-3.2322,-0.0008,-0.0246,-0.0871,47
16.913,326,7.1876,-0.1482,-5.3933,0.683,0.655,1.2848,73,16.191,312,6.7297,3.9114,-6.5351,-0.3743,0.1775,-0.0107,88,16.728,322,9.6025,2.909,-10.2204,-0.6564,1.4255,0.6257,70,16.528,319,8.8811,-1.7361,-13.1354,0.4249,-1.1825,-0.0408,40,80440.016,1555527,-2.3203,3.3831,-3.6065,0.3704,-0.6811,0.6121,47
16.965,327,2.2227,2.308,-5.5314,0.4499,1.1605,0.4212,73,16.243,313,6.7619,3.9162,-6.1631,-0.7985,0.1041,-0.2325,88,16.78,323,9.2556,1.8851,-12.633,-1.1543,1.7187,0.7846,70,16.58,320,9.1944,-2.0071,-13.3589,0.0411,-1.5137,0.3839,40,80440.068,1555528,-1.6868,3.8419,-3.9049,0.5788,-1.1601,1.1224,47
17.016,328,0.0626,3.6273,-6.5211,0.9254,1.5294,-0.1434,73,16.295,314,7.1642,3.5446,-6.7596,-0.8561,0.3654,-0.3197,88,16.832,324,5.3524,-1.194,-17.225,-0.5375,1.1308,1.0054,70,16.632,321,11.8278,-5.2025,-14.4036,-0.062,-1.7716,0.9527,40,80440.12,1555529,-1.1751,4.1663,-4.1613,0.6567,-1.5098,1.4949,47
17.068,329,-0.6046,5.1523,-7.1511,1.3498,1.4077,-0.7798,73,16.347,315,7.1403,3.4523,-7.5097,-0.1664,0.4866,-0.5184,88,16.884,325,-1.4177,1.3976,-20.5764,-0.9256,1.4882,0.5045,70,16.684,322,13.7497,-4.74,-14.831,0.3829,-1.783,1.3757,40,80440.172,1555530,-6.0892,6.4666,-11.0626,0.3911,-0.9781,1.7636,47
17.12,330,3.973,4.9835,-12.5507,0.3496,0.358,-1.2442,73,16.399,316,6.8147,3.4454,-6.8445,-0.2977,0.5301,-0.4581,88,16.936,326,1.5795,1.4762,-18.7736,-0.7982,0.982,0.5412,70,16.736,323,9.4905,-2.4424,-16.2558,-0.0933,-0.6613,1.6844,40,80440.223,1555531,-6.4642,4.706,-6.4916,-0.3671,-0.649,1.2235,47
17.172,331,4.0307,7.0098,-17.1566,-0.4222,-0.408,-1.5452,73,16.45,317,5.9466,3.0207,-7.081,-0.5838,0.5656,-0.3537,88,16.987,327,2.6711,-0.3336,-17.4068,-0.6754,0.5001,0.4986,70,16.787,324,7.5277,-1.8175,-14.08,-0.4142,-0.1045,1.5897,40,80440.275,1555532,-9.2317,3.623,-6.9788,-0.9456,-0.098,0.2872,47
17.223,332,-0.6949,10.506,-13.1929,-0.1585,-0.6637,-0.935,73,16.502,318,4.4836,2.5009,-7.6511,0.2171,0.2767,-0.6434,88,17.039,328,4.3524,-1.6741,-16.3898,-0.5991,0.2983,0.3413,70,16.839,325,6.3428,-1.4087,-13.6774,-0.0767,0.6087,1.1931,40,80440.327,1555533,-6.7533,2.8006,-7.5969,-1.3679,0.3833,-0.4319,47
17.275,333,4.5496,8.718,-7.1352,-0.5679,-1.1537,-0.6846,73,16.554,319,8.1919,3.3805,-5.1552,0.3697,-0.4293,-0.4751,88,17.091,329,5.4367,-2.2412,-15.3406,-0.4263,0.203,0.142,70,16.891,326,7.3532,-0.9756,-14.1026,0.0639,1.1292,0.5833,40,80440.378,1555534,-4.8091,2.9486,-6.6688,-0.3274,-0.1652,0.358,47
17.327,334,8.3773,1.165,-5.4475,-1.0918,-0.2242,0.169,73,16.606,320,9.5586,4.0908,-4.8729,-0.4102,-0.4668,-0.3678,88,17.143,330,6.1539,-2.5573,-14.4379,-0.2667,0.1032,0.0039,70,16.943,327,8.2742,-1.0182,-14.7624,-0.4398,1.5091,0.0337,40,80440.43,1555535,-3.6751,2.3638,-7.1168,0.4349,-0.5638,0.937,47
17.379,335,11.1709,2.4114,-3.1564,-0.978,0.5188,0.6819,73,16.658,321,9.2072,2.5269,-5.2066,-0.7255,-0.3758,-0.3,88,17.195,331,6.8209,-2.6108,-13.5698,-0.3171,-0.0281,-0.039,70,16.994,328,9.3408,-1.704,-15.6333,-0.7931,1.7864,-0.4667,40,80440.482,1555536,-2.8367,1.9394,-7.5668,0.9913,-0.8676,1.3595,47
17.431,336,9.5445,0.8777,-3.0218,-1.195,1.0611,0.9698,73,16.71,322,8.9698,2.4846,-5.6454,-0.5116,-0.346,-0.1503,88,17.246,332,7.3716,-2.8728,-12.8613,-0.3749,-0.3075,0.0008,70,17.046,329,8.622,-2.8811,-18.4817,-0.8559,1.9887,-0.8571,40,80440.534,1555537,-2.2101,1.6207,-7.8916,1.3974,-1.0991,1.668,47
17.482,337,2.8722,1.3442,-4.6528,-0.8471,1.4568,0.669,73,16.762,323,8.3364,2.0127,-6.3661,-0.4891,-0.2461,0.1533,88,17.298,333,8.9551,-2.746,-12.6203,-0.9237,-0.7658,0.2471,70,17.098,330,5.6486,-3.1071,-21.47,-0.5859,2.1364,-0.69,40,80440.586,1555538,-1.7555,1.3807,-8.1226,1.6938,-1.2805,1.893,47
17.534,338,-0.8257,2.5431,-7.1585,0.0544,1.7457,0.3092,73,16.813,324,7.0895,1.1894,-7.1722,-0.1772,-0.2284,0.4408,88,17.35,334,11.8016,-3.9443,-13.3442,-1.3494,-1.2323,0.5877,70,17.15,331,9.2399,-4.415,-13.062,-0.7986,1.3717,-0.1644,40,80440.637,1555539,-1.4281,1.2013,-8.2965,1.9101,-1.4229,2.0573,47
17.586,339,-3.546,2.7523,-9.4466,0.7141,1.335,-0.2267,73,16.865,325,5.8524,0.5862,-7.3371,0.1149,-0.2555,0.6461,88,17.402,335,9.5575,-3.7748,-13.6384,-1.6601,-1.1726,0.7754,70,17.202,332,6.7931,-2.28,-13.0037,-0.4372,1.5503,-0.13,40,80440.689,1555540,0.2812,-1.33,-8.283,1.6747,-1.1558,1.8142,47
17.638,340,-3.3464,3.582,-10.5993,0.7307,0.305,-0.8395,73,16.917,326,4.8798,1.228,-7.2344,0.2328,-0.2694,0.8312,88,17.454,336,6.7391,-1.983,-13.794,-1.7158,-0.9031,0.8425,70,17.254,333,10.0752,-5.1692,-11.8442,-0.5949,0.4647,-0.4582,40,80440.741,1555541,-2.453,-2.2728,-4.233,0.6372,-0.3163,1.5894,47
17.69,341,0.041,3.447,-15.5386,0.2255,-0.4279,-0.4827,73,16.969,327,4.0174,1.4286,-7.3449,-0.3902,-0.5311,1.016,88,17.506,337,7.0026,-0.176,-12.9359,-0.8126,-0.3043,0.6524,70,17.305,334,9.0581,-4.3207,-12.3396,-0.6203,0.1948,-0.2987,40,80440.793,1555542,-1.7001,-1.6115,-4.8152,-0.2128,0.4578,0.9693,47
17.741,342,0.3839,1.0822,-14.0457,-0.1593,-0.9817,-0.385,73,17.02,328,5.7436,0.7071,-7.046,-0.9648,-1.0603,1.0995,88,17.557,338,7.1084,0.6423,-12.4272,-0.2894,0.4563,0.3091,70,17.357,335,8.6674,-4.2962,-12.5864,-0.4796,0.1274,-0.187,40,80440.844,1555543,-1.1926,-1.087,-5.2531,-0.8332,1.0228,0.5202,47
17.793,343,5.337,-1.1986,-11.7319,-0.1361,-1.3858,-0.262,73,17.072,329,9.1115,1.5171,-7.4415,-1.0629,-1.2439,1.0144,88,17.609,339,8.0383,0.4341,-12.3474,-0.4211,1.0114,0.0049,70,17.409,336,8.131,-4.0098,-12.8717,-0.3758,0.1383,-0.1402,40,80440.896,1555544,0.614,-1.3001,-3.2508,-0.5213,0.0834,0.3473,47
17.845,344,8.952,3.9395,-8.4021,0.5751,-0.329,-0.6935,73,17.124,330,10.6589,0.5019,-8.4914,-0.8929,-0.8105,0.4943,88,17.661,340,9.1652,-0.1786,-12.2905,-0.25,1.4165,-0.0876,70,17.461,337,7.9718,-4.0851,-12.8052,-0.2723,0.0591,-0.1357,40,80440.948,1555545,0.5164,-0.9606,-4.6267,-0.2626,-0.6022,0.2266,47
17.897,345,11.307,2.7997,-5.3168,-0.2577,-0.0678,-0.1397,73,17.176,331,9.9763,0.0795,-9.0341,-0.0577,-0.5986,-0.2524,88,17.713,341,9.9996,-0.3504,-12.1027,-0.0786,1.7122,-0.1202,70,17.512,338,7.7914,-4.1539,-12.9492,-0.3822,-0.0725,-0.031,40,80441.0,1555546,0.4568,-0.715,-5.6681,-0.074,-1.1026,0.1397,47
17.949,346,9.2247,2.3374,-4.7696,-0.5196,0.6329,0.1494,73,17.228,332,8.8058,0.37,-9.109,0.1676,-0.5686,-0.6967,88,17.765,342,10.5322,-0.3777,-12.564,-0.3689,1.928,-0.17,70,17.564,339,7.7001,-3.6552,-13.3128,-0.5117,-0.3136,0.1846,40,80441.051,1555547,0.4083,-0.5492,-6.4309,0.0645,-1.4678,0.0773,47
18.0,347,4.3009,0.8006,-5.5276,-0.5285,1.1444,0.1354,73,17.28,333,7.8296,0.8658,-9.2239,-0.0828,-0.4956,-0.814,88,17.816,343,8.6198,-2.5897,-16.7435,-0.4041,1.8227,-0.1647,70,17.616,340,7.2157,-4.2322,-13.827,-0.896,-0.5428,0.5468,40,80441.103,1555548,0.3581,-0.4342,-6.9914,0.1669,-1.7344,0.0327,47
18.052,348,0.9371,1.6657,-7.2981,0.2887,1.5176,-0.1016,73,17.331,334,7.0749,1.0753,-9.389,-0.7404,-0.3268,-0.6403,88,17.868,344,10.6525,-3.3055,-10.1965,-0.1267,0.9005,0.014,70,17.668,341,7.6314,-5.1843,-14.0661,-0.8808,-1.0564,0.7899,40,80441.155,1555549,0.3266,-0.3331,-7.4033,0.2424,-1.9289,0.0009,47
18.104,349,-3.7059,1.4549,-8.2405,0.2573,1.5141,-0.297,73,17.383,335,6.9996,-0.9206,-9.4864,-1.2204,-0.2102,-0.5007,88,17.92,345,13.0404,-3.1182,-6.2215,-0.2962,0.0207,-0.1133,70,17.72,342,10.6704,-4.9183,-15.3832,-0.74,-1.4378,0.9422,40,80441.207,1555550,5.5967,5.0879,-11.0768,0.4786,-2.0709,0.6517,47
18.156,350,-4.9776,0.7353,-9.6874,-0.267,0.7372,-0.2107,73,17.435,336,6.674,-1.1169,-9.6224,-0.4658,-0.1367,-0.4286,88,17.972,346,12.7747,-1.3397,-7.7531,0.2432,-0.6583,-0.0019,70,17.771,343,10.8699,-5.4174,-15.322,-0.362,-1.7162,0.9868,40,80441.258,1555551,6.6442,4.2402,-8.4733,0.0358,-2.1745,1.1514,47
18.208,351,1.4239,1.5302,-6.8468,0.4795,-0.1313,0.4164,73,17.487,337,6.877,-0.3726,-9.7678,0.2216,-0.0473,-0.2266,88,18.024,347,12.278,-1.8827,-9.0564,0.1745,-0.9613,0.0556,70,17.823,344,9.9857,-4.1823,-14.9029,-0.0995,-1.6663,0.9162,40,80441.31,1555552,4.8098,3.007,-6.9734,-0.6517,-2.25,1.516,47
18.26,352,-3.1231,0.6345,-8.3517,-0.2441,0.2233,0.1309,73,17.539,338,8.445,1.7516,-8.8299,-0.0054,0.0012,0.2255,88,18.075,348,12.0757,-1.2074,-10.0133,0.2398,-1.0416,0.1347,70,17.875,345,7.6181,-2.7658,-14.3505,0.0051,-1.1935,0.5691,40,80441.362,1555553,3.797,2.4716,-7.184,-1.1535,-2.2246,1.7821,47
18.311,353,2.7774,3.1959,-7.6623,-0.0591,-0.5064,0.0408,73,17.59,339,9.9956,0.4088,-9.8584,-0.6707,0.1317,0.4192,88,18.127,349,11.0096,-1.7367,-10.3853,0.1991,-0.997,0.1378,70,17.927,346,7.0187,-2.8857,-12.2942,0.1951,-0.3361,-0.1111,40,80441.414,1555554,-1.636,2.623,-12.9696,-0.835,-2.0656,0.6246,47
18.363,354,7.0839,-2.8652,-9.9872,-0.7205,0.3128,0.7065,73,17.642,340,9.6451,-0.4928,-9.3341,-0.036,0.0996,0.0703,88,18.179,350,10.3051,-2.0175,-10.7524,0.2032,-1.0117,0.0808,70,17.978,347,6.8722,-2.8969,-11.1274,0.4244,0.4397,-0.7525,40,80441.466,1555555,-1.2523,1.142,-11.6758,-0.7769,-2.1707,-0.2202,47
18.415,355,9.8255,-0.346,-7.715,-1.1035,0.9107,1.0728,73,17.694,341,9.3871,-0.2046,-8.0513,0.6,-0.0517,-0.0846,88,18.231,351,9.9742,-1.9816,-11.2578,0.1533,-1.0354,0.0267,70,18.03,348,8.1917,-3.4163,-11.4885,0.4746,1.0059,-1.2206,40,80441.517,1555556,-0.8742,0.0336,-10.6466,-0.6782,-2.2473,-0.8368,47
18.467,356,6.8966,1.1476,-6.0839,-0.6102,1.3471,0.5085,73,17.746,342,9.5731,-0.4343,-7.9563,0.762,0.0171,0.0305,88,18.283,352,9.6251,-1.8415,-11.7756,-0.0284,-1.0323,0.0254,70,18.082,349,9.4569,-3.908,-12.8946,0.4503,1.4191,-1.5585,40,80441.569,1555557,-0.5578,-0.7843,-9.9062,-0.5588,-2.3033,-1.2868,47
18.519,357,1.117,1.6889,-6.705,-0.3954,1.6656,-0.304,73,17.798,343,9.4067,-0.9328,-7.9045,0.363,0.1986,0.2078,88,18.334,353,9.4708,-1.3031,-12.144,-0.2736,-1.0535,0.1439,70,18.134,350,8.6165,-5.0256,-16.8908,0.5387,1.7207,-1.6849,40,80441.621,1555558,-0.2525,-1.3692,-9.3838,-0.4153,-2.3441,-1.6152,47
18.57,358,-1.8302,0.1584,-7.3991,-0.9471,1.8604,-0.897,73,17.849,344,8.5342,-1.2244,-7.6889,0.1381,0.3259,0.4605,88,18.386,354,10.4441,-1.9051,-12.7354,-0.6215,-1.3183,0.3634,70,18.185,351,5.9002,-4.565,-19.2409,0.5661,1.7653,-1.589,40,80441.672,1555559,0.0029,-1.772,-9.0171,-0.2645,-2.3739,-1.8549,47
18.622,359,-2.711,-0.8871,-8.5648,-0.5822,1.4209,-1.2377,73,17.901,345,7.235,-1.1109,-7.6732,0.1409,0.3293,0.7619,88,18.438,355,12.8883,-2.9517,-12.9389,-1.0344,-1.6356,0.4996,70,18.237,352,6.2994,-5.6246,-22.0241,-0.1224,1.5809,-0.4794,40,80441.724,1555560,-4.9476,-3.3896,-12.8388,-0.5841,-2.3957,-2.0298,47
18.674,360,-3.1918,-3.1789,-11.0015,-1.0772,0.603,-1.4148,73,17.953,346,6.2962,-0.5981,-7.7141,0.0024,0.1734,1.0578,88,18.49,356,11.7146,-3.3622,-12.5939,-1.1705,-1.7731,0.3494,70,18.289,353,6.714,-4.3264,-17.7038,-0.2882,1.0751,-0.23,40,80441.776,1555561,-7.5784,-1.7192,-15.3613,-1.1042,-1.1726,-1.8762,47
18.726,361,2.7273,-5.5048,-16.0259,-0.1133,-0.2292,-1.1898,73,18.005,347,5.9397,0.2803,-7.7226,-0.262,-0.206,1.2135,88,18.542,357,8.6452,-2.0038,-13.573,-0.7032,-1.5936,0.2481,70,18.341,354,8.0001,-5.7262,-15.8973,-0.5949,0.1198,-0.1707,40,80441.828,1555562,-5.1826,-1.346,-12.6834,-1.4838,-0.1672,-0.9859,47
18.778,362,1.1539,-5.6451,-12.8254,0.5917,-0.5002,-0.597,73,18.057,348,6.4594,0.3608,-7.5288,-0.8148,-0.6444,1.2135,88,18.593,358,8.2673,-0.4591,-12.4067,0.1518,-0.789,0.0602,70,18.393,355,7.4944,-4.7175,-15.2429,-0.5874,0.1066,0.0152,40,80441.88,1555563,-3.3917,-1.0624,-10.6293,-1.7608,0.5667,-0.3331,47
18.829,363,5.899,-2.0105,-13.6791,1.1062,-1.0344,-0.0537,73,18.108,349,8.9285,-1.5017,-8.6734,-1.0481,-0.7009,1.0445,88,18.645,359,7.7076,-0.0659,-11.8413,0.3347,0.1025,-0.2215,70,18.444,356,7.8093,-4.1493,-14.7587,-0.4549,0.0578,0.1278,40,80441.931,1555564,-1.4612,-0.9243,-10.3938,-0.6112,1.1022,0.4325,47
18.881,364,9.3267,2.8831,-12.2016,0.13,-1.2367,0.3495,73,18.16,350,11.1968,-1.6204,-8.9164,-0.4894,-0.178,0.4388,88,18.697,360,7.8708,-0.1806,-11.8089,0.3974,0.7532,-0.5157,70,18.496,357,7.617,-4.2229,-14.0102,-0.463,0.0313,0.2188,40,80441.983,1555565,-1.804,-1.2178,-6.2767,0.2278,1.4931,0.9914,47
18.933,365,11.8639,2.5095,-6.773,0.4376,-0.2202,0.6065,73,18.212,351,11.3243,-1.5916,-9.0219,0.2934,0.1187,-0.3661,88,18.749,361,8.4831,-0.9941,-12.4022,0.9304,1.2281,-0.7201,70,18.548,358,7.7597,-4.2252,-13.5956,-0.3883,-0.1217,0.1726,40,80442.035,1555566,-2.0936,-1.3665,-3.1962,0.8401,1.7784,1.3992,47
18.985,366,9.3424,-0.3538,-5.7438,-0.358,0.5217,1.1193,73,18.264,352,10.1653,-1.2946,-9.426,0.2591,0.2137,-0.9536,88,18.801,362,8.4756,-3.1305,-15.1475,1.3556,1.5746,-0.8709,70,18.6,359,7.2409,-3.2213,-13.3702,-0.3073,-0.3159,0.2664,40,80442.087,1555567,-2.3184,-1.4164,-0.9619,1.287,1.9866,1.6969,47
19.036,367,4.329,0.5963,-6.257,0.3831,1.0632,1.4936,73,18.316,353,9.0606,-1.7494,-9.7081,-0.1435,0.2928,-1.3126,88,18.852,363,8.074,-5.0098,-17.3263,1.3826,1.3386,-0.715,70,18.652,360,7.3345,-3.6755,-13.1435,-0.2598,-0.7025,0.4224,40,80442.138,1555568,-2.4742,-1.4094,0.6416,1.6132,2.1386,1.9142,47
19.088,368,0.5129,-1.4985,-7.6622,0.4771,1.4013,1.7667,73,18.368,354,8.2632,-1.9033,-9.81,-0.233,0.4049,-1.3922,88,18.904,364,11.1585,-0.9178,-19.9658,1.5636,0.3036,-0.4781,70,18.703,361,8.1736,-4.071,-14.388,-0.2452,-1.1793,0.439,40,80442.19,1555569,-2.5784,-1.3794,1.7923,1.8513,2.2495,2.0727,47
19.14,369,0.3191,-2.7175,-8.9695,0.5128,0.9509,1.9661,73,18.419,355,7.7211,-1.8231,-9.2776,-0.1433,0.6684,-1.3132,88,18.956,365,7.0884,-1.4215,-18.3352,1.5998,-0.3317,-0.2491,70,18.755,362,9.4501,-5.0169,-15.5727,0.0992,-1.5275,0.1127,40,80442.242,1555570,-2.6551,-1.3548,2.6479,2.025,2.3305,2.1885,47
19.192,370,-0.2734,-1.7638,-12.9978,1.0486,0.609,2.1116,73,18.471,356,8.5919,-2.811,-9.0659,-0.6991,1.1299,-0.8458,88,19.008,366,8.7381,-1.6256,-16.867,1.3468,-0.7525,-0.1477,70,18.807,363,8.5285,-4.6573,-15.0002,0.7441,-1.7816,-0.336,40,80442.294,1555571,-2.0782,-6.1828,-1.9383,2.1518,2.241,1.0832,47
19.244,371,-0.2673,2.6992,-14.3663,1.4397,-0.2249,2.1536,73,18.523,357,8.6784,-3.2706,-9.2289,-0.424,1.4574,-0.0902,88,19.06,367,8.9666,-1.0589,-16.2244,1.2693,-0.858,-0.0215,70,18.859,364,6.249,-5.4755,-14.5202,0.9808,-1.8254,-0.3853,40,80442.345,1555572,-0.0866,-7.5658,-2.1913,1.7246,1.5214,0.1145,47
19.295,372,4.8615,5.9861,-15.925,0.6105,-0.1784,2.2142,73,18.575,358,8.4416,-2.0178,-8.3603,0.3623,1.3419,0.3479,88,19.111,368,9.1987,-1.1388,-15.6228,1.0584,-0.7491,0.1129,70,18.91,365,5.9553,-6.4752,-14.7472,0.7319,-1.3834,-0.0425,40,80442.397,1555573,0.1124,-5.4951,-4.3304,1.2483,0.828,-0.5925,47
19.347,373,5.8169,7.7669,-15.3252,0.9406,-0.7995,1.0221,73,18.627,359,8.8913,-0.9337,-8.6422,0.7098,0.9739,0.7748,88,19.163,369,9.1735,-1.0422,-14.9753,0.931,-0.5909,0.2094,70,18.962,366,6.8124,-6.0764,-15.2557,0.62,-1.0859,0.1734,40,80442.449,1555574,0.7209,-3.995,-0.5971,0.2332,0.0488,-1.0752,47
19.399,374,9.3022,4.6719,-10.8336,0.0091,-1.2498,1.0575,73,18.679,360,8.0419,1.2392,-6.8542,0.8214,0.3469,0.9984,88,19.215,370,8.7705,-1.2174,-13.9059,0.4096,-0.3756,0.3149,70,19.014,367,6.0311,-5.5972,-15.7867,0.6597,-0.9769,0.2407,40,80442.501,1555575,0.1351,-2.8545,-1.5149,-0.5077,-0.5999,-1.4578,47
19.451,375,11.846,1.5199,-8.0375,-0.6542,-0.2297,1.3928,73,18.73,361,7.7354,2.0679,-6.2617,0.9197,-0.391,0.9356,88,19.267,371,9.0885,-0.9525,-13.2933,-0.0875,-0.3142,0.5151,70,19.066,368,7.7695,-2.9753,-13.1471,0.1076,-0.5136,-0.0758,40,80442.553,1555576,-0.3023,-2.0434,-2.2348,-1.0484,-1.0882,-1.7395,47
19.503,376,11.9243,1.3292,-7.747,-1.1549,0.5148,1.3552,73,18.782,362,7.6375,1.8742,-5.6641,0.2006,-0.7739,0.9621,88,19.319,372,8.3988,-1.429,-13.3671,-0.373,-0.3005,0.6982,70,19.118,369,8.7526,-2.5662,-11.5284,-0.1404,0.1231,-0.4376,40,80442.604,1555577,-0.6446,-1.456,-2.7491,-1.4431,-1.4545,-1.9456,47
19.554,377,6.6919,1.4894,-7.4723,-1.1705,1.0581,0.3909,73,18.834,363,7.7152,2.9869,-3.8012,0.3812,-1.0083,0.6621,88,19.37,373,8.8305,-2.1083,-13.0665,-0.442,-0.3047,0.7599,70,19.169,370,9.323,-2.5739,-11.6608,-0.0893,0.7748,-0.9324,40,80442.656,1555578,-0.89,-1.0419,-3.1022,-1.7311,-1.7246,-2.096,47
19.606,378,-0.6483,0.4899,-9.3865,-1.1598,1.114,-0.2668,73,18.886,364,6.7763,1.5438,-5.1024,-0.0694,-0.4589,0.5522,88,19.422,374,8.4054,-2.348,-13.2946,-0.3727,-0.365,0.7106,70,19.221,371,9.647,-2.4709,-12.8328,-0.0289,1.2504,-1.3519,40,80442.708,1555579,-1.0714,-0.7593,-3.3416,-1.9413,-1.9218,-2.2058,47
19.658,379,-0.6289,-1.4719,-13.814,-0.7099,0.8778,-0.1718,73,18.938,365,7.0624,1.4227,-5.99,-0.618,-0.2103,0.4716,88,19.474,375,9.0386,-2.6064,-13.1439,-0.3276,-0.5339,0.5814,70,19.273,372,7.9296,-4.4907,-15.886,0.6085,1.5976,-1.6581,40,80442.76,1555580,-1.4987,-1.744,-8.9273,-1.0349,-2.0657,-2.2859,47
19.71,380,-1.5192,-4.5236,-18.0786,0.1563,0.0035,0.0956,73,18.989,366,7.2664,0.7445,-6.8468,-0.6123,-0.0551,0.2794,88,19.526,376,10.4249,-2.4554,-13.302,-0.4225,-0.9106,0.4722,70,19.325,373,5.7259,-6.7858,-17.372,1.1188,0.9941,-1.8784,40,80442.811,1555581,-1.6065,-3.0847,-11.1956,-0.0814,-2.141,-2.3444,47
19.762,381,3.6401,0.9551,-21.191,0.7884,-0.6668,0.2111,73,19.041,367,7.6775,0.0416,-7.6471,-0.2239,-0.1223,0.1109,88,19.578,377,12.8743,-2.2118,-12.7071,-0.637,-1.338,0.3249,70,19.376,374,8.9013,-6.7764,-20.66,0.4774,0.3056,-1.0285,40,80442.863,1555582,-0.5606,-2.0823,-10.2518,0.6145,-1.648,-2.3871,47
19.813,382,-1.8702,-0.4008,-13.8805,0.637,0.1958,-0.2584,73,19.093,368,8.8397,0.448,-8.0635,0.1405,-0.259,0.1256,88,19.629,378,10.8805,-2.313,-13.1967,-0.5334,-1.4825,-0.0613,70,19.428,375,4.682,-4.3392,-16.8706,0.6534,0.908,-0.0703,40,80442.915,1555583,2.2212,3.8114,-4.9188,1.1007,-0.7026,-1.4045,47
19.865,383,3.6918,3.3252,-16.8155,-0.1812,-0.5264,0.0441,73,19.145,369,9.4339,0.0972,-8.4985,0.1024,-0.193,0.3167,88,19.681,379,9.2574,-0.1641,-11.5885,-0.3497,-1.2162,-0.4992,70,19.48,376,8.5344,-6.0351,-17.4421,0.2434,0.193,-0.2031,40,80442.966,1555584,1.6348,2.9274,-6.1383,0.8772,-0.6185,-0.3493,47
19.917,384,7.4723,1.2607,-16.0679,0.5421,0.2982,-0.0998,73,19.197,370,8.5733,0.1465,-8.5858,0.625,-0.3377,0.2681,88,19.733,380,8.3908,-0.467,-10.3805,-0.7768,-0.2141,-0.8731,70,19.532,377,7.9311,-3.5316,-16.5729,0.0762,-0.0287,-0.0134,40,80443.018,1555585,1.2323,2.2677,-7.1416,0.7116,-0.5559,0.4207,47
19.969,385,6.6693,4.5061,-10.8829,-0.2803,0.7254,-0.3709,73,19.248,371,8.4549,0.2649,-8.5787,0.5231,-0.4499,0.1839,88,19.785,381,8.3282,-1.1345,-10.854,-0.4497,0.5221,-1.0688,70,19.584,378,7.8918,-2.9189,-15.617,0.0623,-0.0994,0.2009,40,80443.07,1555586,0.9513,1.7756,-7.8528,0.5875,-0.5076,0.9828,47
20.021,386,5.6401,1.1068,-10.218,-0.4663,1.2119,-0.6482,73,19.3,372,8.9275,0.0009,-8.7271,-0.0497,-0.4094,0.3129,88,19.836,382,8.518,-2.4681,-13.0682,0.3484,1.0594,-1.0944,70,19.635,379,7.6048,-2.828,-15.1693,0.0089,-0.0637,0.3899,40,80443.122,1555587,0.7361,1.4232,-8.3711,0.494,-0.4706,1.393,47
20.072,387,-0.3512,2.1055,-8.7407,-0.3315,0.5198,-1.0834,73,19.352,373,9.1058,0.4805,-8.0951,-0.0585,-0.772,-0.148,88,19.888,383,8.3204,-5.2469,-17.1907,0.9308,1.4515,-0.7955,70,19.687,380,7.5086,-2.675,-14.6996,0.0104,-0.1578,0.5378,40,80443.173,1555588,0.5856,1.1458,-8.734,0.4224,-0.4408,1.6923,47
20.124,388,0.293,0.0081,-10.9493,-0.9193,0.397,-0.6473,73,19.404,374,9.2368,-0.4906,-9.1909,-0.5689,-0.5641,0.0356,88,19.94,384,10.3763,-7.1761,-10.1016,0.0754,0.7627,-0.2198,70,19.739,381,8.0404,-2.9327,-14.4601,-0.0041,-0.427,0.6043,40,80443.225,1555589,-0.6806,-2.9885,-6.6332,-0.1704,-0.0923,1.5851,47
20.176,389,0.1006,-2.3617,-15.891,-1.2349,-0.3796,-0.4284,73,19.456,375,8.743,-0.8447,-9.522,-0.2477,-0.2089,0.2723,88,19.992,385,9.8249,-5.6094,-10.9339,0.2997,0.7193,0.2955,70,19.791,382,9.1348,-3.4309,-14.5985,0.1978,-0.6678,0.6643,40,80443.277,1555590,-0.645,-3.8238,-7.0249,-0.4098,-0.0176,0.9054,47
20.228,390,-0.4039,-6.9214,-15.9721,-1.5787,-0.8866,-0.5042,73,19.508,376,7.6608,-0.1006,-9.3359,0.2313,-0.1105,0.1218,88,20.044,386,9.4955,-4.6702,-11.456,-0.3311,0.5257,0.594,70,19.843,383,9.0996,-3.5523,-15.4803,0.442,-0.9777,0.5505,40,80443.329,1555591,-0.6116,-3.0528,-7.7593,-0.7838,0.0884,-0.0138,47
20.279,391,-0.1916,-6.0493,-16.7759,-0.4778,-1.3164,-0.4338,73,19.559,377,7.8895,-0.212,-9.229,0.0001,0.2222,0.1542,88,20.095,387,9.1826,-4.1136,-11.6043,-0.5341,0.3027,0.6086,70,19.894,384,9.526,-2.7798,-13.9847,0.8309,-1.3803,0.306,40,80443.381,1555592,-0.4656,-2.0893,-8.2236,-1.0697,0.1675,-0.6861,47
20.331,392,4.9169,-8.4314,-14.221,0.3256,-1.6301,-0.8924,73,19.611,378,8.5326,-0.9104,-10.2049,0.1303,0.5487,0.2773,88,20.147,388,9.3104,-4.3476,-10.4283,-0.7163,0.1183,0.6575,70,19.946,385,9.2623,-2.5402,-12.0697,0.69,-1.2056,0.0656,40,80443.432,1555593,-0.343,-1.3394,-8.5435,-1.2814,0.2203,-1.1768,47
20.383,393,8.6454,-4.9437,-10.4713,0.4649,-0.5073,-0.0137,73,19.663,379,8.6463,-1.2555,-9.9898,0.7668,0.2916,0.0265,88,20.199,389,8.8796,-3.95,-10.5701,-0.4979,-0.1811,0.6273,70,19.998,386,9.3561,-2.0441,-11.0944,0.6582,-0.7343,-0.3885,40,80443.484,1555594,0.3131,-1.3054,-3.672,-0.2614,-0.4769,-0.9813,47
20.435,394,11.3666,-1.4782,-6.5997,0.9935,0.3122,0.3402,73,19.715,380,9.0704,-1.6186,-9.8736,0.3116,-0.0252,-0.0085,88,20.251,390,8.9573,-4.3579,-10.5543,-0.1657,-0.5138,0.4986,70,20.05,387,9.0696,-1.9031,-10.7658,0.8856,-0.1014,-0.9454,40,80443.536,1555595,0.5322,-0.6975,-2.6301,0.4831,-1.0112,-0.8423,47
20.487,395,6.1526,-2.7239,-4.6261,0.0477,0.9103,0.9249,73,19.767,381,8.3602,-2.1718,-10.0541,-0.1594,-0.1266,0.1412,88,20.303,391,9.0715,-3.4193,-11.2082,0.2376,-0.8809,0.231,70,20.102,388,8.8815,-2.1702,-11.0774,1.3106,0.532,-1.3614,40,80443.588,1555596,0.7062,-0.2638,-1.9287,1.0265,-1.4011,-0.7416,47
20.538,396,4.1744,-3.881,-5.8523,-0.3847,1.3457,1.3517,73,19.818,382,7.7918,-2.0941,-10.0398,0.5554,-0.1504,0.2676,88,20.355,392,9.2211,-2.7942,-12.0324,0.3274,-1.0971,0.0836,70,20.153,389,8.739,-3.1574,-12.3178,1.6312,0.6993,-1.665,40,80443.639,1555597,0.8303,0.0385,-1.4347,1.4231,-1.6857,-0.6678,47
20.59,397,2.0153,-4.6565,-8.2035,-0.1299,1.6646,1.6632,73,19.87,383,7.7759,-1.4614,-10.1556,1.0771,-0.1206,0.4333,88,20.406,393,9.6752,-2.6156,-12.2361,0.2158,-1.2439,0.0765,70,20.205,390,6.2769,-4.7286,-15.2341,1.8652,0.5093,-1.8866,40,80443.691,1555598,0.9097,0.2401,-1.0901,1.7125,-1.8934,-0.6145,47
20.642,398,0.441,-4.563,-9.8934,0.0609,1.6283,1.8905,73,19.922,384,8.2369,-0.9004,-10.1384,1.4578,-0.036,0.6794,88,20.458,394,12.3271,-1.6941,-12.1119,0.1202,-1.5813,-0.1152,70,20.257,391,9.6984,-4.2518,-8.5108,1.8016,0.1815,-1.8115,40,80443.743,1555599,0.962,0.3605,-0.8193,1.9237,-2.0449,-0.574,47
20.694,399,0.0438,-3.9447,-11.4751,0.1565,0.5632,1.9702,73,19.974,385,8.1845,-0.5721,-10.1505,1.7357,-0.1537,0.7709,88,20.51,395,11.9972,-2.8256,-12.885,0.6895,-1.8275,-0.6719,70,20.309,392,9.6302,-6.029,-12.8507,0.8832,-0.2171,-0.9393,40,80443.795,1555600,0.9995,0.4672,-0.5915,2.0779,-2.1556,-0.5435,47
20.746,400,0.7867,-2.8867,-12.346,0.053,-0.2583,1.8185,73,20.025,386,7.9792,-0.1943,-9.5297,1.9385,-0.4184,0.8049,88,20.562,396,9.8344,-3.1486,-12.6356,1.1797,-2.0072,-1.163,70,20.361,393,7.3361,-3.2786,-15.3257,1.0439,-0.3111,-0.4193,40,80443.846,1555601,2.4062,5.1347,-2.526,1.9924,-1.8449,-0.677,47
20.797,401,1.263,-2.0005,-13.4064,0.7131,-0.8579,1.2509,73,20.077,387,7.8783,0.1724,-8.0366,1.6248,-0.5363,0.8066,88,20.614,397,8.4848,-2.9564,-11.488,0.1911,-1.1969,-1.5229,70,20.412,394,7.9901,-2.8149,-14.9521,0.9571,-0.3378,-0.2194,40,80443.898,1555602,1.8122,3.661,-4.485,1.7058,-1.5194,-0.7758,47
20.849,402,5.9786,3.7762,-12.8368,1.0991,-1.2954,0.3926,73,20.129,388,8.0702,0.8766,-6.8421,1.5528,-0.1676,0.3659,88,20.665,398,7.8479,-3.5651,-11.3722,0.2778,-0.1952,-1.7288,70,20.464,395,7.8532,-2.2583,-14.7672,0.7974,-0.4364,-0.0114,40,80443.95,1555603,1.3656,2.568,-5.902,1.4989,-1.2819,-0.8458,47
20.901,403,2.5937,-0.3713,-14.2982,0.3418,-1.2555,-0.2691,73,20.181,389,9.3169,2.6509,-5.3409,1.8051,0.3454,-0.4193,88,20.717,399,7.9921,-3.8465,-12.2092,0.8563,0.5359,-1.5735,70,20.516,396,7.9135,-2.2142,-14.6195,0.6267,-0.4749,0.294,40,80444.002,1555604,0.8153,2.439,-9.9367,1.7306,-0.914,-0.2135,47
20.953,404,6.9498,5.1189,-10.4372,0.7761,-1.5857,-0.6496,73,20.233,390,9.0017,4.0726,-5.098,1.5013,0.7241,-0.9924,88,20.769,400,7.7951,-4.0363,-13.1272,1.0174,1.0695,-1.2849,70,20.568,397,7.7914,-2.9083,-14.469,0.2214,-0.4755,0.6526,40,80444.053,1555605,0.5117,1.7684,-9.6168,1.9288,-0.6296,0.252,47
21.005,405,7.1105,2.8793,-8.7001,-0.1109,-0.4749,0.0327,73,20.284,391,7.033,2.6702,-4.7746,0.4157,0.9025,-1.4107,88,20.821,401,6.3481,-3.4573,-14.2834,0.9044,1.2861,-0.949,70,20.619,398,7.4359,-2.6353,-14.0324,0.1192,-0.6274,0.9315,40,80444.105,1555606,0.3202,1.2985,-9.531,2.0715,-0.4488,0.5614,47
21.057,406,5.5159,1.4591,-6.3865,-0.7584,-0.1189,0.1964,73,20.336,392,2.9156,1.3947,-6.4843,0.6638,0.7886,-1.716,88,20.873,402,9.8989,-6.5552,-7.8406,0.8544,1.2791,-0.5696,70,20.671,399,7.7231,-3.4037,-15.055,-0.2353,-0.9917,1.057,40,80444.157,1555607,0.1898,0.9441,-9.4424,2.1759,-0.3213,0.7873,47
21.108,407,4.7982,-0.274,-5.3841,-1.2309,0.3966,0.5629,73,20.388,393,1.2006,1.0983,-5.3683,1.1562,0.6982,-1.9388,88,20.924,403,4.8715,-4.2446,-11.3163,0.8227,1.0305,-0.066,70,20.723,400,6.843,-3.973,-15.726,-0.3539,-1.1744,1.1018,40,80444.209,1555608,0.0907,0.6799,-9.3708,2.2523,-0.2333,0.9522,47
21.16,408,2.9072,-0.1981,-7.06,-1.5757,0.5321,0.6409,73,20.44,394,-0.7652,1.1168,-5.99,1.5156,0.9435,-2.1014,88,20.976,404,7.0239,-3.209,-12.557,0.6768,0.489,0.1397,70,20.775,401,6.528,-4.366,-16.0972,-0.2904,-1.1054,1.0302,40,80444.26,1555609,0.0105,0.4958,-9.3161,2.3084,-0.173,1.0727,47
