right_hand_timestamp,right_hand_index,right_hand_accel_x,right_hand_accel_y,right_hand_accel_z,right_hand_gyro_x,right_hand_gyro_y,right_hand_gyro_z,right_hand_battery_percentage,left_hand_timestamp,left_hand_index,left_hand_accel_x,left_hand_accel_y,left_hand_accel_z,left_hand_gyro_x,left_hand_gyro_y,left_hand_gyro_z,left_hand_battery_percentage,right_leg_timestamp,right_leg_index,right_leg_accel_x,right_leg_accel_y,right_leg_accel_z,right_leg_gyro_x,right_leg_gyro_y,right_leg_gyro_z,right_leg_battery_percentage,left_leg_timestamp,left_leg_index,left_leg_accel_x,left_leg_accel_y,left_leg_accel_z,left_leg_gyro_x,left_leg_gyro_y,left_leg_gyro_z,left_leg_battery_percentage,ball_timestamp,ball_index,ball_accel_x,ball_accel_y,ball_accel_z,ball_gyro_x,ball_gyro_y,ball_gyro_z,ball_battery_percentage
0.643,12,0.8267,-5.3719,-20.205,0.4288,0.3516,1.8913,75,0.026,0,7.5558,5.3484,-11.192,-1.2106,0.0753,0.8306,88,0.523,10,11.6872,-1.6713,-14.0564,-0.7674,-1.0323,0.4776,70,0.354,6,11.2777,3.1036,-13.6496,-0.6536,-1.6436,1.5137,40,80641.955,1559431,-7.7851,8.7551,-15.0622,1.6013,-1.2991,1.423,47
0.695,13,0.5523,-6.4856,-20.7738,0.9873,0.2717,2.057,75,0.078,1,7.7913,4.6346,-11.6436,-0.9558,0.2508,0.7983,88,0.574,11,10.7762,-1.8629,-13.8187,-0.8053,-0.8765,0.3637,70,0.406,7,7.9479,3.1702,-15.9299,-1.1541,-0.9931,1.7851,40,80642.007,1559432,-9.4206,9.149,-15.2473,1.8425,-0.9232,1.7142,47
0.747,14,-0.1211,-7.3385,-21.0344,1.395,0.2403,2.1779,75,0.13,2,8.2789,4.2429,-11.9198,-0.7238,0.6273,0.6552,88,0.626,12,10.3465,-2.6145,-13.3715,-0.6501,-0.7448,0.2102,70,0.458,8,6.4938,3.0476,-14.049,-1.2237,-0.2591,1.9832,40,80642.059,1559433,-10.2108,9.6281,-15.0774,2.0187,-0.4117,1.9268,47
0.798,15,-0.8152,-7.507,-20.7911,1.6925,0.1925,2.2662,75,0.181,3,8.4276,3.8679,-11.4324,-0.5987,0.3886,0.5247,88,0.678,13,9.8197,-2.6085,-13.1037,-0.5509,-0.6019,0.0442,70,0.509,9,7.2224,4.8852,-13.5189,-0.8742,0.4959,2.1278,40,80642.111,1559434,-10.2434,8.8969,-14.5346,2.1472,0.2744,2.082,47
0.85,16,-0.9954,-8.0105,-20.2358,1.9096,0.1682,2.3306,75,0.233,4,8.3354,3.5129,-11.5453,-0.6432,0.3936,0.4152,88,0.73,14,9.636,-2.2174,-12.3558,-0.4937,-0.52,-0.0388,70,0.561,10,8.0796,6.3008,-13.5418,-1.1143,1.0469,2.2333,40,80642.163,1559435,-10.0847,7.5266,-13.9721,2.241,0.8876,2.1952,47
0.902,17,-1.4217,-7.5975,-18.5884,2.0681,0.2476,2.3776,75,0.285,5,7.9191,3.4628,-11.3056,-0.5744,0.3607,0.3461,88,0.782,15,9.4487,-2.3047,-12.0958,-0.4638,-0.5813,-0.0697,70,0.613,11,9.4265,7.1384,-14.3664,-1.4903,1.449,2.3103,40,80642.214,1559436,-9.263,5.0017,-12.5043,2.3094,1.3365,2.2779,47
0.954,18,-2.0184,-6.9109,-17.342,2.1838,0.3058,2.1641,75,0.337,6,7.5012,3.514,-10.7281,-0.7588,0.25,0.363,88,0.833,16,9.205,-2.2352,-12.2872,-0.3953,-0.7457,-0.0882,70,0.665,12,11.0994,7.3428,-16.0281,-1.7648,1.7425,2.3665,40,80642.266,1559437,-7.76,2.9904,-10.6049,2.3594,1.6641,2.3382,47
1.006,19,-2.491,-5.8449,-16.3883,2.2682,0.1073,1.752,75,0.388,7,7.2839,3.4714,-10.349,-1.0627,0.1262,0.3856,88,0.885,17,9.0446,-2.1827,-12.2216,-0.523,-1.0555,0.0232,70,0.716,13,9.0247,5.4311,-19.5447,-1.7094,1.9567,1.7886,40,80642.318,1559438,-6.7851,1.2616,-8.9905,2.3959,1.9032,2.3822,47
1.057,20,-3.3998,-2.5512,-16.8502,2.3298,-0.5648,1.1705,75,0.44,8,7.0312,2.9884,-10.0486,-1.3573,0.063,0.3352,88,0.937,18,9.9859,-2.6678,-12.7449,-0.6225,-1.4437,0.3006,70,0.768,14,5.8745,6.8605,-22.2458,-1.537,1.1499,1.1436,40,80642.369,1559439,-5.2997,0.5042,-7.4039,2.4225,2.0777,2.3492,47
1.109,21,-2.6883,-1.1923,-16.5295,2.2583,-1.0815,0.6381,75,0.492,9,6.6626,2.5942,-9.8003,-1.307,0.0759,0.2655,88,0.989,19,12.5539,-3.2435,-14.176,-0.9472,-1.7271,0.675,70,0.82,15,4.524,0.9482,-21.9803,-1.7573,0.4087,0.4628,40,80642.421,1559440,-4.1767,0.0088,-6.5911,2.4419,2.2049,2.0756,47
1.161,22,-1.3134,0.5975,-15.0545,2.2573,-1.4587,-0.2094,75,0.544,10,6.6829,2.6208,-9.6681,-1.5426,-0.0471,0.2941,88,1.041,20,12.5401,-3.3011,-12.7973,-1.3666,-1.7024,0.8532,70,0.872,16,6.1488,0.2648,-19.6945,-1.5734,-0.3671,-0.013,40,80642.473,1559441,-2.8899,0.3524,-6.0114,2.4561,1.9931,1.8125,47
1.213,23,-1.1263,2.3005,-12.3877,1.964,-1.7339,-0.8279,75,0.596,11,8.2045,1.7724,-10.3963,-1.4843,-0.3392,0.2052,88,1.092,21,9.4544,-2.0107,-11.4421,-1.5308,-0.6064,1.1504,70,0.924,17,7.2484,0.1818,-18.1872,-1.3301,-0.4769,-0.0778,40,80642.525,1559442,-1.7496,0.5894,-6.5415,2.1277,1.4396,1.8951,47
1.265,24,3.7317,-0.3559,-10.8129,1.237,-1.9348,-1.2794,75,0.648,12,9.0163,1.7738,-11.1599,-1.394,-0.2142,0.1592,88,1.144,22,8.4976,-1.0106,-11.091,-0.4502,0.2358,1.2461,70,0.975,18,7.7041,-0.1389,-17.1426,-1.001,-0.4016,-0.1081,40,80642.576,1559443,-0.7907,0.7313,-7.2203,1.4794,0.9324,2.0588,47
1.316,25,7.7807,0.2572,-7.7705,0.2254,-2.0815,-0.6453,75,0.699,13,9.366,1.9661,-10.7541,-1.5458,-0.4206,0.2147,88,1.196,23,8.8519,0.9943,-11.3877,-0.4758,0.8504,1.3513,70,1.027,19,7.6383,0.0244,-15.888,-0.6088,-0.3398,-0.2197,40,80642.628,1559444,-0.4248,0.538,-7.8973,0.9765,0.5619,2.1783,47
1.368,26,10.7358,-2.9939,-5.4927,-0.5128,-0.9262,-0.0785,75,0.751,14,9.0842,2.2011,-11.1156,-1.8082,-0.5778,0.4143,88,1.248,24,9.7208,2.39,-12.0332,-1.0114,1.299,1.3505,70,1.079,20,7.9581,0.0357,-14.8801,-0.295,-0.4718,-0.3155,40,80642.68,1559445,-0.1805,0.3241,-8.4126,0.6098,0.2986,2.2655,47
1.42,27,10.3417,-4.8037,-1.8498,-0.7906,0.0064,0.2078,75,0.803,15,8.3981,2.166,-11.003,-1.9997,-0.5779,0.3929,88,1.3,25,10.709,2.2492,-13.0132,-1.4134,1.6264,1.2337,70,1.131,21,7.9637,0.1534,-14.4855,-0.0891,-0.682,-0.325,40,80642.732,1559446,1.4516,-1.027,-12.988,0.2759,0.1391,0.9774,47
1.472,28,5.0591,-4.2922,-0.2267,-0.3358,0.6871,0.6042,75,0.855,16,7.7402,1.9943,-10.7731,-1.8936,-0.3646,0.1698,88,1.351,26,11.8185,1.311,-14.8337,-1.181,1.8654,0.945,70,1.183,22,8.3032,-0.0181,-14.3889,0.0782,-0.9335,-0.3185,40,80642.783,1559447,1.0632,-0.7438,-12.1523,0.0915,0.0134,0.0373,47
1.524,29,2.0489,-1.8846,0.0885,0.4293,1.1839,0.6709,75,0.907,17,7.4925,2.1141,-11.074,-1.8594,-0.213,0.0345,88,1.403,27,9.1293,-0.6088,-18.3117,-0.947,2.0375,0.6512,70,1.234,23,9.2109,-0.3667,-14.5362,0.0537,-1.348,-0.24,40,80642.835,1559448,0.7938,-0.5326,-11.5514,-0.0405,-0.0762,-0.6488,47
1.575,30,0.769,-2.3128,-0.7735,0.3947,1.5465,0.9792,75,0.958,18,7.9724,1.0703,-11.9402,-1.2516,0.1313,-0.2889,88,1.455,28,11.9287,3.0586,-10.7806,-0.0583,0.8137,0.297,70,1.286,24,11.8398,-0.8883,-14.0818,-0.0057,-1.6506,-0.2043,40,80642.887,1559449,0.6046,-0.3747,-11.097,-0.1337,-0.1389,-1.1496,47
1.627,31,0.9108,0.6722,-6.8502,0.9625,1.0574,0.4354,75,1.01,19,8.5327,1.2785,-11.7419,-0.7904,0.1425,-0.4536,88,1.507,29,12.2698,2.478,-10.7336,-0.0964,0.5702,0.3004,70,1.338,25,13.201,1.9361,-14.1729,0.195,-1.8715,0.0079,40,80642.939,1559450,0.4777,-0.2438,-10.7601,-0.1995,-0.182,-1.5151,47
1.679,32,-1.5943,3.0089,-12.9961,0.2448,1.4268,0.4508,75,1.062,20,9.1019,0.5109,-11.5285,-0.7619,0.0799,-0.3497,88,1.559,30,13.2264,0.7627,-11.4055,-0.1746,-0.1059,0.3287,70,1.39,26,10.9257,1.5054,-13.2041,-0.5347,-1.4896,0.5597,40,80642.99,1559451,-4.8829,4.879,-15.8788,-0.39,-0.054,-1.7818,47
1.731,33,-1.7332,1.408,-14.7157,-0.2828,0.372,0.1311,75,1.114,21,9.5618,0.3817,-11.6621,-0.6321,-0.0106,0.0543,88,1.61,31,12.3817,0.1073,-11.7127,-0.233,-0.4303,0.2016,70,1.441,27,9.7371,0.5325,-11.2968,-0.5929,-0.7129,0.9516,40,80643.042,1559452,-8.7953,5.9171,-14.0242,-0.4769,0.3203,-1.8278,47
1.783,34,-1.0938,5.4679,-13.0836,-0.8393,-0.3978,-0.3609,75,1.166,22,9.3664,-0.0579,-10.6414,-0.7755,-0.5292,0.3976,88,1.662,32,11.5042,-0.6772,-11.7591,-0.2236,-0.6105,0.1037,70,1.493,28,8.7281,0.7816,-11.2728,-0.2529,0.1646,1.2199,40,80643.094,1559453,-11.6508,6.0094,-13.6993,-0.6607,0.6537,-1.341,47
1.834,35,4.259,-1.207,-11.4714,-1.1836,-0.2957,-0.7434,75,1.217,23,9.5223,0.3124,-10.9808,-1.0718,-0.7828,0.8248,88,1.714,33,10.7303,-1.2623,-12.012,-0.2457,-0.6775,0.0389,70,1.545,29,8.5303,0.7469,-11.6871,-0.0382,0.8051,1.2857,40,80643.146,1559454,-8.2571,4.1672,-12.1389,-0.8392,1.1658,-0.303,47
1.886,36,8.1657,-3.7492,-8.5311,-1.4487,0.4666,-0.2045,75,1.269,24,9.5322,0.1266,-11.1632,-1.0025,-0.7964,0.837,88,1.766,34,10.0827,-1.5951,-12.4004,-0.2482,-0.7502,0.0086,70,1.597,30,9.6672,0.2587,-12.7338,0.1766,1.2726,1.1182,40,80643.198,1559455,-5.6614,2.777,-11.1596,-0.9542,1.5395,0.4545,47
1.938,37,7.5256,-4.9876,-7.9095,-1.2121,1.023,0.2323,75,1.321,25,8.9248,-0.0364,-10.9728,-0.3313,-0.3217,0.4008,88,1.818,35,9.8628,-1.8099,-12.7684,-0.283,-0.7995,0.0186,70,1.649,31,11.581,1.1663,-14.7525,0.0264,1.6137,1.0184,40,80643.25,1559456,-4.5537,1.9454,-9.8334,-0.3503,0.7063,-0.0881,47
1.99,38,3.5301,-3.8033,-7.1801,-0.6036,0.8408,0.5804,75,1.373,26,8.2269,0.4267,-10.2612,-0.1771,-0.2018,0.1322,88,1.869,36,9.5337,-2.1782,-12.9429,-0.3116,-0.8691,0.0125,70,1.701,32,12.1163,1.6338,-17.4335,-0.1514,1.8627,0.9627,40,80643.301,1559457,-3.1414,1.3293,-9.6849,0.0939,0.0653,-0.6668,47
2.042,39,0.7114,-2.4497,-4.1,0.0292,0.8593,0.5212,75,1.425,27,7.4944,0.5801,-10.1968,-0.0545,-0.0473,-0.0014,88,1.921,37,9.6729,-2.1917,-13.3942,-0.342,-1.1773,-0.0599,70,1.752,33,7.0092,1.5547,-20.7049,0.3697,1.7069,0.5024,40,80643.353,1559458,-2.1229,0.8817,-9.6189,0.424,-0.3956,-1.1445,47
2.093,40,-0.2098,-0.8894,-3.2365,-0.0411,0.945,0.541,75,1.476,28,7.0846,0.9768,-10.0999,-0.0556,-0.0494,-0.0329,88,1.973,38,10.743,-1.9341,-14.0571,-0.3801,-1.5326,0.0445,70,1.804,34,10.2329,-4.0213,-23.026,-0.3368,1.1878,0.6757,40,80643.405,1559459,-1.3825,0.5599,-9.567,0.6697,-0.7264,-1.5104,47
2.145,41,0.1506,-2.8424,-5.8067,-0.365,1.3653,0.8399,75,1.528,29,7.6441,1.2888,-10.0374,-0.2948,-0.2823,-0.0132,88,2.025,39,13.1064,-1.891,-13.3169,-0.7691,-1.792,0.3301,70,1.856,35,9.0276,0.5843,-24.2009,-0.7909,0.5558,0.292,40,80643.457,1559460,-6.2406,-4.8492,-4.419,0.5091,-0.7631,-1.6258,47
2.197,42,-4.8694,-0.4662,-9.6171,-0.2618,0.4628,0.4159,75,1.58,30,8.6877,0.3986,-10.5293,0.085,0.0034,-0.4442,88,2.077,40,12.6124,-3.273,-13.4633,-1.1122,-1.9813,0.2125,70,1.908,36,6.2134,1.5514,-22.5397,0.0975,-0.0814,-0.0673,40,80643.508,1559461,-7.8332,-4.1603,-4.9603,0.3767,-0.7583,-1.1895,47
2.249,43,-5.1251,-0.2608,-8.8997,-0.0882,-0.3316,-0.2414,75,1.632,31,9.3143,0.4227,-10.7228,0.4808,0.076,-0.5631,88,2.128,41,8.3731,-3.6307,-14.9972,-0.5398,-0.8767,0.0765,70,1.96,37,6.9996,0.3416,-20.0721,-0.4591,-0.332,-0.0082,40,80643.56,1559462,-10.9485,-4.2569,-4.0543,0.5605,-0.8313,-0.6221,47
2.301,44,1.3166,1.8485,-8.8547,-0.6396,-0.9113,-0.7683,75,1.684,32,10.1616,1.0958,-11.3439,-0.1043,-0.2299,-0.1626,88,2.18,42,7.7085,-2.2579,-13.657,-0.4226,-0.0564,0.0148,70,2.011,38,7.2257,-0.3849,-18.2143,-0.2249,-0.4379,-0.0927,40,80643.612,1559463,-10.8264,-1.9573,-5.7037,0.5832,-0.8468,0.1228,47
2.352,45,6.0182,-3.8486,-10.5211,-0.2352,0.0173,-0.291,75,1.735,33,10.5293,-0.6967,-11.8091,-0.0753,-0.1916,-0.2641,88,2.232,43,7.2786,-1.2126,-13.2445,-0.2254,0.6372,0.1372,70,2.063,39,7.6962,0.2961,-16.0149,-0.2292,-0.5535,-0.0825,40,80643.663,1559464,-7.7768,-1.3113,-6.8546,0.6205,-0.818,0.7653,47
2.404,46,8.0682,-2.0594,-8.9664,-0.5816,0.695,0.2901,75,1.787,34,9.4988,-0.0895,-11.8209,0.2134,0.0716,-0.3703,88,2.284,44,8.4626,-0.3033,-13.2107,-0.0984,1.1434,0.1977,70,2.115,40,7.8496,-0.1401,-14.7612,-0.2203,-0.6397,-0.1311,40,80643.715,1559465,-5.3918,-0.8473,-7.7728,0.6445,-0.7956,1.2342,47
2.456,47,7.8103,-3.423,-6.5422,-0.6776,1.1897,0.7768,75,1.839,35,8.5076,0.2623,-11.6812,-0.0125,-0.0315,-0.3003,88,2.336,45,9.215,0.5933,-13.8453,0.1336,1.5129,-0.0332,70,2.167,41,7.9255,-0.0981,-14.4585,-0.0094,-0.8078,-0.2298,40,80643.767,1559466,-4.9917,-1.5875,-6.7275,-0.2075,-1.2438,0.2247,47
2.508,48,5.3959,-3.0324,-5.15,-0.0041,1.5507,0.9672,75,1.891,36,7.7797,0.4803,-11.2967,-0.0168,-0.022,-0.246,88,2.387,46,10.6046,-0.6702,-17.0349,0.079,1.7825,-0.4117,70,2.218,42,8.2452,0.1959,-13.9216,0.0172,-1.0683,-0.2867,40,80643.819,1559467,-4.2238,-1.9874,-6.0748,-0.8293,-1.5708,-0.512,47
2.56,49,1.4724,-1.3848,-4.3899,0.6249,1.8142,1.0037,75,1.943,37,7.1448,0.9655,-11.2813,-0.158,0.0358,-0.2234,88,2.439,47,9.4066,-3.6956,-20.3272,0.3192,1.9575,-0.3811,70,2.27,43,9.0365,0.5087,-13.5059,0.1294,-1.4418,-0.3241,40,80643.87,1559468,-3.626,-2.3005,-5.5906,-1.2831,-1.8096,-1.0498,47
2.611,50,-2.4976,0.7357,-5.7508,0.8596,2.0005,0.9085,75,1.995,38,7.9185,0.9832,-11.3912,-0.1872,-0.0099,-0.2842,88,2.491,48,11.6529,-1.1925,-12.2516,0.2352,0.7552,0.2377,70,2.322,44,11.7125,0.9588,-13.9089,0.4555,-1.7191,-0.5409,40,80643.922,1559469,-3.1629,-2.5543,-5.2617,-1.6144,-1.9838,-1.4422,47
2.663,51,-3.8414,1.7217,-12.1937,0.5008,0.8744,0.3005,75,2.047,39,9.1256,0.2441,-11.7564,0.1029,0.2011,-0.2019,88,2.543,49,13.7705,0.1511,-11.4927,0.0396,0.1502,0.471,70,2.374,45,13.3191,1.948,-12.4962,1.0071,-1.9215,-0.6306,40,80643.974,1559470,-2.8069,-2.7569,-5.0037,-1.8561,-2.1109,-1.7287,47
2.715,52,1.997,0.4908,-16.896,0.0334,0.3064,0.667,75,2.098,40,9.2329,-0.0739,-11.3031,0.4514,0.5784,-0.1713,88,2.594,50,14.5751,0.184,-12.2638,-0.0178,-0.5638,0.6115,70,2.426,46,10.2837,1.8952,-11.732,0.7845,-1.6558,-0.4644,40,80644.026,1559471,2.8946,-0.4695,-3.7515,-1.6766,-2.1323,-1.9276,47
2.767,53,2.1022,1.4343,-16.9091,0.4193,-0.4457,0.3303,75,2.15,41,9.0281,0.5847,-11.3679,0.6622,0.5684,0.2977,88,2.646,51,13.0297,0.0282,-12.2059,-0.2348,-0.7981,0.6287,70,2.477,47,10.1128,0.4498,-9.2309,-0.1037,-0.8282,-0.3888,40,80644.077,1559472,4.513,-3.1746,-1.7888,-0.6548,-1.5656,-0.9852,47
2.819,54,6.5914,2.6608,-14.6264,-0.3713,-0.9946,0.708,75,2.202,42,8.8192,0.5019,-10.3586,0.3435,-0.0881,0.8163,88,2.698,52,11.8975,-0.726,-12.3766,-0.1398,-0.8778,0.5145,70,2.529,48,9.5285,-0.3827,-9.5173,-0.5289,0.0805,-0.2605,40,80644.129,1559473,2.4758,-2.5906,-2.2657,0.1959,-0.454,-0.0433,47
2.87,55,9.8678,-1.4674,-8.6067,0.0861,-0.2957,0.8767,75,2.254,43,9.0261,0.7948,-11.1241,0.2141,-0.1325,0.991,88,2.75,53,10.7251,-0.8884,-12.8085,-0.3087,-0.8203,0.4081,70,2.581,49,9.3424,-1.3819,-10.4079,-0.2643,0.7437,-0.224,40,80644.181,1559474,1.1696,-2.1904,-3.2474,0.8169,0.3573,0.6441,47
2.922,56,12.0581,-1.374,-4.7229,0.1984,0.4341,0.9693,75,2.306,44,8.0325,0.7014,-11.2049,0.5982,0.0167,0.6863,88,2.802,54,10.3317,-1.084,-12.7421,-0.0742,-0.909,0.2809,70,2.633,50,10.5167,-0.9603,-11.6166,0.4818,1.2277,-0.5227,40,80644.233,1559475,6.212,-4.873,-7.9597,1.2701,0.948,1.1458,47
2.974,57,11.1377,-3.8244,-4.8458,0.2241,0.9993,1.2439,75,2.358,45,7.6513,0.8662,-10.574,0.956,-0.1056,0.3572,88,2.854,55,9.9291,-1.3448,-12.6888,-0.08,-1.1317,0.2722,70,2.684,51,12.1551,-2.3346,-15.5225,0.7275,1.581,-0.7515,40,80644.284,1559476,4.0466,-4.0553,-5.8697,0.2491,0.0288,0.1602,47
3.026,58,6.5988,-4.1877,-5.3769,0.7887,1.4117,1.4088,75,2.409,46,7.4093,0.8814,-10.4072,0.8767,-0.2168,0.0409,88,2.905,56,10.8393,-1.4469,-13.2833,-0.2011,-1.4986,0.3995,70,2.736,52,6.9691,0.6366,-19.3102,1.2056,1.8389,-1.112,40,80644.336,1559477,2.2304,-3.5532,-4.9165,-0.4961,-0.6421,-0.5592,47
3.077,59,1.0359,-2.5588,-5.1823,1.25,1.6796,1.4603,75,2.461,47,7.239,1.0939,-10.1359,0.7939,-0.2651,-0.2425,88,2.957,57,13.1768,-1.8307,-14.2406,-0.5086,-1.7671,0.6958,70,2.788,53,10.2037,-1.4351,-21.5654,0.2028,0.8469,-0.5584,40,80644.388,1559478,0.923,-3.2285,-4.2109,-1.0399,-1.1317,-1.0842,47
3.129,60,-2.4122,-0.0136,-2.6104,1.3492,1.8653,1.1109,75,2.513,48,6.9876,1.3164,-10.2035,0.7875,-0.2769,-0.3519,88,3.009,58,11.8152,-2.6155,-12.7788,-0.6573,-1.9631,0.3087,70,2.84,54,7.0744,2.34,-19.4,0.8227,0.1086,-0.5684,40,80644.44,1559479,-0.0098,-3.034,-3.7057,-1.4369,-1.4891,-1.4673,47
3.181,61,-4.3396,0.0369,-4.0282,0.4868,1.8082,0.6302,75,2.565,49,6.9173,1.5014,-9.7372,0.7413,-0.5676,-0.3131,88,3.061,59,9.3488,-4.0051,-11.7412,-0.0074,-1.3927,-0.3974,70,2.892,55,8.8929,3.2544,-17.6873,0.8631,-0.1295,-0.3435,40,80644.492,1559480,-0.6587,-2.9266,-3.3394,-1.7266,-1.7499,-1.747,47
3.233,62,0.9868,-0.6784,-10.9365,0.2508,0.6504,-0.1223,75,2.617,50,9.9684,1.5303,-11.0942,0.4031,-0.5759,-0.4784,88,3.113,60,8.3552,-2.823,-10.3553,0.6297,-0.4408,-0.9641,70,2.943,56,8.075,2.1676,-16.5429,0.2396,-0.2798,0.0257,40,80644.543,1559481,-1.0911,-2.8798,-3.0886,-1.938,-1.9402,-1.9511,47
3.285,63,-1.9697,-1.9324,-12.3379,0.7136,-0.1796,-0.4671,75,2.668,51,10.3116,-0.2501,-11.4431,0.9432,-0.0753,-1.0355,88,3.164,61,8.9653,-2.6387,-10.2796,0.3312,0.3567,-1.3776,70,2.995,57,7.8696,2.3574,-15.2514,0.5192,-0.2574,0.1476,40,80644.595,1559482,-4.6919,1.3996,-7.8362,-2.0923,-1.8769,-1.7922,47
3.336,64,3.6195,-2.0075,-11.3034,1.1952,-0.8004,-0.8836,75,2.72,52,10.0353,0.1058,-11.1438,0.6018,0.0484,-0.9812,88,3.216,62,9.1178,-3.2288,-11.7741,0.49,0.9387,-1.6634,70,3.047,58,7.7793,1.6723,-14.336,0.2261,-0.3138,0.2865,40,80644.647,1559483,-4.997,5.522,-11.757,-1.9618,-0.6812,-0.6323,47
3.388,65,7.699,0.1727,-5.6586,0.9914,-1.1912,-0.6252,75,2.772,53,9.4014,-0.2776,-11.026,0.2007,-0.2136,-0.5565,88,3.268,63,9.3089,-3.5936,-14.6271,1.0342,1.3634,-1.8685,70,3.099,59,8.0827,1.8709,-13.211,0.4306,-0.6281,0.1764,40,80644.698,1559484,-3.281,2.6033,-9.4974,-1.6842,0.1915,0.2142,47
3.44,66,10.6762,-1.4015,-2.5683,0.0627,-0.4397,0.1289,75,2.824,54,8.7673,-0.5775,-11.5795,0.4516,-0.0623,-0.298,88,3.32,64,9.2536,-6.1366,-18.6804,1.4313,1.6734,-1.9875,70,3.151,60,9.0822,1.3887,-13.1314,0.3562,-1.1252,0.0319,40,80644.75,1559485,-2.1348,0.428,-7.944,-1.4049,0.8284,0.832,47
3.492,67,11.2272,-3.1463,-1.9825,0.4963,0.1854,0.7707,75,2.876,55,7.9795,-0.1901,-11.8719,0.9293,0.1991,-0.2173,88,3.372,65,12.0194,-9.7158,-11.0497,0.5499,0.548,-0.8084,70,3.202,61,11.7459,2.3464,-13.3957,0.934,-1.488,-0.6445,40,80644.802,1559486,-0.9892,-1.1241,-13.8234,-0.4366,-0.0585,1.0871,47
3.544,68,9.7976,-3.3281,-2.8191,1.0366,0.5392,1.2391,75,2.927,56,6.8044,0.0421,-11.463,1.35,0.5617,-0.3441,88,3.423,66,14.038,-1.746,-10.4119,0.4145,0.2888,-0.5077,70,3.254,62,9.1431,1.8228,-9.8052,1.3563,-0.8255,-1.1418,40,80644.854,1559487,-0.7448,-0.5008,-11.4085,0.3486,-0.7058,1.2563,47
3.595,69,6.7214,-2.6199,-3.2438,1.431,0.9276,1.581,75,2.979,57,6.1752,0.2862,-11.8009,1.657,0.9587,-0.5551,88,3.475,67,15.5113,-0.8866,-10.7561,0.7068,-0.3547,-0.2899,70,3.306,63,8.527,0.7301,-7.9578,1.6643,0.0824,-1.5047,40,80644.906,1559488,-0.5473,-0.0286,-9.5715,0.9161,-1.1782,1.3831,47
3.647,70,0.9375,-1.8487,-6.5662,1.6465,0.6566,1.8305,75,3.031,58,8.4473,1.5398,-12.3249,1.8811,0.9952,-0.7523,88,3.527,68,13.9674,-0.4114,-11.0234,0.3466,-0.5198,-0.0729,70,3.357,64,8.9871,-1.9906,-9.7401,1.8894,0.7451,-1.7696,40,80644.957,1559489,-0.3897,0.3181,-8.2363,1.3207,-1.523,1.479,47
3.699,71,-2.8488,0.2204,-10.1711,1.8761,-0.054,2.0126,75,3.083,59,8.9111,2.4067,-11.5705,2.0119,0.7686,-0.3388,88,3.579,69,14.0276,0.5248,-10.1186,0.6237,-1.0527,-0.2403,70,3.409,65,8.9797,1.5306,-15.0899,2.0536,1.2288,-1.963,40,80645.009,1559490,-0.2606,0.5703,-7.2611,1.6004,-1.7746,1.5521,47
3.751,72,-2.1642,-5.0368,-10.619,1.5297,-0.2448,2.0865,75,3.135,60,9.9129,2.2194,-10.2671,1.4009,0.2394,0.1113,88,3.63,70,15.5037,0.646,-11.0707,0.7349,-1.4417,-0.2985,70,3.461,66,11.6711,6.4092,-11.3155,1.6706,1.0749,-0.9457,40,80645.061,1559491,-4.5303,0.0409,-11.3208,1.6216,-1.9583,1.1557,47
3.803,73,-4.9448,-3.7157,-10.6976,1.0999,-0.848,1.1215,75,3.186,61,8.5638,1.5302,-10.7802,1.6942,0.5445,-0.0466,88,3.682,71,16.2817,-0.5162,-10.3145,0.7672,-1.7256,-0.8499,70,3.513,67,8.103,1.3799,-12.1683,1.2316,0.58,-0.8599,40,80645.113,1559492,-8.5079,-0.1721,-15.5093,1.4888,-1.457,1.3634,47
3.855,74,1.4484,-4.8413,-15.2761,1.4771,-1.2882,0.1434,75,3.238,62,7.935,2.0697,-10.3335,1.8323,0.3389,0.2619,88,3.734,72,12.8717,-1.0621,-9.586,1.2365,-1.4437,-1.2943,70,3.565,68,9.5839,1.6816,-12.681,1.1943,0.162,-0.6115,40,80645.164,1559493,-8.9711,-1.0353,-17.6894,1.2712,-0.4997,1.6708,47
3.906,75,6.1014,-7.4565,-14.9914,0.4013,-0.2671,0.7813,75,3.29,63,8.3138,3.4073,-10.2463,1.89,-0.1469,0.7961,88,3.786,73,10.3637,-1.0238,-8.4767,1.1266,-0.3978,-1.6186,70,3.616,69,9.1077,2.1258,-12.8336,0.7412,0.1009,-0.1076,40,80645.216,1559494,-6.3834,-0.9797,-15.0494,0.8796,0.324,1.8951,47
3.958,76,9.5102,-5.4187,-12.0357,0.3043,0.4875,1.2469,75,3.342,64,9.4,3.3418,-10.9848,1.7023,-0.2013,0.9279,88,3.838,74,9.0452,-1.7928,-8.8786,0.6297,0.388,-1.8554,70,3.668,70,8.9931,0.6532,-13.4442,0.5284,-0.0033,0.0429,40,80645.268,1559495,-4.3759,-0.9813,-12.8615,0.608,0.9251,2.0588,47
4.01,77,6.0732,-5.0913,-8.1765,0.0215,1.0382,1.2206,75,3.394,65,9.1672,3.6272,-11.2673,1.6976,-0.2333,0.5429,88,3.889,75,8.8312,-3.0247,-10.6089,1.1119,0.9616,-2.028,70,3.72,71,8.7019,2.2319,-12.6301,0.5539,-0.1123,0.0659,40,80645.32,1559496,-3.9054,-1.0134,-12.298,0.3586,0.5313,1.4519,47
4.062,78,2.1524,-3.6619,-5.5085,0.6199,1.44,1.1053,75,3.445,66,8.8493,3.6603,-10.5731,1.361,-0.2414,0.0915,88,3.941,76,10.1557,-4.8777,-14.358,1.4881,1.3801,-2.0795,70,3.772,72,9.2712,1.6874,-12.9298,0.3623,-0.5407,0.129,40,80645.371,1559497,-2.843,-1.0201,-10.163,0.1467,-0.2753,1.0212,47
4.113,79,-1.8125,-2.5927,-2.9697,0.9991,1.7183,0.8093,75,3.497,67,8.2058,2.4758,-10.6068,0.9775,-0.1169,-0.4746,88,3.993,77,5.392,-7.3949,-18.484,1.7626,1.6856,-1.7582,70,3.823,73,9.2724,1.6051,-14.0505,0.4775,-0.8654,0.1078,40,80645.423,1559498,-2.056,-1.0137,-8.6025,-0.323,-0.864,0.665,47
4.165,80,-3.6278,-2.6011,-4.7822,0.4282,1.918,0.6368,75,3.549,68,7.1811,1.5858,-10.8448,0.415,-0.0213,-0.6456,88,4.045,78,7.5286,-9.5587,-19.2748,1.5298,1.5016,-0.8353,70,3.875,74,11.1292,2.3817,-14.4442,0.9595,-1.2928,-0.076,40,80645.475,1559499,-1.4756,-1.02,-7.4851,-0.699,-1.2937,0.1,47
4.217,81,-1.4623,-7.0961,-11.4868,0.8007,0.7345,0.3879,75,3.601,69,7.9035,0.6469,-10.4941,0.0383,-0.3396,-0.5072,88,4.097,79,7.4634,-7.1731,-17.7784,0.7874,1.24,-0.2084,70,3.927,75,11.003,2.314,-13.6842,1.375,-1.3096,-0.3002,40,80645.527,1559500,-1.0468,-1.0171,-6.6827,-0.9563,-1.6073,-0.4112,47
4.269,82,-5.0832,-0.1791,-16.38,-0.093,1.184,0.8771,75,3.653,70,9.188,0.0976,-11.7387,0.6533,0.1437,-0.4539,88,4.149,80,8.6807,-5.3578,-16.7176,0.3806,0.9129,0.2007,70,3.979,76,8.7793,1.6074,-13.2427,1.5009,-1.0683,-0.5406,40,80645.578,1559501,-5.9956,-2.8173,-3.707,-1.2464,-1.8361,-0.7804,47
4.321,83,0.7982,3.9547,-15.803,-0.2344,0.1948,-0.0047,75,3.705,71,9.5076,0.2289,-11.3169,1.1486,0.1583,-0.3886,88,4.2,81,8.3182,-4.2604,-15.6966,-0.0198,0.7078,0.4049,70,4.031,77,9.2499,1.6411,-10.9092,0.6088,-0.6372,-0.8729,40,80645.63,1559502,-9.6074,-4.189,-4.0388,-1.5876,-1.3711,-0.7952,47
4.372,84,5.6397,1.5881,-16.7065,-0.6064,-0.5272,-0.6785,75,3.756,72,9.5947,-0.0954,-9.8811,0.7084,-0.1017,0.0271,88,4.252,82,8.4373,-3.7139,-14.5894,-0.0564,0.4566,0.3936,70,4.082,78,8.5621,0.1107,-10.7101,-0.2327,0.2199,-0.7705,40,80645.682,1559503,-7.0991,-3.3417,-4.2804,-1.8366,-0.3121,0.0953,47
4.424,85,9.1734,-0.8328,-13.6576,-0.7739,-0.5721,0.1814,75,3.808,73,8.9395,-0.69,-10.3532,0.3948,-0.0365,0.0492,88,4.304,83,8.85,-2.7359,-13.8831,-0.2083,0.0792,0.3651,70,4.134,79,8.8007,-0.9027,-10.8923,0.1684,0.8455,-0.6584,40,80645.733,1559504,-4.6467,-2.7434,-5.1856,-2.018,0.4609,0.7453,47
4.476,86,11.7524,-1.9095,-9.4366,0.1096,0.2649,0.618,75,3.86,74,8.0189,0.0167,-10.3847,0.7638,0.1606,-0.1133,88,4.356,84,8.3862,-1.5744,-14.267,0.1157,-0.3665,0.2073,70,4.186,80,8.9219,-1.407,-14.2236,0.7975,1.302,-1.152,40,80645.785,1559505,-8.3233,-1.6717,-1.2213,-0.9106,1.0251,0.1669,47
4.528,87,5.7293,-4.8128,-8.2963,0.1848,0.8757,1.1063,75,3.912,75,7.5254,0.4706,-10.5861,1.2292,0.359,-0.3874,88,4.408,85,9.178,-1.023,-14.2581,0.3097,-0.8255,0.1056,70,4.238,81,8.7445,-3.4152,-17.1566,1.2568,0.5591,-1.512,40,80645.837,1559506,-5.8271,-0.7523,-2.1542,-0.1601,1.4368,-0.4939,47
4.58,88,0.4196,-6.4625,-8.7228,0.8069,0.7058,1.4841,75,3.964,76,7.6869,1.5795,-10.4691,1.5689,0.4101,-0.7471,88,4.459,86,11.3799,-1.1824,-13.8185,0.2951,-1.2759,0.0446,70,4.29,82,9.4007,-2.6374,-18.0797,0.9503,0.2143,-0.9247,40,80645.889,1559507,-4.0663,-0.1076,-2.6765,0.3649,1.7373,-0.9741,47
4.631,89,0.8931,-4.8304,-14.3628,1.2633,-0.1542,1.7598,75,4.015,77,7.7501,0.9121,-9.4449,1.3246,0.1897,-0.914,88,4.511,87,13.5713,-1.8468,-12.884,0.0086,-1.6046,-0.2258,70,4.341,83,3.6969,-2.7954,-18.7316,0.7725,-0.1222,-0.8116,40,80645.941,1559508,-2.7954,0.3673,-3.0702,0.7293,1.9566,-1.32,47
4.683,90,0.2605,-6.0075,-7.8914,1.5964,-0.7819,1.961,75,4.067,78,7.8129,0.9474,-10.2596,1.2503,0.1379,-0.8241,88,4.563,88,13.2097,-4.318,-12.562,0.6828,-1.8153,-0.8388,70,4.393,84,4.7987,0.1804,-17.4096,0.8094,-0.3043,-0.6015,40,80645.992,1559509,-1.8849,0.6728,-3.3837,0.9729,2.1167,-1.5684,47
4.735,91,-4.732,-0.4034,-10.562,1.8395,0.0686,1.5641,75,4.119,79,8.9701,1.5018,-10.2364,1.1065,-0.0757,-0.488,88,4.615,89,10.8821,-2.9265,-8.7749,1.1749,-1.7216,-1.2862,70,4.445,85,5.2137,1.2563,-16.6956,0.5379,-0.4325,-0.211,40,80646.044,1559510,3.9827,-4.7668,-6.1619,0.1848,1.8611,-0.8874,47
4.787,92,0.9977,-2.1133,-12.3658,0.7602,-0.6193,0.8026,75,4.171,80,8.9368,1.1448,-11.1564,1.4475,0.2811,-0.4409,88,4.666,90,10.3476,-2.474,-8.2338,0.9407,-0.5781,-1.6127,70,4.497,86,6.0377,1.1634,-16.355,0.6779,-0.4054,0.052,40,80646.096,1559511,5.3524,-6.0484,-11.408,-0.4648,1.4684,-0.1098,47
4.839,93,5.1343,-4.0078,-14.9873,1.148,-1.1213,0.0072,75,4.223,81,9.1571,2.1677,-11.361,1.7282,0.3487,-0.4811,88,4.718,91,9.8669,-3.5634,-9.9241,0.8622,0.2564,-1.8511,70,4.549,87,6.2622,1.6561,-15.7764,0.4302,-0.3347,0.4393,40,80646.148,1559512,5.2144,-5.5958,-11.7427,-1.0171,0.4086,0.1596,47
4.89,94,8.8045,2.3811,-13.3526,1.2527,-1.262,-0.4947,75,4.274,82,8.263,2.6325,-11.2505,1.6586,0.3547,-0.1373,88,4.77,92,10.5003,-4.3414,-14.618,1.3058,0.8655,-1.8821,70,4.6,88,6.8749,0.419,-14.7901,0.2323,-0.4627,0.547,40,80646.199,1559513,3.8998,-3.8223,-9.5122,-1.4202,-0.3649,0.3431,47
4.942,95,11.483,-1.5624,-11.83,0.2369,-0.2386,0.3156,75,4.326,83,8.2032,3.3998,-11.19,1.6788,0.2084,0.1985,88,4.822,93,9.2222,-7.7446,-18.6737,1.6296,1.31,-1.8111,70,4.652,89,8.816,0.6146,-14.6588,0.5313,-1.0045,0.2956,40,80646.251,1559514,3.0263,-2.5417,-7.6983,-1.7144,-0.9294,0.4758,47
4.994,96,10.0277,-3.404,-7.605,0.4239,0.5083,0.4874,75,4.378,84,7.1542,3.7046,-11.0499,1.8325,0.4742,0.1794,88,4.874,94,11.9965,-3.1097,-20.1572,1.8258,0.6369,-1.3923,70,4.704,90,11.5516,1.4122,-14.3243,1.0624,-1.3999,-0.212,40,80646.303,1559515,2.4543,-2.082,-4.0342,-0.7426,-0.0237,0.4155,47
5.046,97,2.8342,-4.2364,-5.2298,0.6757,1.0534,1.0324,75,4.43,85,6.2422,3.507,-10.6367,1.9533,0.7044,-0.1454,88,4.925,95,7.7984,-3.3003,-17.5804,1.8119,1.1406,-1.0037,70,4.756,91,10.0096,2.2732,-14.4404,1.4501,-1.3183,-0.6509,40,80646.355,1559516,1.7726,-1.5747,-4.0462,0.1079,0.6713,0.5008,47
5.098,98,-0.6371,-5.8088,-6.8097,1.1675,1.2712,1.4124,75,4.482,86,6.3357,2.746,-11.1465,2.0863,0.8462,-0.61,88,4.977,96,9.0223,-2.5006,-16.9302,1.3291,1.1064,-0.5934,70,4.808,92,9.1629,2.1856,-12.5727,0.4615,-0.9688,-0.9891,40,80646.406,1559517,1.2695,-1.2231,-4.0841,0.7476,1.1786,0.5629,47
5.149,99,-2.5353,-6.7241,-10.1271,1.5265,0.4964,1.7075,75,4.534,87,9.3573,2.4019,-11.1253,2.1944,0.6342,-0.8363,88,5.029,97,8.7637,-2.049,-15.5985,0.8275,0.8113,-0.2789,70,4.859,93,8.3591,-1.7585,-12.0498,-0.3403,-0.0229,-1.2256,40,80646.458,1559518,0.9028,-0.9643,-4.1365,1.2145,1.5489,0.6067,47
5.201,100,-1.7348,-3.5774,-11.3913,1.7885,-0.3071,1.3193,75,4.585,88,11.0556,2.1254,-10.0004,1.5833,0.2661,-0.4557,88,5.081,98,8.9981,-1.1705,-14.8333,0.4378,0.4998,-0.0756,70,4.911,94,8.8385,-4.4759,-12.1804,0.4192,0.6683,-1.5659,40,80646.51,1559519,0.6195,-0.7814,-4.1498,1.5591,1.8191,0.6378,47
5.253,101,-5.3059,-1.7852,-10.4244,1.6466,-0.5606,1.1,75,4.637,89,11.2728,1.6209,-8.7836,0.7634,-0.0366,0.095,88,5.133,99,9.0601,-1.4776,-14.0977,0.3266,0.1198,0.0532,70,4.963,95,9.2171,-4.4994,-11.9719,0.9806,1.1727,-1.4295,40,80646.562,1559520,5.8105,-3.3522,-6.2821,1.2556,2.0163,0.1411,47
5.305,102,1.1846,3.9804,-15.6047,0.5244,-1.0785,1.0619,75,4.689,90,9.81,1.0726,-8.9833,0.2939,-0.2551,0.4902,88,5.184,100,8.9136,-1.2923,-14.0155,0.1961,-0.2208,0.0938,70,5.015,96,10.2507,-2.6863,-12.1935,0.694,1.5408,-0.9599,40,80646.614,1559521,9.5991,-4.3462,-11.5665,0.4265,1.027,0.045,47
5.357,103,5.9219,2.3822,-15.7572,1.0571,-0.1582,0.7167,75,4.741,91,8.2273,1.3289,-9.2648,0.8849,-0.1825,0.5932,88,5.236,101,8.8769,-1.2663,-14.0652,0.0262,-0.4852,0.0996,70,5.066,97,11.733,-1.8186,-14.8796,0.5767,1.8095,-0.688,40,80646.665,1559522,6.9229,-3.1143,-10.8911,-0.217,0.1178,0.0134,47
5.408,104,8.4016,-1.6977,-12.7622,1.2332,0.567,1.1489,75,4.793,92,7.3484,2.2307,-8.7761,1.3176,0.0114,0.5582,88,5.288,102,9.6508,-0.9612,-14.2477,-0.0343,-0.8783,0.0495,70,5.118,98,7.8786,-0.9225,-17.2451,1.0955,1.5546,-0.8312,40,80646.717,1559523,-0.1789,3.0582,-5.3854,-0.1341,0.3349,-0.4588,47
5.46,105,4.9955,-3.1867,-8.687,1.1518,1.0962,1.4949,75,4.844,93,6.8415,3.1983,-8.5245,1.4025,0.0975,0.3626,88,5.34,103,11.1626,-0.274,-14.1014,-0.0301,-1.3144,0.0713,70,5.17,99,6.1976,4.6189,-14.6094,0.7822,0.5178,-0.7772,40,80646.769,1559524,-0.3109,2.6421,-5.6304,-0.0158,0.9331,-1.0109,47
5.512,106,-0.0985,-2.9925,-5.2386,1.515,1.4318,1.4511,75,4.896,94,6.5657,4.1445,-8.5371,1.3673,0.1413,-0.0717,88,5.392,104,13.4127,-1.0115,-14.1925,-0.2027,-1.6327,0.0674,70,5.222,100,9.6406,-1.9257,-10.9011,-0.1062,-0.2888,-0.641,40,80646.821,1559525,-0.1656,2.3442,-6.2322,0.0481,1.3697,-1.4139,47
5.564,107,-2.9595,-3.4849,-6.0669,1.1763,0.9701,1.7358,75,4.948,95,6.9586,4.3858,-8.7164,1.2241,0.2512,-0.6773,88,5.443,105,12.4966,-2.1532,-13.555,-0.016,-1.8559,-0.276,70,5.274,101,12.1534,0.1441,-9.4094,-0.2934,-0.8776,-0.892,40,80646.872,1559526,-0.0537,2.1168,-6.6633,0.077,1.6883,-1.708,47
5.616,108,-4.745,-0.4734,-9.0447,1.5329,0.1477,1.22,75,5.0,96,8.6773,4.2854,-8.4677,0.8903,-0.2663,-1.0267,88,5.495,106,8.9547,-2.461,-13.9842,0.6462,-1.65,-0.7943,70,5.325,102,11.9639,0.6061,-10.2156,-0.1771,-0.9991,-0.4896,40,80646.924,1559527,0.0329,1.9565,-6.9804,0.076,1.9209,-1.9226,47
5.667,109,-3.1447,-5.1531,-11.3668,1.456,0.1501,0.553,75,5.052,97,10.3193,3.1334,-9.6314,0.2977,-0.1934,-1.2459,88,5.547,107,6.0599,-2.0907,-13.1155,0.5201,-0.547,-1.2369,70,5.377,103,11.2213,1.1718,-10.7132,-0.2127,-0.9624,-0.2075,40,80646.976,1559528,5.3824,-3.8299,-13.1202,0.3096,1.9358,-2.0766,47
5.719,110,-3.3054,-1.662,-11.2298,0.4659,-0.5598,-0.2715,75,5.103,98,11.6715,0.758,-10.5252,-0.3733,-0.1438,-1.3596,88,5.599,108,5.8537,-2.627,-13.3155,-0.0215,0.2792,-1.3485,70,5.429,104,9.775,1.6846,-11.2904,-0.1701,-0.7741,0.0217,40,80647.027,1559529,5.3258,-4.351,-7.0123,-0.4347,2.1013,-1.6736,47
5.771,111,2.6448,-1.9347,-15.9536,-0.3374,-1.0779,-0.4029,75,5.155,99,10.9931,0.492,-10.7894,-0.5147,-0.2368,-0.8291,88,5.651,109,7.5596,-2.9915,-14.113,0.2212,0.8821,-1.096,70,5.481,105,9.8508,1.0036,-11.6843,-0.5793,-0.7047,0.1643,40,80647.079,1559530,5.4813,-3.5077,-6.4126,-0.9952,1.7229,-1.0664,47
5.823,112,6.9874,-3.0605,-14.8705,-0.066,-0.5712,0.1267,75,5.207,100,10.5214,0.6719,-10.4952,-0.3972,-0.5399,-0.2191,88,5.702,110,8.3656,-2.713,-14.545,0.8366,1.3221,-0.7979,70,5.532,106,9.4535,1.1869,-11.9703,-0.1867,-0.6573,0.0395,40,80647.131,1559531,4.2171,-2.4309,-6.3669,-1.4042,1.4064,-0.5859,47
5.874,113,9.6066,-2.143,-12.0087,-0.0048,0.2655,0.616,75,5.259,101,8.8475,1.8022,-10.5042,-0.0481,-0.3261,0.0869,88,5.754,111,10.0545,-2.6369,-15.3081,0.7592,1.6433,-0.3875,70,5.584,107,9.0419,1.4451,-11.586,-0.0356,-0.754,0.0213,40,80647.183,1559532,3.3481,-1.506,-6.5562,-1.7027,1.1728,-0.2357,47
5.926,114,6.0831,-3.0487,-7.7595,-0.4493,0.8762,0.7886,75,5.311,102,7.6768,2.9979,-9.824,0.1667,-0.1265,0.1953,88,5.806,112,9.3857,-0.9101,-18.4743,-0.0257,1.8777,-0.0899,70,5.636,108,9.2964,1.4061,-11.8957,0.0345,-1.0784,-0.0109,40,80647.234,1559533,2.9445,-1.5378,-6.4321,-1.9206,1.5447,0.5037,47
5.978,115,1.56,-3.5395,-4.0431,-0.0919,1.3219,0.6955,75,5.362,103,7.2599,3.5703,-9.5872,0.0678,0.0706,0.1881,88,5.858,113,5.8629,-2.9411,-21.0465,-0.5617,1.4043,0.2554,70,5.688,109,9.9266,1.096,-12.323,0.1764,-1.4538,-0.1608,40,80647.286,1559534,2.6704,-1.5932,-6.1533,-2.0796,1.816,1.0433,47
6.03,116,-0.8753,-4.6176,-5.0345,0.1838,1.6472,1.0362,75,5.414,104,7.6216,3.8211,-9.8116,-0.1874,0.2039,0.1484,88,5.91,114,6.707,0.6524,-19.8942,0.2666,0.7224,0.0296,70,5.74,110,12.3621,0.0753,-12.9822,0.487,-1.7278,-0.3444,40,80647.338,1559535,2.4415,-1.6475,-5.9392,-2.1957,2.0141,1.4371,47
6.082,117,-4.1995,-0.4082,-11.6709,0.8085,0.606,0.395,75,5.466,105,9.361,2.747,-10.0301,-0.0766,0.3661,0.034,88,5.961,115,3.7897,0.6783,-18.0357,0.2285,0.7051,0.4413,70,5.791,111,12.4595,2.3433,-13.0995,1.0301,-1.8876,-0.2559,40,80647.39,1559536,2.2479,-1.6982,-5.7611,-2.2804,2.1586,1.7246,47
6.133,118,-0.9951,4.6228,-16.5145,0.4551,-0.2271,-0.0811,75,5.518,106,8.8049,1.5032,-11.1138,0.2108,0.8795,0.0033,88,6.013,116,5.3953,-0.5879,-16.7735,-0.0275,0.2239,0.4777,70,5.843,112,9.832,2.1831,-12.0288,0.0909,-1.5331,0.1708,40,80647.442,1559537,-3.591,-5.8888,-12.2303,-2.3419,2.2641,1.9289,47
6.185,119,4.331,2.6418,-17.6397,0.0358,-0.8351,-0.7343,75,5.57,107,8.3127,1.1481,-10.8635,0.2819,0.4051,0.4913,88,6.065,117,6.0827,-1.6839,-15.3785,-0.1852,-0.0806,0.4733,70,5.895,113,9.5625,1.4866,-9.6155,-0.2716,-0.6508,0.5664,40,80647.493,1559538,-6.988,-4.8925,-14.388,-1.5561,1.1818,0.7318,47
6.237,120,7.0434,-3.0828,-19.5113,-0.6513,-0.3778,0.1407,75,5.621,108,8.9147,1.1398,-10.2169,0.2175,-0.1552,0.8817,88,6.117,118,7.0336,-1.4135,-14.3512,-0.3544,-0.3068,0.3913,70,5.946,114,8.5301,1.1676,-9.4401,-0.5351,0.21,0.997,40,80647.545,1559539,-4.7028,-3.6408,-12.9568,-0.62,0.3973,-0.142,47
6.289,121,10.1977,-2.5842,-16.284,-0.5784,0.2955,0.7794,75,5.673,109,8.7416,1.4475,-10.855,-0.4033,-0.4604,1.1122,88,6.169,119,7.4563,-1.715,-13.7219,-0.2655,-0.5719,0.3193,70,5.999,115,8.751,1.3475,-10.045,-0.5273,0.8382,1.2614,40,80647.597,1559540,-2.9156,-2.7186,-11.8701,0.0778,-0.1521,-0.7797,47
6.341,122,12.0082,-1.8969,-12.4967,-0.3428,0.8981,0.9039,75,5.725,110,8.4625,1.2994,-10.4541,-0.1573,-0.4142,0.8441,88,6.22,120,7.7459,-1.781,-13.8414,-0.121,-0.8485,0.2518,70,6.05,116,11.1039,1.7942,-12.1742,-0.2727,1.2967,1.2082,40,80647.649,1559541,-3.3652,0.4726,-6.1908,-0.6211,0.5469,0.1066,47
6.392,123,7.3141,-2.4791,-9.1612,-0.8678,1.3379,0.84,75,5.777,111,7.7805,1.5304,-9.4785,-0.0366,-0.2381,0.4991,88,6.272,121,8.1623,-1.8158,-13.8836,-0.1616,-1.0025,0.2583,70,6.102,117,13.2214,-0.3636,-16.8665,0.0593,1.6314,0.783,40,80647.701,1559542,-1.5893,0.1039,-5.6663,-1.1312,1.0878,0.7535,47
6.444,124,0.5515,-2.3324,-7.4595,-0.6138,1.6589,0.3909,75,5.829,112,7.2924,1.2891,-9.4547,-0.2233,-0.0714,0.2606,88,6.324,122,9.3147,-1.6491,-14.5059,-0.1908,-1.3191,0.2083,70,6.154,118,8.1095,2.9697,-19.5847,0.718,1.7176,0.572,40,80647.752,1559543,-0.3444,-0.1938,-5.2277,-1.5035,1.4826,1.2256,47
6.496,125,-3.6524,-3.7557,-9.1117,-1.0013,1.3822,0.5249,75,5.88,113,7.462,1.172,-9.8991,0.0387,0.0516,0.1301,88,6.376,123,11.1147,-1.2161,-14.5504,-0.1707,-1.6362,0.2323,70,6.205,119,10.9482,-1.587,-16.4845,-0.1531,1.2046,0.7693,40,80647.804,1559544,0.5488,-0.4229,-4.9364,-1.7752,1.7707,1.5702,47
6.548,126,-3.3765,-4.3959,-14.6467,-0.0581,0.3395,-0.0655,75,5.932,114,7.9847,1.2236,-9.2392,0.0212,0.0198,0.0731,88,6.428,124,13.3777,-1.4926,-13.4945,-0.3691,-1.8675,0.3159,70,6.257,120,12.1813,2.1039,-17.0387,0.563,0.7694,0.0829,40,80647.856,1559545,1.1922,-0.5843,-4.7359,-1.9735,1.981,1.8217,47
6.6,127,-3.7064,-3.5918,-15.6002,0.2359,0.7536,-0.2428,75,5.984,115,8.0008,0.8504,-9.8706,-0.0167,0.2274,-0.1564,88,6.479,125,13.0966,-2.035,-12.1763,-0.1381,-2.0364,-0.0175,70,6.309,121,10.282,1.7309,-17.6017,0.3718,0.4662,0.1249,40,80647.908,1559546,6.2285,4.9047,-9.521,-2.1182,1.4269,0.8267,47
6.651,128,2.3522,-0.8694,-16.2195,-0.5052,-0.1193,-0.2169,75,6.036,116,8.2408,1.4422,-9.5915,0.0723,0.2042,-0.2192,88,6.531,126,8.4709,-4.0134,-15.3294,0.3247,-0.8892,-0.4781,70,6.361,122,10.1184,0.7131,-16.3831,0.2132,-0.0107,0.0199,40,80647.959,1559547,4.6341,6.357,-12.2741,-1.4599,0.3784,-0.0727,47
6.703,129,6.0822,-4.3878,-13.695,-0.2026,0.2134,-0.361,75,6.088,117,8.2419,1.9578,-9.6994,-0.1164,0.084,-0.1042,88,6.583,127,6.9503,-1.9708,-13.7487,0.1939,0.0294,-0.9725,70,6.413,123,9.3255,2.0059,-14.9571,0.2905,-0.3191,-0.0153,40,80648.011,1559548,3.739,3.9512,-10.9125,-0.6312,-0.3869,-0.7291,47
6.755,130,8.1975,-4.9216,-9.9722,-0.6795,0.5144,0.2121,75,6.139,118,9.1012,2.2706,-10.456,-0.2926,0.1675,-0.3121,88,6.635,128,7.4042,-2.3633,-13.196,0.0196,0.6998,-1.1005,70,6.464,124,9.3003,2.0863,-14.2034,0.2692,-0.6279,0.0447,40,80648.063,1559549,3.2351,2.1112,-9.8912,0.0145,-0.9455,-1.2082,47
6.807,131,8.0047,-6.0702,-5.0713,-0.3345,1.0356,0.4668,75,6.191,119,8.7796,2.4525,-10.6115,-0.4895,0.2465,-0.5713,88,6.687,129,8.438,-2.6135,-13.1364,0.2328,1.1891,-0.9706,70,6.516,125,8.9907,1.0138,-14.2452,0.1535,-0.8245,-0.0252,40,80648.115,1559550,2.512,1.831,-10.6602,-0.6673,-1.0544,-0.2061,47
6.859,132,5.4026,-6.724,-1.726,0.2887,1.4382,0.7707,75,6.243,120,8.1706,2.4345,-10.4143,-0.7953,0.2157,-0.7751,88,6.738,130,9.2143,-3.1532,-15.3273,-0.5053,1.5462,-0.206,70,6.568,126,9.133,1.7839,-13.718,0.2602,-1.0843,-0.1397,40,80648.166,1559551,2.4999,1.6013,-9.8355,-1.1649,-1.1042,0.5253,47
6.91,133,4.6579,-4.5903,-2.6146,0.885,1.7321,0.736,75,6.295,121,8.1183,2.5474,-10.5436,-1.137,0.1229,-0.8375,88,6.79,131,8.4811,-4.9651,-19.1914,-1.044,1.8068,0.5274,70,6.62,127,10.7911,0.9751,-13.4174,0.1679,-1.4582,-0.2056,40,80648.218,1559552,2.4841,1.4295,-9.253,-1.528,-1.1123,1.0591,47
6.962,134,3.2959,-1.3419,-9.0949,0.507,1.897,0.5265,75,6.347,122,8.4076,2.0308,-10.9452,-0.9529,0.2318,-0.9687,88,6.842,132,11.4556,1.7282,-12.8528,-1.4372,1.0196,0.9236,70,6.671,128,12.9931,-0.7149,-13.8409,0.5343,-1.731,-0.3065,40,80648.27,1559553,2.476,1.2984,-8.8298,-1.7931,-1.0842,1.4486,47
7.014,135,0.6769,-0.4326,-14.6344,0.0964,0.8925,-0.2908,75,6.398,123,8.3138,1.2264,-10.2426,-0.8718,0.3085,-0.8411,88,6.894,133,10.8467,2.0605,-12.4924,-0.3724,0.7261,0.1397,70,6.723,129,10.1331,2.6422,-13.6026,0.4563,-1.6961,0.4008,40,80648.322,1559554,2.471,1.2029,-8.5142,-1.9866,-1.0352,1.733,47
7.066,136,-1.1414,0.0411,-15.8492,-0.607,-0.0179,-0.4854,75,6.45,124,8.4583,0.7117,-10.6571,-1.0132,0.3169,-0.316,88,6.946,134,12.7512,-1.4416,-12.916,-0.947,-0.1376,0.2473,70,6.775,130,7.5288,1.6579,-13.4579,-0.3441,-1.2608,0.9729,40,80648.374,1559555,3.7567,5.8991,-3.6506,-2.106,-0.1887,1.3506,47
7.118,137,4.2243,0.3754,-12.7009,-0.5723,-0.6824,-1.0287,75,6.502,125,8.6454,1.2294,-11.142,-0.4681,0.2384,0.2902,88,6.997,135,12.1851,-1.3541,-13.2073,-0.6549,-0.3846,0.0427,70,6.827,131,6.5458,1.88,-11.972,0.4161,-0.3268,1.3904,40,80648.425,1559556,2.4902,7.0704,-0.101,-2.1991,0.551,0.6359,47
7.169,138,8.1402,5.6602,-17.2662,-1.0951,-1.1674,-0.451,75,6.554,126,9.2013,1.5498,-9.486,-0.4095,-0.3493,0.8534,88,7.049,136,12.1305,-1.2964,-13.1569,-0.6655,-0.4923,-0.0485,70,6.879,132,7.375,3.562,-11.3467,0.7755,0.4464,1.6951,40,80648.477,1559557,1.9202,6.3962,0.4489,-2.0141,1.0908,-0.212,47
7.221,139,9.2213,1.2972,-15.9582,-0.1249,-0.5064,-0.5476,75,6.606,127,9.3047,2.5918,-10.2741,-0.9789,-0.4595,1.2882,88,7.101,137,10.7754,-2.4724,-13.0949,-0.717,-0.5676,-0.1973,70,6.93,133,8.3024,3.8474,-12.3185,-0.0388,1.0108,1.9138,40,80648.529,1559558,1.5012,6.0617,0.5761,-1.9349,1.4848,-0.8308,47
7.273,140,11.4314,-0.8735,-10.3043,0.5136,0.3089,0.2096,75,6.658,128,8.7151,2.6525,-10.4708,-0.8751,-0.3386,1.1639,88,7.153,138,9.8176,-1.6342,-13.2499,-0.2435,-0.7556,-0.4133,70,6.982,134,8.8937,4.0161,-14.9481,-0.7054,1.4227,2.0772,40,80648.58,1559559,6.454,-0.8337,-7.6051,-1.7528,0.5312,-1.2819,47
7.325,141,10.7872,-1.987,-7.3537,1.0492,0.9078,0.8122,75,6.71,129,8.2543,2.7431,-9.8386,-0.4707,-0.1211,0.712,88,7.205,139,9.1061,-2.0933,-12.9631,-0.3596,-0.9078,-0.2578,70,7.034,135,9.0562,6.9961,-17.8418,-1.1919,1.7233,2.1963,40,80648.632,1559560,4.7114,-0.748,-7.9928,-1.3959,-0.2581,-1.6117,47
7.376,142,6.8533,-2.7139,-6.7637,1.4402,1.345,1.0316,75,6.761,130,7.273,2.405,-9.7286,-0.406,0.2004,0.0849,88,7.256,140,10.1488,-2.0824,-13.2395,-0.518,-1.3344,-0.0165,70,7.086,136,6.4975,4.8854,-21.0029,-1.3236,1.2165,1.3759,40,80648.684,1559561,3.471,-0.716,-8.3992,-1.1237,-0.8354,-1.8523,47
7.428,143,3.4338,-0.0553,-11.5372,1.7255,1.1955,1.1129,75,6.813,131,6.5891,2.1204,-9.3709,-0.3462,0.3373,-0.4756,88,7.308,141,12.6728,-3.3414,-14.3608,-0.9201,-1.6473,0.5089,70,7.138,137,8.4511,4.0183,-22.2554,-0.3449,0.396,0.3328,40,80648.736,1559562,2.5745,-0.6815,-8.6789,-0.9107,-1.2568,-2.028,47
7.48,144,2.2854,-2.1056,-16.4168,1.8555,0.421,0.1421,75,6.865,132,6.7596,2.2273,-8.9378,-0.7064,0.0824,-0.6133,88,7.36,142,13.2201,-3.5806,-11.9121,-1.3468,-1.7159,0.8874,70,7.189,138,9.5168,1.8142,-21.1208,-0.8259,-0.3778,-0.2449,40,80648.787,1559563,1.913,-0.663,-8.8691,-0.7439,-1.563,-2.1562,47
7.532,145,-3.0997,3.8532,-16.6095,0.6768,0.701,-0.4586,75,6.917,133,7.4485,2.6425,-8.8623,-1.1737,-0.0725,-0.6116,88,7.412,143,9.5029,-2.9015,-10.705,-1.4759,-0.9391,1.1064,70,7.241,139,8.8538,2.9063,-19.2023,-0.111,-0.4187,-0.6124,40,80648.839,1559564,0.3826,-5.6751,-3.9097,-1.0473,-1.7114,-2.2497,47
7.584,146,1.6928,2.1924,-13.3971,0.1595,-0.1577,-1.0099,75,6.969,134,9.0353,3.4428,-9.6912,-1.5367,-0.1473,-0.4297,88,7.464,144,8.9915,-1.9789,-10.6198,-0.4245,-0.007,1.4588,70,7.293,140,8.6478,1.4037,-17.8921,-0.3447,-0.5307,-0.4497,40,80648.891,1559565,-1.4058,-5.495,-1.4784,-1.4173,-1.2369,-2.1856,47
7.635,147,6.2928,2.5733,-12.7484,-0.5609,-0.7845,-0.7653,75,7.02,135,9.643,3.8806,-10.607,-1.8016,-0.1454,-0.3285,88,7.515,145,10.1797,0.4959,-11.0967,-0.0232,0.6732,1.7376,70,7.345,141,8.4673,0.5086,-16.8639,-0.0806,-0.5557,-0.4274,40,80648.943,1559566,-2.8503,-9.2684,-1.9929,-1.7123,-0.6359,-1.8611,47
7.687,148,9.65,-3.3196,-13.349,-1.0868,-0.9295,-0.4519,75,7.072,136,8.8225,4.2768,-11.094,-1.9788,-0.0837,-0.2722,88,7.567,146,10.348,2.5704,-11.804,-0.6921,1.1697,1.9444,70,7.396,142,8.5984,0.1022,-16.2323,-0.0705,-0.6586,-0.3983,40,80648.994,1559567,-2.1911,-6.4879,-2.8349,-1.9276,-0.096,-1.6576,47
7.739,149,12.1003,-2.5606,-8.6681,-0.9511,-0.0284,-0.239,75,7.124,137,8.0216,4.6721,-11.0952,-1.9821,-0.1639,-0.317,88,7.619,147,10.636,3.447,-13.5964,-1.1804,1.5321,2.0739,70,7.448,143,9.5197,-0.2886,-15.6064,0.0134,-1.0935,-0.4041,40,80649.046,1559568,-1.7155,-4.411,-3.4754,-2.0847,0.2833,-1.5125,47
7.791,150,11.6765,-2.8602,-5.8793,-1.3315,0.6617,0.0813,75,7.176,138,7.506,4.7776,-10.9986,-2.1114,-0.2342,-0.3051,88,7.671,148,10.7273,1.4344,-17.9281,-1.5367,1.7965,1.9986,70,7.5,144,10.511,-1.9158,-15.582,-0.2164,-1.4649,-0.2598,40,80649.098,1559569,-3.1428,-3.0214,-10.1643,-0.8494,-0.174,-0.9841,47
7.843,151,6.6259,-2.3742,-4.1862,-0.8032,1.1653,0.0048,75,7.228,139,7.2496,4.4486,-11.2069,-2.1975,-0.226,-0.3322,88,7.723,149,13.095,-2.9841,-10.5007,-1.2746,0.6779,1.369,70,7.552,145,12.7887,-1.2448,-15.0661,-0.0554,-1.7359,-0.0792,40,80649.15,1559570,-2.3246,-2.0847,-9.5218,0.0539,-0.5273,-0.5782,47
7.894,152,3.588,-2.3344,-3.9449,-0.141,1.5329,-0.0806,75,7.279,140,7.3109,3.7115,-11.345,-2.0954,-0.0887,-0.4431,88,7.774,150,10.713,0.2109,-9.6857,-0.538,0.6358,1.1813,70,7.604,146,10.9674,3.2823,-13.2811,-0.677,-1.8479,0.6226,40,80649.202,1559571,-1.7015,-1.4194,-9.1543,0.7132,-0.7914,-0.2819,47
7.946,153,0.3834,-1.0499,-6.0413,0.248,1.6244,0.0491,75,7.331,141,7.8374,2.9815,-11.5137,-1.6127,0.2233,-0.6531,88,7.826,151,11.4511,-2.4816,-11.3144,-0.8445,0.4927,0.9395,70,7.656,147,6.9031,2.3333,-14.7516,-1.1712,-1.456,1.1347,40,80649.253,1559572,-1.2357,-0.9363,-8.8801,1.1944,-0.9895,-0.066,47
7.998,154,-1.5063,3.2409,-11.9567,0.7865,0.6513,-0.6393,75,7.383,142,7.7363,2.1501,-11.8618,-0.906,0.4696,-0.7451,88,7.878,152,10.4612,-3.0629,-11.8863,-0.7648,0.3375,0.6414,70,7.707,148,6.532,2.892,-13.6782,-0.1827,-0.5868,1.5085,40,80649.305,1559573,-0.8916,-0.5952,-8.6864,1.5456,-1.1394,0.0907,47
8.05,155,3.0416,2.8814,-16.7231,0.1905,0.0861,-0.7556,75,7.435,143,8.2208,2.2627,-10.1431,-0.7747,-0.0849,-0.3428,88,7.93,153,10.1683,-3.3296,-11.8964,-0.8433,0.1818,0.4129,70,7.759,149,7.6738,5.8713,-13.1863,-0.0304,0.2567,1.7813,40,80649.357,1559574,4.7076,-5.6923,-3.7763,1.1259,-1.3226,-0.0578,47
8.102,156,7.2772,2.7199,-13.4925,-0.3779,-0.6065,-0.9853,75,7.487,144,8.6207,2.8523,-10.1508,-1.238,-0.5174,0.26,88,7.982,154,9.3849,-6.5243,-13.4537,-0.9025,0.191,0.0313,70,7.811,150,8.3921,7.2412,-13.6504,-0.6993,0.8723,1.9804,40,80649.409,1559575,3.9131,-8.7315,-3.9497,0.2072,-1.6283,-0.5078,47
8.153,157,10.3683,0.9632,-15.4179,-0.9532,-1.112,-0.5741,75,7.538,145,8.246,2.9195,-9.8632,-1.5035,-0.7099,0.6314,88,8.033,155,9.413,-5.012,-13.554,-0.7356,-0.1235,-0.0847,70,7.863,151,9.1725,5.4337,-14.1501,-1.1874,1.3216,2.1258,40,80649.46,1559576,2.238,-9.0058,-3.9748,-0.5266,-1.8515,-0.7676,47
8.205,158,12.6246,-1.8994,-11.6067,-0.4972,-0.7508,-0.4596,75,7.59,146,7.8841,3.0923,-9.7473,-1.5977,-0.7309,0.8062,88,8.085,156,9.0081,-4.6864,-13.4483,-0.4905,-0.3389,-0.1541,70,7.915,152,9.8015,7.2768,-15.6367,-1.3442,1.6495,2.0987,40,80649.512,1559577,1.3526,-6.4454,-3.7401,-1.0622,-2.0144,-0.9333,47
8.257,159,12.5495,-3.3564,-5.8799,-0.4683,0.0771,-0.057,75,7.642,147,7.624,3.2237,-10.2263,-1.5287,-0.5621,0.7282,88,8.137,157,9.0698,-4.179,-13.2681,-0.5579,-0.6645,0.034,70,7.966,153,9.6929,6.6507,-18.7549,-1.3771,1.8889,1.7497,40,80649.564,1559578,0.5968,-4.3889,-0.1663,-1.1143,-2.1325,-0.8342,47
8.309,160,12.013,-5.5694,-3.1223,-0.3003,0.7387,0.6006,75,7.694,148,7.3202,3.1108,-10.3271,-1.1011,-0.3276,0.3478,88,8.189,158,10.1246,-4.315,-13.493,-0.6795,-1.1584,0.3226,70,8.018,154,4.578,5.3035,-21.6693,-1.0778,1.4054,1.2819,40,80649.615,1559579,0.162,-3.1708,-2.2752,-0.1394,-1.2649,-0.0179,47
8.361,161,9.3926,-4.6944,-3.5974,0.4358,1.2216,1.115,75,7.746,149,6.7559,3.1512,-10.0641,-0.9045,-0.1497,-0.0748,88,8.241,159,12.6551,-4.4465,-14.0499,-1.1391,-1.5188,0.8611,70,8.07,155,4.8894,3.54,-16.8593,-1.288,0.4341,0.4972,40,80649.667,1559580,-0.1842,-2.278,-3.8305,0.5721,-0.6526,0.6626,47
8.412,162,6.7469,-1.623,-7.3135,0.9924,1.574,0.8729,75,7.797,150,6.8308,3.1706,-9.7772,-1.0585,-0.3699,-0.2382,88,8.292,160,10.6584,-5.1425,-15.1979,-1.5066,-1.5339,1.091,70,8.122,156,8.6858,0.6878,-15.4119,-1.0247,-0.35,-0.0718,40,80649.719,1559581,-0.4221,-1.6118,-4.9892,1.0914,-0.2221,1.1593,47
8.464,163,2.9455,3.0615,-11.8246,0.5857,1.4867,-0.038,75,7.849,151,7.9405,3.2036,-9.9866,-1.2999,-0.4741,-0.3827,88,8.344,161,6.4509,-4.126,-16.8445,-1.2563,-0.4424,1.0559,70,8.174,157,9.143,1.1422,-14.4287,-0.7556,-0.4468,-0.19,40,80649.771,1559582,-0.5895,-1.1228,-5.8314,1.4705,0.0728,1.5218,47
8.516,164,0.9208,3.8508,-15.4585,-0.096,0.4157,-0.7029,75,7.901,152,9.2512,3.1585,-11.0212,-1.3417,-0.3652,-0.6067,88,8.396,162,5.7168,-2.3839,-15.3781,-0.6989,0.3539,0.9803,70,8.225,158,9.0258,0.5328,-14.1982,-0.7357,-0.462,-0.1249,40,80649.822,1559583,-0.7012,-0.7626,-6.4678,1.7471,0.2713,1.7864,47
8.568,165,-1.1323,4.0517,-12.6604,0.4436,0.3383,-1.1878,75,7.953,153,10.1121,3.1868,-11.5867,-1.1797,-0.2239,-0.7473,88,8.448,163,5.5335,-0.9141,-14.4497,-0.6131,0.9367,1.0854,70,8.277,159,8.6986,0.1567,-13.7947,-0.4475,-0.4395,-0.2399,40,80649.874,1559584,-3.3383,-3.1667,-2.1571,1.2416,0.4199,1.2837,47
8.62,166,0.7308,6.7216,-11.5718,0.0222,-0.4224,-1.5421,75,8.005,154,9.1559,3.0336,-11.3056,-1.2398,-0.2765,-0.7949,88,8.5,164,6.8487,0.4641,-13.9305,-1.0949,1.362,1.3081,70,8.329,160,8.6539,0.3739,-13.0859,-0.0457,-0.4905,-0.4166,40,80649.926,1559585,-4.4705,-7.569,-3.5101,0.4388,0.6006,0.2609,47
8.671,167,5.5906,-0.292,-12.8917,-0.6612,-0.9776,-0.6885,75,8.057,155,7.7813,3.3089,-10.8181,-1.5134,-0.4696,-0.5696,88,8.552,165,8.1635,0.4699,-14.1078,-1.4744,1.6724,1.5725,70,8.381,161,8.534,0.1527,-13.0759,-0.0223,-0.7321,-0.3906,40,80649.978,1559586,-3.6721,-5.0753,-4.9051,-0.3576,0.8261,-0.4857,47
8.723,168,9.1376,-0.6813,-8.2251,-0.3435,-0.4229,-0.6166,75,8.108,156,6.9612,3.7469,-10.533,-1.7845,-0.6721,-0.3056,88,8.603,166,10.5006,0.5232,-15.4162,-1.7513,1.8989,1.8011,70,8.433,162,8.6586,0.0138,-13.4962,-0.072,-0.9768,-0.3994,40,80650.029,1559587,-3.1049,-3.2623,-5.8748,-0.9389,0.9709,-1.0305,47
8.775,169,8.8967,-3.5244,-3.695,-0.928,0.3738,0.2266,75,8.16,157,6.9036,4.195,-10.7882,-1.9439,-0.6395,-0.1319,88,8.655,167,10.4096,1.9245,-18.9111,-1.9534,2.0643,1.7616,70,8.485,163,8.9927,-0.5403,-13.8961,-0.1351,-1.3328,-0.4163,40,80650.081,1559588,-7.4976,2.684,-6.7153,-1.2899,0.5557,-0.2505,47
8.826,170,7.6837,-3.7972,-2.2142,-0.0553,0.9552,0.842,75,8.212,158,7.7525,4.347,-10.8355,-1.7212,-0.3388,-0.2465,88,8.707,168,7.4424,2.7634,-20.7656,-0.9431,0.9172,1.1684,70,8.536,164,11.6806,-1.5297,-14.9686,-0.3426,-1.6395,-0.4637,40,80650.133,1559589,-5.304,2.1623,-7.2455,-1.6193,-0.0022,0.4754,47
8.878,171,5.1488,0.7473,-5.8923,0.634,1.3796,0.7254,75,8.264,159,7.8749,3.9492,-11.0378,-1.4339,0.1198,-0.486,88,8.759,169,10.6976,4.1683,-22.7499,-0.4901,-0.004,0.4901,70,8.588,165,13.1565,0.0448,-12.9443,0.4209,-1.8509,-0.2561,40,80650.185,1559590,-3.6638,1.7576,-7.6625,-1.8597,-0.4016,1.0035,47
8.93,172,4.4313,4.9219,-11.2158,-0.0504,1.3613,-0.1457,75,8.316,160,7.4849,3.2164,-10.7329,-1.0924,0.2564,-0.5263,88,8.811,170,10.0082,0.2146,-22.3878,-0.7995,-0.6763,0.5393,70,8.64,166,12.4799,3.025,-12.0185,0.1467,-2.0177,0.3002,40,80650.236,1559591,-2.4539,1.4535,-7.9508,-2.0352,-0.6846,1.3891,47
8.982,173,-0.2671,4.9432,-14.1796,-0.7142,0.3886,-0.7814,75,8.367,161,9.2242,3.1011,-10.9558,-1.3017,-0.0412,-0.0697,88,8.862,171,8.8112,-0.4991,-20.7039,-0.6364,-0.6625,0.1807,70,8.692,167,7.4628,3.2061,-13.9303,-0.57,-1.1953,0.8994,40,80650.288,1559592,-1.575,1.2203,-8.1423,-2.1632,-0.883,1.6715,47
9.034,174,1.7622,-1.4794,-8.4162,-0.3198,0.4058,-1.232,75,8.419,162,8.593,2.6598,-9.9624,-1.2024,-0.4124,0.288,88,8.914,172,8.9025,-1.5508,-18.5286,-0.3714,-0.6459,-0.0239,70,8.744,168,7.3488,2.2872,-13.1213,0.2587,-0.3522,1.3133,40,80650.34,1559593,-6.381,4.0009,-3.4424,-2.1786,-0.21,0.823,47
9.085,175,6.3434,1.3655,-13.2699,0.3374,-0.3731,-1.5743,75,8.471,163,9.1105,2.7597,-9.9771,-1.5509,-0.5764,0.7623,88,8.966,173,8.5465,-2.317,-17.0876,-0.7559,-0.5151,-0.0987,70,8.795,169,7.3145,4.6282,-12.5168,0.6159,0.4279,1.5898,40,80650.392,1559594,-6.6567,1.118,-8.0235,-1.4408,0.3601,-0.0754,47
9.137,176,9.687,-2.2122,-15.3198,-0.4312,-0.6341,-0.594,75,8.523,164,8.7315,2.7182,-10.319,-1.267,-0.5053,0.8884,88,9.018,174,8.499,-2.5619,-15.8083,-0.5321,-0.5332,-0.2867,70,8.847,170,7.818,5.6421,-12.9404,-0.2275,0.9973,1.771,40,80650.444,1559595,-4.4785,1.7914,-7.9218,-0.5896,0.9515,-0.7311,47
9.189,177,10.2323,-5.0599,-12.9888,-0.3423,-0.1359,-0.3026,75,8.575,165,7.9225,2.9457,-9.9707,-0.6948,-0.2306,0.66,88,9.07,175,8.434,-2.389,-15.227,-0.185,-0.6488,-0.4506,70,8.899,171,9.8046,4.623,-15.0034,-0.8431,1.4128,1.8611,40,80650.496,1559596,-2.9069,2.3444,-7.8505,-0.006,1.3831,-1.2097,47
9.241,178,9.1423,-8.1906,-7.294,-0.1688,0.3308,0.4124,75,8.626,166,7.2894,2.9934,-9.9435,-0.5096,-0.1256,0.4304,88,9.121,176,8.5375,-2.3369,-14.1336,-0.0342,-0.8782,-0.4226,70,8.951,172,9.9622,5.8775,-18.9301,-0.3152,1.7161,1.3279,40,80650.547,1559597,-2.9761,1.7174,-10.8137,0.2167,0.4165,-0.2072,47
9.292,179,8.1843,-10.5946,-5.0695,0.5006,0.9239,0.9776,75,8.678,167,7.161,2.7068,-9.8783,-0.333,-0.0143,0.0482,88,9.173,177,9.195,-2.2765,-13.7651,-0.169,-1.3143,-0.3141,70,9.003,173,5.161,2.9687,-21.7972,-0.805,1.3165,0.7918,40,80650.599,1559598,-2.199,2.0254,-10.1607,0.3405,-0.3591,0.5245,47
9.344,180,5.8862,-8.6963,-4.2232,1.0397,1.3567,1.3902,75,8.73,168,7.0943,2.4334,-9.73,-0.1561,0.0229,-0.3533,88,9.225,178,11.9767,-1.9349,-14.2222,-0.4564,-1.6326,0.0465,70,9.054,174,6.6047,-2.664,-23.8897,-0.075,0.4284,-0.0935,40,80650.651,1559599,-1.5868,2.2311,-9.7603,0.3955,-0.9252,1.0585,47
9.396,181,2.1195,-2.1181,-9.7465,1.4332,1.6083,1.4428,75,8.782,169,6.7672,2.1327,-9.3398,-0.0868,-0.0249,-0.5708,88,9.277,179,13.2872,-3.7928,-13.5932,-0.936,-1.865,0.0969,70,9.106,175,4.8317,-3.4796,-22.8703,-0.7318,0.2359,0.0667,40,80650.703,1559600,-1.0928,2.3864,-9.4799,0.4,-1.3383,1.4482,47
9.448,182,3.4343,3.844,-15.1099,0.4563,0.5044,0.3779,75,8.834,170,7.3378,2.0306,-9.135,-0.185,-0.3077,-0.5831,88,9.328,180,10.5341,-2.6981,-13.1215,-0.6271,-1.1834,0.1313,70,9.158,176,6.2665,-2.2489,-20.3995,-0.5728,0.0316,-0.0094,40,80650.754,1559601,-0.7059,2.4794,-9.2926,0.3743,-1.6399,1.7327,47
9.5,183,1.5718,8.1955,-18.7923,0.0105,0.3683,-0.245,75,8.885,171,8.9503,2.4366,-9.1929,-0.7091,-0.6287,-0.317,88,9.38,181,8.4745,-1.76,-11.9908,-0.6496,-0.1853,0.3152,70,9.21,177,6.4582,-1.3053,-17.5809,-0.5383,-0.0288,0.0427,40,80650.806,1559602,-5.7467,7.1406,-12.4005,0.7493,-1.7069,1.9403,47
9.552,184,6.2044,5.1782,-19.5997,-0.6697,-0.4006,-0.8441,75,8.937,172,10.0255,2.8705,-10.2016,-1.1056,-0.7984,-0.1193,88,9.432,182,8.2707,0.0079,-11.743,-0.6309,0.5431,0.5399,70,9.262,178,7.1096,-1.5788,-16.1691,-0.3707,-0.1403,0.0082,40,80650.858,1559603,-9.4258,4.2455,-14.5704,1.1879,-1.4389,1.0364,47
9.603,185,9.5856,-0.1741,-16.4727,-1.1662,-0.8011,-0.9257,75,8.989,173,9.6393,3.0202,-10.2816,-1.428,-0.9828,0.1371,88,9.484,183,8.9728,1.3503,-12.3042,-0.7722,1.0747,0.6863,70,9.313,179,7.2678,-1.2714,-15.0005,-0.2535,-0.2655,-0.0802,40,80650.91,1559604,-6.3398,3.3396,-12.9222,1.5409,-0.7744,0.0804,47
9.655,186,12.0532,-1.8775,-12.4048,-1.438,0.0902,-0.6113,75,9.041,174,8.5055,2.8658,-10.0464,-1.7222,-1.0993,0.3139,88,9.536,184,10.509,2.1496,-13.5214,-1.1674,1.4627,0.7724,70,9.365,180,7.827,-1.4865,-14.4229,-0.1839,-0.5207,-0.1414,40,80650.961,1559605,-4.0968,2.7232,-11.6878,1.7985,-0.2681,-0.6174,47
9.707,187,13.3008,-3.1475,-8.6703,-1.6846,0.7482,-0.1831,75,9.093,175,7.588,3.1038,-10.1824,-1.937,-1.0021,0.3689,88,9.587,185,12.0835,2.3568,-16.5857,-1.1778,1.7459,0.3425,70,9.417,181,7.6275,-1.0831,-13.9553,-0.303,-0.8288,-0.1744,40,80651.013,1559606,2.3683,7.3186,-5.9669,1.1567,0.1143,-0.9966,47
9.759,188,10.8569,-3.7133,-7.3003,-1.6391,1.2285,0.082,75,9.144,176,7.181,2.8439,-10.5348,-1.8048,-0.5727,0.206,88,9.639,186,8.2524,-1.8191,-20.1099,-1.0092,1.7205,0.2022,70,9.469,182,8.2366,-0.466,-13.6601,-0.313,-1.2597,-0.1005,40,80651.065,1559607,1.6358,5.7349,-4.705,0.1664,0.7721,-0.913,47
9.811,189,5.2493,-2.4117,-8.214,-0.9235,1.579,0.3721,75,9.196,177,7.7827,2.9603,-10.9558,-1.6432,-0.2394,-0.0878,88,9.691,187,11.2887,2.1323,-19.51,-0.2378,0.625,0.2719,70,9.52,183,11.1287,-0.4754,-13.8756,-0.1431,-1.5861,-0.0767,40,80651.117,1559608,1.2615,4.4887,-3.8527,-0.5565,1.2522,-0.8513,47
9.862,190,-1.2638,2.031,-10.6016,-0.0609,1.8349,-0.0622,75,9.248,178,9.4595,2.169,-11.5559,-1.452,0.162,-0.2205,88,9.743,188,7.4765,-1.2064,-19.6941,0.053,0.4983,0.5239,70,9.572,184,12.9194,0.9141,-14.0223,0.382,-1.8244,0.0067,40,80651.168,1559609,0.9809,3.547,-3.2356,-1.084,1.6026,-0.8053,47
9.914,191,-4.4348,4.7531,-13.6896,-0.7218,0.9371,-0.7205,75,9.3,179,9.301,1.7404,-11.8732,-1.0026,0.4629,-0.1329,88,9.795,189,7.7715,-1.8066,-17.5427,-0.3006,0.1845,0.5277,70,9.624,185,9.8596,0.5086,-13.8677,-0.0661,-1.5241,0.1777,40,80651.22,1559610,0.7722,2.8363,-2.7989,-1.469,1.8583,-0.7699,47
9.966,192,-7.5807,-1.7242,-17.9878,-0.1654,0.0146,-1.201,75,9.352,180,9.0906,1.1962,-11.0954,-0.824,-0.0662,0.3291,88,9.846,190,7.7631,-2.2101,-16.0569,-0.3624,-0.1019,0.3522,70,9.676,186,8.5222,-0.13,-11.9687,-0.7253,-0.7822,0.2207,40,80651.272,1559611,0.6132,2.3211,-2.4833,-1.75,2.0449,-0.7425,47
10.018,193,-5.8846,-1.5164,-20.4322,0.5536,-0.5035,-1.5516,75,9.404,181,9.3685,1.1934,-11.8428,-0.7644,-0.2002,0.5902,88,9.898,191,8.1949,-2.1285,-14.9726,-0.3027,-0.3227,0.1504,70,9.728,187,8.2249,-0.5917,-11.1903,-0.7873,0.1141,0.2573,40,80651.324,1559612,-2.2572,7.0251,-7.3449,-1.2532,2.1386,-1.1156,47
10.07,194,0.7623,4.2832,-17.3599,-0.1081,-0.6244,-1.0437,75,9.456,182,8.9118,0.7266,-11.8825,-0.4391,-0.213,0.5195,88,9.95,192,8.5663,-2.0765,-14.2129,-0.0239,-0.5298,-0.0315,70,9.779,188,8.4485,-1.2473,-11.3288,-0.2401,0.7682,0.3377,40,80651.375,1559613,-1.3531,5.3339,-7.9123,-0.5218,1.9133,-1.4903,47
10.121,195,4.4057,-2.0038,-15.864,-0.4025,0.0475,-0.0851,75,9.507,183,8.6786,0.265,-11.5057,-0.0561,-0.2196,0.3916,88,10.002,193,8.7111,-2.0949,-13.6753,-0.117,-0.6663,0.0192,70,9.831,189,9.4995,-0.3808,-11.893,0.2032,1.2456,0.3048,40,80651.427,1559614,-0.6906,4.0813,-8.271,0.0033,1.763,-1.7637,47
10.173,196,5.4863,-4.1497,-13.1461,0.3806,0.4384,0.3554,75,9.559,184,8.2313,0.1479,-11.1376,0.2991,-0.1734,0.2889,88,10.054,194,8.8049,-1.9043,-13.6001,-0.053,-0.8262,-0.0006,70,9.883,190,12.0505,0.4556,-15.4073,-0.4605,1.5941,0.3593,40,80651.479,1559615,-5.5213,7.0518,-4.5326,-0.4048,0.6236,-1.9532,47
10.225,197,1.0852,-4.6351,-7.2661,0.741,0.9488,0.9345,75,9.611,185,7.9474,0.6117,-10.3907,0.4362,-0.1851,0.2676,88,10.106,195,8.8174,-2.2096,-13.2658,-0.0282,-1.168,0.0061,70,9.935,191,7.5639,1.908,-19.2261,0.2514,1.8484,0.2271,40,80651.531,1559616,-4.1329,4.4647,-4.7041,-0.7826,-0.2079,-2.1016,47
10.277,198,-0.8582,-3.1777,-2.712,1.2152,1.3749,1.1371,75,9.663,186,7.282,1.0154,-9.7401,0.4659,-0.1854,0.2825,88,10.157,196,9.5032,-2.0486,-13.7842,-0.102,-1.5258,0.0437,70,9.986,192,6.8718,2.1318,-13.0441,-0.0971,0.6823,-0.0587,40,80651.582,1559617,-3.0795,2.5638,-4.9001,-1.0104,-0.8149,-2.2099,47
10.328,199,-2.7379,-1.8548,-2.3492,1.2594,1.6859,1.4648,75,9.715,187,7.5227,1.347,-9.0739,0.3991,-0.1173,0.1992,88,10.209,197,12.2016,-2.259,-14.9667,-0.2527,-1.787,0.1079,70,10.038,193,10.1326,1.2596,-11.4758,0.3585,0.4104,-0.2278,40,80651.634,1559618,-2.2876,1.1917,-5.0467,-1.1359,-1.2578,-2.2889,47
10.38,200,-6.6456,0.5495,-9.711,1.0624,0.888,1.4151,75,9.766,188,7.6282,1.3104,-8.9754,0.7107,0.0899,-0.1784,88,10.261,198,14.171,-3.0232,-13.2302,-0.613,-1.9776,0.0008,70,10.09,194,9.914,-1.6699,-14.7578,-0.4154,-0.3673,-0.2082,40,80651.686,1559619,-1.6904,0.1969,-5.1813,-1.1796,-1.5811,-2.3466,47
10.432,201,0.049,-4.7967,-4.4964,1.4497,-0.0212,0.3646,75,9.818,189,8.3997,1.7366,-9.1949,0.6913,0.0644,-0.1712,88,10.313,199,12.595,-3.1217,-11.7794,-0.1288,-1.3735,-0.3793,70,10.142,195,9.5615,-1.8567,-13.8635,0.2911,-0.3512,-0.3501,40,80651.738,1559620,-1.237,-0.5345,-5.26,-1.1719,-1.817,-2.3887,47
10.484,202,0.2504,-2.0228,-7.2042,1.6437,-0.6848,-0.3986,75,9.87,190,9.2625,1.7421,-9.9026,0.7583,-0.0347,-0.1924,88,10.365,200,11.8742,-1.6661,-8.4898,0.5822,-1.3178,-0.5068,70,10.194,196,9.3312,-1.5929,-13.1115,-0.1515,-0.3763,-0.1666,40,80651.789,1559621,-6.1344,-4.789,-11.8645,-1.1288,-0.6375,-2.1177,47
10.536,203,3.4507,0.785,-11.9349,0.5223,-0.737,-0.0001,75,9.922,191,10.0782,1.8188,-10.1447,0.8912,-0.0752,-0.3263,88,10.416,201,11.0583,-0.7305,-8.5994,0.2561,-0.2834,-0.6212,70,10.245,197,8.6533,-0.6639,-12.8043,0.2469,-0.4247,-0.1708,40,80651.841,1559622,-4.5689,-3.3133,-7.8635,-0.4349,0.2234,-1.7777,47
10.587,204,7.5756,0.995,-9.5097,1.0556,-0.2784,0.1651,75,9.974,192,9.3178,1.6282,-9.9938,0.3922,-0.2602,-0.2226,88,10.468,202,10.3917,-0.2247,-9.4965,-0.0627,0.4715,-0.6433,70,10.297,198,8.6827,-0.2976,-12.1038,0.4055,-0.6082,-0.2346,40,80651.893,1559623,-3.086,-2.118,-5.1894,0.0823,0.8517,-1.52,47
10.639,205,10.1102,-0.0843,-4.3495,0.1075,0.4092,0.7731,75,10.025,193,8.6794,1.7666,-10.0808,0.0215,-0.2003,-0.2413,88,10.52,203,11.6977,-0.5614,-10.9918,0.0707,1.0225,-0.88,70,10.349,199,8.2811,-0.2011,-12.9878,0.3315,-0.9459,-0.2983,40,80651.945,1559624,3.1061,3.7853,-11.813,-0.1728,0.1613,-1.3685,47
10.691,206,11.5922,-1.6093,-1.2485,0.2479,0.9811,1.1829,75,10.077,194,7.9414,1.8428,-10.3724,0.0432,0.0316,-0.4307,88,10.572,204,12.8048,-2.8747,-16.0272,0.7281,1.4246,-1.3052,70,10.401,200,8.0448,0.4902,-13.3423,0.1857,-1.3195,-0.3024,40,80651.997,1559625,2.3438,2.9971,-8.9071,-0.0104,-0.5453,-0.758,47
10.743,207,8.9055,-1.4852,-0.8849,0.4683,1.3984,1.538,75,10.129,195,7.6566,1.8066,-10.1338,0.1273,0.1945,-0.6224,88,10.623,205,8.3072,-4.7552,-19.5865,0.5303,1.578,-0.8843,70,10.453,201,10.3201,0.8047,-13.3105,0.2483,-1.6298,-0.3959,40,80652.048,1559626,1.8608,2.423,-6.9238,0.0955,-1.0611,-0.3091,47
10.795,208,6.0832,-0.4161,-6.2595,0.768,1.7031,1.3982,75,10.181,196,8.1223,0.8735,-10.5573,-0.1283,0.3124,-0.6286,88,10.675,206,11.3287,-0.6305,-21.35,0.5483,0.5091,-0.5542,70,10.504,202,12.6494,1.2812,-13.9936,0.8235,-1.8563,-0.6408,40,80652.1,1559627,1.5008,2.0146,-5.5018,0.1606,-1.4375,0.0222,47
10.846,209,3.8553,1.4947,-12.5649,0.1847,1.2882,0.8071,75,10.233,197,8.9321,1.1326,-10.602,0.1942,0.4332,-0.398,88,10.727,207,11.7834,-0.8042,-17.3765,1.0767,0.6002,-0.1398,70,10.556,203,10.1021,2.1039,-13.6373,1.1337,-1.5384,-0.3105,40,80652.152,1559628,1.2283,1.7167,-4.4698,0.1951,-1.7123,0.2677,47
10.898,210,1.5104,3.5545,-17.167,0.0798,0.2708,-0.0861,75,10.284,198,9.214,0.8449,-10.9933,0.5843,0.3515,0.0542,88,10.779,208,11.6902,-1.6632,-17.3861,0.329,-0.2354,0.36,70,10.608,204,6.1623,2.62,-13.311,0.672,-0.6213,-0.2054,40,80652.204,1559629,1.0032,1.5047,-3.7159,0.2096,-1.9128,0.4499,47
10.95,211,3.4634,3.4475,-11.701,0.6707,-0.4631,-0.277,75,10.336,199,9.5423,1.2069,-11.4448,1.0982,0.1957,0.5674,88,10.831,209,10.9843,-0.9796,-15.8876,0.3758,-0.408,0.3582,70,10.66,205,5.113,0.8444,-12.5613,-0.1413,0.2315,-0.1724,40,80652.255,1559630,6.0905,-1.6761,-10.7376,0.3802,-0.7692,0.9514,47
11.002,212,7.585,4.1685,-8.1582,-0.1628,-0.5969,0.3315,75,10.388,200,10.9882,1.49,-10.0439,0.7223,-0.5298,1.0684,88,10.883,210,11.0223,-0.813,-14.7662,-0.0204,-0.5151,0.5155,70,10.712,206,5.8851,-0.2531,-12.1524,0.2281,0.8539,-0.4241,40,80652.307,1559631,3.4133,-2.9606,-5.2734,0.5094,0.1273,1.37,47
11.054,213,10.5932,-2.1553,-7.3496,-0.7962,-0.5859,0.9186,75,10.44,201,9.9753,1.339,-10.9538,0.0136,-0.6449,1.1693,88,10.934,211,10.3475,-1.5479,-13.8203,-0.1151,-0.7093,0.5414,70,10.763,207,7.6805,-0.6119,-12.5941,0.6565,1.3082,-0.6367,40,80652.359,1559632,2.497,-3.2658,-4.679,0.656,0.7816,1.6756,47
11.105,214,12.4161,-4.2597,-6.094,0.0933,0.2515,1.2512,75,10.492,202,8.7865,1.2868,-10.0696,0.1461,-0.626,0.7845,88,10.986,212,10.2967,-1.5329,-13.4826,0.0461,-1.0363,0.5623,70,10.815,208,9.405,0.2612,-14.7732,1.1538,1.6397,-1.0705,40,80652.411,1559633,1.8337,-3.4803,-4.2967,0.8261,1.2591,1.8986,47
11.157,215,11.6825,-5.6598,-3.9941,0.7425,0.866,1.3141,75,10.543,203,7.726,1.1834,-9.6967,0.4548,-0.3757,0.3415,88,11.038,213,9.8639,-1.1472,-14.3217,-0.0417,-1.2381,0.683,70,10.867,209,8.3509,-3.1783,-18.7633,1.5168,1.8817,-1.4527,40,80652.462,1559634,1.941,-2.7064,-6.5563,-0.0749,0.2558,0.7096,47
11.209,216,7.3409,-6.5341,-6.1862,0.8749,1.3145,1.4549,75,10.595,204,6.8586,1.4975,-9.1736,0.6421,-0.2345,-0.0285,88,11.09,214,11.1342,-1.3469,-14.6784,-0.0803,-1.577,0.7267,70,10.919,210,5.8782,-4.8006,-18.1755,1.265,0.8914,-1.157,40,80652.514,1559635,1.1238,-2.379,-6.6517,-0.7326,-0.4764,-0.1581,47
11.261,217,4.5982,-6.5951,-9.5041,1.2656,1.6418,1.338,75,10.647,205,6.5548,1.5909,-9.2731,0.6472,-0.1488,-0.3004,88,11.141,215,13.3919,-0.9784,-15.0435,-0.6983,-1.8244,1.047,70,10.97,211,2.1029,-6.7645,-14.3046,0.275,1.1911,-0.3978,40,80652.566,1559636,0.5265,-2.1529,-6.7425,-1.2125,-1.0108,-0.7915,47
11.313,218,-2.0005,-3.7951,-13.0544,1.0168,1.8767,1.3498,75,10.699,206,7.0688,1.5552,-9.7545,0.58,-0.3355,-0.4828,88,11.193,216,11.3318,-2.6967,-13.6882,-0.7637,-1.9789,0.6324,70,11.022,212,3.7806,-3.0891,-14.4496,0.6777,0.7406,-0.2247,40,80652.618,1559637,0.0978,-1.987,-6.801,-1.5628,-1.4008,-1.2537,47
11.364,219,-4.0385,-2.9419,-17.356,0.6359,0.7003,0.684,75,10.751,207,8.9628,1.7864,-9.8751,0.3568,-0.8011,-0.5296,88,11.245,217,7.2524,-2.6819,-13.096,0.1192,-1.4439,-0.1857,70,11.074,213,5.4907,-2.1401,-13.9764,0.3869,0.5033,0.1589,40,80652.669,1559638,-0.2177,-1.875,-6.8419,-1.8185,-1.6854,-1.5911,47
11.416,220,2.1098,0.4546,-17.4459,0.4793,-0.1582,0.4293,75,10.803,208,10.5686,1.0572,-12.6273,0.1292,-0.3216,-0.7671,88,11.297,218,5.9084,-1.4335,-11.2354,-0.0732,-0.3755,-0.8095,70,11.126,214,6.5569,-1.8656,-13.7303,0.2208,0.2503,0.33,40,80652.721,1559639,5.0602,-6.6263,-13.0191,-2.0051,-1.8932,-1.8373,47
11.468,221,3.3236,0.4245,-19.4293,0.4008,-0.7848,-0.0058,75,10.855,209,11.3146,-1.4375,-12.0868,0.3986,-0.303,-1.1257,88,11.349,219,6.2231,-2.735,-10.9821,-0.2019,0.4043,-1.2614,70,11.178,215,7.2126,-0.6514,-12.8077,0.2766,0.1599,0.3484,40,80652.773,1559640,3.1427,-6.8571,-7.3272,-0.9596,-1.4908,-0.7124,47
11.52,222,7.483,-4.8879,-17.0316,0.7572,-1.0039,-0.3202,75,10.906,210,9.7297,-0.8566,-11.8072,-0.1308,-0.5016,-0.8344,88,11.401,220,9.8076,-4.3055,-12.8156,0.1374,0.9734,-1.2171,70,11.229,216,7.5652,-1.3052,-12.5195,0.4635,0.0289,0.289,40,80652.825,1559641,1.667,-5.1235,-6.5239,-0.0265,-0.3994,0.1557,47
11.572,223,10.5187,-5.3581,-12.3985,0.6668,-0.2782,0.443,75,10.958,211,8.421,-0.7165,-11.6844,0.0927,-0.3998,-0.5853,88,11.452,221,12.4238,-6.4489,-15.4805,0.7768,1.3888,-1.1398,70,11.281,217,7.5407,-0.306,-11.6071,0.5813,-0.3393,0.1796,40,80652.876,1559642,0.6144,-3.8385,-6.0296,0.6545,0.3972,0.7894,47
11.623,224,10.8874,-4.1063,-6.889,1.1603,0.4794,0.9999,75,11.01,212,8.1654,0.82,-11.3194,0.5552,-0.2345,-0.3592,88,11.504,222,8.8941,-7.3549,-18.7853,1.2435,1.4254,-0.8403,70,11.333,218,8.6694,0.3323,-11.8676,0.2564,-0.9144,0.147,40,80652.928,1559643,2.1473,-1.4636,-4.9767,-0.2002,0.3829,0.4481,47
11.675,225,6.03,-2.9396,-3.6806,1.5212,1.0323,1.4019,75,11.062,213,7.6628,1.5817,-11.7486,1.0743,0.4001,-0.4573,88,11.556,223,8.7857,-9.4778,-21.7152,1.5841,0.367,-0.3288,70,11.384,219,9.5565,1.2732,-12.3928,0.8314,-1.1643,-0.3503,40,80652.98,1559644,1.5972,-0.97,-5.6461,-0.824,0.3523,0.2026,47
11.727,226,2.0244,-1.1833,-5.4979,1.7806,1.4358,1.6166,75,11.114,214,8.2891,1.7688,-11.9296,1.3863,0.6706,-0.6793,88,11.608,224,7.5926,-7.4787,-22.1619,1.1647,-0.0795,0.0552,70,11.436,220,11.2413,1.8976,-11.9808,1.2814,-1.1266,-0.9271,40,80653.032,1559645,1.1754,-0.6043,-6.1726,-1.2792,0.3219,0.0217,47
11.779,227,1.7662,-0.1844,-10.0331,1.6159,1.4909,0.8517,75,11.165,215,7.7473,0.1072,-12.41,1.5349,0.942,-0.6104,88,11.659,225,9.5914,-6.6313,-19.6979,1.4847,-0.3229,0.2346,70,11.488,221,10.0996,-0.1144,-11.2243,1.6099,-0.7604,-1.348,40,80653.083,1559646,0.8678,-0.3256,-6.5677,-1.6115,0.2916,-0.1114,47
11.831,228,-2.2091,0.5997,-15.3191,0.502,0.4188,0.2345,75,11.217,216,8.4067,0.1119,-11.8569,1.79,0.9818,-0.4187,88,11.711,226,8.5936,-5.6977,-17.3656,0.7078,-0.0955,0.4571,70,11.54,222,8.2182,-0.9999,-11.5098,1.8497,-0.2032,-1.6553,40,80653.135,1559647,0.6392,-0.1171,-6.8417,-1.854,0.2637,-0.2099,47
11.882,229,-0.8608,5.6846,-12.5522,0.8421,-0.3637,-0.2818,75,11.269,217,8.4741,0.4286,-13.0966,1.9781,1.3791,-0.133,88,11.763,227,9.0568,-4.1229,-16.0198,0.5988,-0.2121,0.3665,70,11.592,223,7.8497,-0.7435,-11.1283,0.6729,0.5367,-1.1842,40,80653.187,1559648,5.8249,-5.3433,-10.6363,-1.6792,0.6507,-0.4893,47
11.934,230,4.4291,-1.0489,-7.3293,-0.0628,-0.9348,-0.8277,75,11.321,218,8.6915,1.4268,-12.6614,2.1155,1.2767,0.3616,88,11.815,228,8.4488,-3.6554,-15.1337,0.3179,-0.2634,0.2674,70,11.643,224,8.1169,-2.0863,-11.0499,-0.186,1.0767,-0.3394,40,80653.239,1559649,1.9458,-6.1498,-7.328,-0.6421,0.5466,0.3181,47
11.986,231,8.2898,-5.9632,-13.3457,-0.7232,-1.3516,0.0725,75,11.373,219,8.6689,2.6816,-10.778,2.2128,0.5239,0.9293,88,11.867,229,8.1449,-2.7013,-14.454,0.1587,-0.3399,0.1561,70,11.695,225,10.5528,-0.8465,-13.3553,0.539,1.4708,-0.226,40,80653.29,1559650,0.9362,-4.1437,-7.1765,0.2052,0.3375,0.9079,47
12.038,232,11.1074,-5.2351,-13.3123,0.1466,-0.9555,0.598,75,11.424,220,8.3091,2.8123,-10.4963,1.3301,0.0352,1.1928,88,11.919,230,8.3813,-1.9706,-13.7878,-0.0158,-0.5635,0.0881,70,11.747,226,7.3399,-0.1082,-15.4477,1.068,0.8117,-0.6366,40,80653.342,1559651,-0.1997,-2.5541,-7.1213,0.8237,0.1425,1.3383,47
12.089,233,13.1639,-3.1421,-11.8287,0.7813,-0.0194,0.3305,75,11.476,221,7.5428,3.0365,-9.289,1.2459,-0.1905,0.8002,88,11.97,231,9.1888,-1.263,-13.7674,-0.0815,-1.0666,0.0133,70,11.799,227,10.4742,0.752,-15.6448,0.6823,0.0665,-0.8219,40,80653.394,1559652,-0.61,-1.8174,-9.41,-0.0736,0.7834,1.6524,47
12.141,234,6.4062,-4.1014,-8.8005,1.2446,0.6683,-0.2535,75,11.528,222,6.5927,2.9687,-8.4206,0.9432,-0.249,0.3781,88,12.022,232,10.5249,-0.3314,-13.595,-0.1673,-1.3933,-0.1525,70,11.851,228,7.4415,2.7749,-15.6252,0.0679,-0.3967,-0.6021,40,80653.446,1559653,0.0167,-1.621,-8.9544,-0.7316,1.2605,1.8817,47
12.193,235,-0.3732,-5.6367,-9.0428,0.5658,1.0381,0.0877,75,11.58,223,6.8778,2.7887,-9.0633,0.5334,-0.1973,-0.0172,88,12.074,233,10.716,-2.4859,-13.834,0.1674,-1.6495,-0.562,70,11.902,229,8.7394,2.0548,-15.0508,0.1819,-0.3152,-0.4302,40,80653.498,1559654,0.4585,-1.5131,-8.6668,-1.2117,1.6086,2.049,47
12.245,236,-3.8685,-6.8789,-11.5151,1.0232,0.8577,0.737,75,11.632,224,9.3509,2.5889,-10.7078,0.3933,-0.1665,-0.396,88,12.126,234,9.7531,-1.9392,-13.2462,0.7987,-1.5419,-1.0832,70,11.954,230,8.0384,2.9172,-13.9029,-0.0103,-0.1007,-0.1797,40,80653.55,1559655,0.7807,-1.4559,-8.4421,-1.5614,1.8627,2.1712,47
12.297,237,1.8265,-5.7629,-16.4007,0.5842,-0.028,0.2006,75,11.683,225,10.7295,1.3776,-12.2526,0.783,0.1828,-0.9754,88,12.177,235,9.7027,-1.5843,-11.1749,1.2595,-0.9211,-1.4643,70,12.006,231,8.3219,2.6244,-12.8805,0.1777,-0.0878,-0.0294,40,80653.601,1559656,0.9606,-1.3982,-8.3141,-1.8121,2.0481,2.2603,47
12.348,238,0.7608,-3.1215,-16.9958,0.8064,-0.6898,0.1074,75,11.735,226,10.26,0.2412,-11.9841,0.7604,0.4723,-1.2923,88,12.229,236,9.6965,-2.3177,-10.2643,1.5281,0.0032,-1.7271,70,12.058,232,8.4302,2.2256,-12.4762,0.0711,-0.1368,0.045,40,80653.653,1559657,-1.8458,-0.606,-7.3342,-1.7139,1.5301,1.0069,47
12.4,239,5.6126,-4.4377,-13.2404,1.2629,-1.1728,-0.3333,75,11.787,227,9.5942,0.0635,-11.9099,0.409,0.2093,-0.9708,88,12.281,237,10.505,-3.5237,-10.9022,1.7918,0.6807,-1.9155,70,12.11,233,8.5246,2.1358,-12.3515,0.1548,-0.2054,0.0526,40,80653.705,1559658,-4.6032,-0.5758,-7.8945,-1.4703,0.4537,0.0588,47
12.452,240,9.1536,-1.4224,-14.7962,1.4867,-1.5253,-0.9184,75,11.839,228,9.051,0.6229,-11.3876,0.688,0.1008,-0.5291,88,12.333,238,11.7879,-4.6323,-11.9167,1.9843,1.1751,-1.9915,70,12.161,234,8.4492,1.6159,-12.2218,-0.058,-0.28,0.1139,40,80653.756,1559659,-3.1645,-1.0278,-8.189,-1.147,-0.332,-0.6331,47
12.504,241,11.738,0.1789,-11.6699,0.6917,-0.508,-0.1559,75,11.891,229,8.8583,1.5182,-11.3528,1.0627,0.1809,-0.3181,88,12.385,239,11.1765,-5.3188,-15.377,2.1247,1.536,-1.7179,70,12.213,235,8.1614,1.4566,-11.3847,0.1974,-0.6579,-0.0114,40,80653.808,1559660,-2.0566,-1.2855,-8.4379,-0.8687,-0.9054,-1.1381,47
12.556,242,12.6448,-1.498,-8.3604,0.1341,0.3117,0.4462,75,11.942,230,8.364,2.4403,-11.2694,1.3951,0.3859,-0.2403,88,12.436,240,9.482,-7.0478,-17.0203,1.9136,1.7994,-1.3078,70,12.265,236,8.2876,1.2925,-11.5853,0.0991,-1.1469,0.0331,40,80653.86,1559661,-6.7326,3.9334,-12.4833,0.0111,-0.8796,-0.1866,47
12.608,243,10.7549,-5.369,-8.5625,0.42,0.9099,1.0023,75,11.994,231,7.7178,3.0768,-10.852,1.6103,0.635,-0.2891,88,12.488,241,6.6304,-3.8483,-19.3087,2.0731,0.7577,-0.8816,70,12.317,237,10.2333,1.1259,-12.7662,0.3187,-1.5039,-0.3182,40,80653.912,1559662,-5.767,3.3822,-10.621,0.682,-1.0214,0.5395,47
12.66,244,6.7203,-6.0939,-9.5108,0.9809,1.3465,1.4081,75,12.046,232,7.3824,3.2767,-10.632,1.4722,0.5711,-0.3612,88,12.54,242,10.1049,2.5433,-15.8286,1.4735,0.1847,-0.6372,70,12.368,238,8.1369,3.1249,-13.1006,0.9073,-1.4283,-0.7943,40,80653.963,1559663,-5.1288,3.0103,-9.2078,1.1716,-1.1822,1.0694,47
12.711,245,1.3538,-4.6118,-10.2353,1.3513,1.6652,1.7044,75,12.098,233,8.0074,2.0852,-11.1548,1.4761,0.8224,-0.5975,88,12.592,243,12.6407,2.8453,-13.607,1.5365,-0.5386,-0.2764,70,12.42,239,7.7774,1.8454,-12.825,1.3368,-1.1426,-1.2511,40,80654.015,1559664,-4.6582,2.755,-8.169,1.529,-1.3468,1.4562,47
12.763,246,-2.9563,-2.7501,-11.0476,0.3651,1.1835,1.821,75,12.15,234,9.7119,1.7574,-11.8928,1.7491,0.8282,-0.7414,88,12.644,244,12.2694,1.9211,-13.7791,1.0861,-0.5652,-0.0999,70,12.472,240,6.7374,0.9302,-11.7593,1.2389,-0.4018,-1.5845,40,80654.067,1559665,-4.3185,2.5916,-7.4145,1.7898,-1.522,1.7385,47
12.815,247,-3.449,-5.079,-16.0596,0.22,0.1944,1.1668,75,12.201,235,10.2601,0.9236,-10.8028,1.6156,0.491,-0.3023,88,12.695,245,11.4946,1.4934,-13.2826,0.7873,-0.4916,-0.0309,70,12.524,241,6.7046,-1.7846,-11.6647,1.0683,0.3917,-1.6854,40,80654.119,1559666,-4.0511,2.5023,-6.8409,1.9802,-1.6957,1.9445,47
12.867,248,-3.2265,-2.9603,-18.8008,0.8349,-0.1418,0.8538,75,12.253,236,10.9484,0.5694,-10.8604,1.7958,0.4431,0.0888,88,12.747,246,10.4177,0.873,-13.0373,0.6389,-0.5429,-0.0063,70,12.576,242,8.0423,-3.5096,-11.7877,1.4276,0.9708,-1.5149,40,80654.17,1559667,-0.558,-0.6681,-11.6634,2.0666,-1.261,1.6473,47
12.918,249,2.7025,-1.174,-19.5182,0.9661,-0.7728,0.6376,75,12.305,237,10.0282,0.0465,-10.5711,1.8284,0.4884,0.3661,88,12.799,247,9.7742,0.1876,-13.0474,0.4411,-0.5814,0.0483,70,12.627,243,9.0333,-3.7515,-11.4649,1.5223,1.3935,-1.1608,40,80654.222,1559668,-1.8507,0.696,-9.62,0.8381,-0.3286,0.8645,47
12.97,250,7.0297,-3.7684,-16.5989,0.0277,-1.2334,0.8444,75,12.357,238,9.0649,0.1198,-10.662,1.9382,0.4712,0.6372,88,12.851,248,9.8206,0.3603,-13.4533,0.1505,-0.6045,0.0874,70,12.679,244,10.6894,-3.4279,-12.114,1.2131,1.702,-0.6071,40,80654.274,1559669,-1.5173,0.6097,-9.246,-0.0662,0.4025,0.0459,47
13.022,251,8.8348,-5.3,-10.0276,-0.3656,-0.8906,0.8192,75,12.409,239,8.5409,0.5562,-11.0236,2.0863,0.4778,0.6761,88,12.903,249,8.9952,-0.6806,-13.6123,0.3249,-0.7633,-0.0426,70,12.731,245,10.408,-2.5136,-13.2052,1.5601,1.9272,-0.3767,40,80654.326,1559670,-1.3163,0.495,-9.0004,-0.7262,0.9218,-0.5468,47
13.074,252,8.6752,-6.8777,-4.7275,-0.4002,-0.0952,0.8214,75,12.46,240,7.8812,1.5733,-10.8851,2.1944,0.4642,0.6101,88,12.955,250,9.4326,0.2624,-13.6637,0.166,-0.8676,-0.1367,70,12.783,246,9.0952,-1.6694,-15.5848,1.7634,2.0915,-0.428,40,80654.377,1559671,4.3977,-4.8966,-14.5944,-1.2079,0.3295,-0.0365,47
13.126,253,7.8598,-9.515,-3.1657,0.2458,0.6129,1.1754,75,12.512,241,7.0436,2.4477,-10.2837,2.2733,0.5224,0.3845,88,13.006,251,10.4552,-0.1417,-13.72,0.1207,-1.297,-0.2488,70,12.834,247,6.1592,-1.2408,-17.6035,1.8076,1.0713,-0.4614,40,80654.429,1559672,3.5505,-2.1615,-12.1337,-1.1536,-0.4226,0.6491,47
13.177,254,6.1234,-10.1398,-4.5091,0.8413,1.1297,1.5345,75,12.564,242,6.5513,3.5866,-9.7305,2.2656,0.4941,0.0711,88,13.058,252,12.8103,-0.1224,-14.8209,-0.0458,-1.62,-0.3647,70,12.886,248,9.4165,4.3866,-20.829,1.9445,0.1167,-0.8348,40,80654.481,1559673,2.8966,-0.1075,-10.0639,-1.1777,-0.9715,1.1494,47
13.229,255,4.2484,-8.9959,-6.4702,1.0714,1.507,1.7966,75,12.616,243,7.6505,4.0037,-9.9338,2.2317,0.2379,-0.1258,88,13.11,253,14.1642,-1.4629,-13.657,-0.0971,-1.8558,-0.8536,70,12.938,249,4.8138,5.2633,-19.6625,1.3505,-0.1551,-0.6539,40,80654.533,1559674,2.4951,1.3952,-8.5758,-1.2716,-1.3721,1.5146,47
13.281,256,0.109,-4.3655,-11.4912,0.3802,1.7657,1.4469,75,12.668,244,7.9477,4.0694,-8.7002,1.8089,-0.3486,0.098,88,13.162,254,11.2804,-4.3218,-15.8752,0.6056,-1.6564,-1.297,70,12.99,250,6.5581,4.3315,-17.8825,1.1913,-0.2308,-0.4309,40,80654.584,1559675,2.2697,2.4798,-7.5104,-1.4027,-1.6645,1.7811,47
13.333,257,-0.5967,-3.6106,-16.3833,0.0938,0.6193,0.3811,75,12.719,245,9.5651,3.2807,-8.4517,0.6624,-0.9271,0.3519,88,13.213,255,10.5764,-2.3201,-12.72,1.1186,-0.8893,-1.6206,70,13.042,251,6.3609,4.6277,-15.6649,0.7368,-0.2333,-0.1101,40,80654.636,1559676,2.1681,3.2549,-6.7336,-1.5732,-1.8779,1.9756,47
13.384,258,0.1564,-0.7121,-18.9637,0.7428,0.8946,-0.352,75,12.771,246,11.1747,2.0053,-9.2309,0.2111,-0.9832,-0.1971,88,13.265,256,9.7139,-3.1848,-11.7744,0.9261,0.0074,-1.8517,70,13.093,252,7.0016,2.9346,-14.459,0.4665,-0.4231,-0.0129,40,80654.688,1559677,-2.5905,-2.8823,-12.94,-1.113,-1.9123,1.6197,47
13.436,259,5.1712,4.169,-18.531,0.855,-0.0164,-0.8891,75,12.823,247,10.1329,1.0194,-9.5069,-0.2399,-0.6672,-0.3884,88,13.317,257,8.8661,-3.6303,-11.2916,0.8417,0.6837,-1.9829,70,13.145,253,7.4244,2.2844,-14.0019,0.2113,-0.6662,-0.0656,40,80654.74,1559678,-0.6289,-2.5704,-11.8482,-0.1384,-1.4813,0.5061,47
13.488,260,8.8315,-0.9588,-14.734,0.3253,-0.4159,-0.3564,75,12.875,248,8.9489,0.7513,-9.1586,-0.8551,-0.7288,-0.3376,88,13.369,258,9.8922,-4.3372,-11.9845,0.9199,1.1774,-1.869,70,13.197,254,7.8306,2.0717,-13.6897,0.3674,-0.8808,-0.2054,40,80654.791,1559679,0.2794,-1.6141,-10.3195,0.5729,-1.0895,-0.3067,47
13.54,261,9.1618,-1.9687,-8.2859,0.3,-0.4491,0.1117,75,12.927,249,8.0606,0.8821,-9.3919,-0.7114,-0.2313,-0.4424,88,13.421,259,12.1264,-6.1235,-16.4951,1.1828,1.5377,-1.4236,70,13.249,255,8.0985,2.0694,-13.0031,0.5843,-1.2165,-0.4255,40,80654.844,1559680,0.8952,-0.8551,-9.2792,1.092,-0.7766,-0.8999,47
13.592,262,8.9095,-4.1272,-3.4562,0.3228,0.2409,0.3821,75,12.978,250,7.6092,1.9898,-9.578,-0.2127,0.2722,-0.6047,88,13.472,260,8.3231,-9.2696,-20.0437,1.2416,1.8006,-1.0898,70,13.301,256,11.0279,1.2276,-14.0152,0.4665,-1.5546,-0.8447,40,80654.895,1559681,-0.6566,-1.3016,-8.6438,1.4708,0.1219,0.0189,47
13.643,263,7.8774,-6.6304,-2.8849,0.6559,0.8582,0.9164,75,13.03,251,7.6313,2.5213,-9.8217,0.2376,0.6479,-0.829,88,13.524,261,11.0397,-10.7501,-22.6337,1.5827,0.6408,-0.5413,70,13.352,257,13.166,1.0625,-13.6172,1.0152,-1.8014,-1.2879,40,80654.947,1559682,-0.8829,-1.6351,-6.8063,1.7474,0.7776,0.6895,47
13.695,264,6.4595,-8.6971,-5.8655,1.1531,1.3088,1.3454,75,13.082,252,8.1572,2.0733,-10.1241,0.5952,0.9287,-1.0613,88,13.576,262,2.7331,-10.646,-23.9467,1.0621,0.6343,-0.004,70,13.404,258,8.5725,3.5916,-15.1157,1.4149,-1.801,-1.4125,40,80654.999,1559683,-1.0739,-1.8911,-5.4479,1.9492,1.2562,1.1789,47
13.747,265,5.4006,-8.4395,-10.4257,1.516,1.4792,1.6586,75,13.134,253,8.2605,0.7191,-10.4924,0.4354,1.1342,-0.936,88,13.628,263,4.3803,-8.6288,-21.1128,0.5774,0.6515,0.2033,70,13.456,259,5.2284,2.1922,-13.9669,1.3983,-0.9415,-1.3521,40,80655.05,1559684,-1.2223,-2.0629,-4.4498,2.0965,1.6055,1.5361,47
13.799,266,1.2307,-3.4201,-15.6056,1.7808,0.4945,1.8872,75,13.186,254,8.7795,0.8644,-10.1902,0.5245,0.7732,-0.4304,88,13.679,264,4.6707,-6.9405,-19.135,0.584,0.3265,0.1368,70,13.508,260,4.9274,0.7267,-12.5425,0.938,-0.0022,-1.1653,40,80655.102,1559685,-1.3584,-2.1799,-3.6909,2.204,1.8604,1.7968,47
13.851,267,5.9555,2.8938,-19.3862,0.9551,-0.3084,1.5956,75,13.237,255,10.5298,0.5708,-11.1153,0.6548,0.6384,0.0871,88,13.731,265,6.3814,-4.6278,-17.7011,0.1183,0.1713,0.2863,70,13.56,261,5.4104,-0.7037,-12.6452,0.4807,0.6834,-0.8223,40,80655.154,1559686,-1.5142,-2.2137,-3.1442,2.2824,2.0465,1.9871,47
13.902,268,5.6899,3.8517,-17.8371,0.1243,-0.8944,0.533,75,13.289,256,10.1402,0.698,-11.0527,1.1496,0.5299,0.3411,88,13.783,266,7.0721,-4.166,-16.2568,-0.0944,0.0222,0.3775,70,13.611,262,7.1594,-1.2165,-13.2297,0.9667,1.1837,-0.5534,40,80655.206,1559687,-3.3896,-0.9747,-3.2685,2.1287,0.8567,1.1432,47
13.954,269,9.21,-0.5643,-17.0355,-0.5867,-1.2669,1.0654,75,13.341,257,9.2463,1.2554,-10.4257,1.5108,0.4311,0.7261,88,13.835,267,7.5824,-3.3779,-15.4189,-0.2575,-0.15,0.3881,70,13.663,263,9.6665,-0.519,-14.268,1.1824,1.5489,-0.3554,40,80655.257,1559688,-2.1519,-1.2522,-3.957,1.9889,-0.0378,0.1583,47
14.006,270,11.7792,-2.4254,-14.3625,-0.8362,-0.4873,1.4542,75,13.393,258,8.0839,1.4559,-10.1875,1.7478,0.3776,0.9262,88,13.886,268,7.6128,-2.9188,-14.8596,-0.1817,-0.3844,0.3051,70,13.715,264,12.1723,-0.2639,-16.6729,1.0195,1.8154,0.0673,40,80655.309,1559689,-1.166,-1.4125,-4.5046,1.9178,-0.6907,-0.5605,47
14.058,271,12.4357,-2.9924,-10.3461,-0.2278,0.3268,1.4953,75,13.444,259,7.2593,2.5832,-9.9376,1.8667,0.2974,1.0035,88,13.938,269,8.2567,-2.5979,-14.397,-0.0404,-0.7209,0.1809,70,13.767,265,6.2167,1.4923,-16.7122,0.6008,0.9513,-0.0356,40,80655.361,1559690,-6.0825,2.3531,-0.7243,1.0667,0.1846,-0.432,47
14.11,272,7.3654,-5.232,-8.4251,-0.8436,0.9209,1.7679,75,13.496,260,6.8579,3.1896,-9.389,1.6822,0.1757,0.9975,88,13.99,270,9.1017,-2.0157,-14.4376,-0.0053,-1.197,0.1596,70,13.819,266,8.6435,-0.5395,-11.5395,-0.2386,0.0275,0.0486,40,80655.413,1559691,-4.2602,1.6045,-2.1343,0.3156,0.8234,-0.1764,47
14.161,273,3.1965,-5.4762,-7.7372,0.0587,1.273,1.967,75,13.548,261,6.5058,3.5029,-9.1145,1.167,0.088,0.6782,88,14.042,271,11.9086,-1.8932,-14.2417,-0.092,-1.547,0.2505,70,13.87,267,9.9033,-0.9295,-14.2165,0.5005,-0.6409,-0.4484,40,80655.464,1559692,-2.9432,1.1285,-3.0791,-0.2298,1.2896,0.0101,47
14.213,274,-0.0022,-4.7354,-9.3174,0.7172,1.1814,2.1122,75,13.6,262,7.9583,3.0537,-9.6235,1.1383,-0.0461,-0.1662,88,14.094,272,13.3767,-3.1967,-13.3221,-0.2453,-1.8025,0.0679,70,13.922,268,7.4424,-0.5852,-13.5173,0.0929,-0.7561,-0.3365,40,80655.516,1559693,-1.9918,0.7854,-3.7598,-0.6258,1.6299,0.147,47
14.265,275,-3.205,1.9338,-14.6973,1.1978,0.2284,1.1575,75,13.652,263,9.079,2.9239,-9.3224,0.7069,-0.1023,-0.652,88,14.146,273,12.5444,-2.9176,-11.9487,0.1182,-1.7713,-0.3007,70,13.974,269,8.1562,-0.0855,-13.3018,-0.1095,-1.0219,-0.2465,40,80655.568,1559694,-1.2925,0.5172,-4.2634,-0.9128,1.8782,0.2472,47
14.317,276,2.7181,-0.6876,-14.0644,0.2742,-0.5027,0.5359,75,13.704,264,9.6745,2.5203,-9.7243,-0.1641,-0.331,-0.509,88,14.198,274,11.6858,-2.4669,-10.4936,0.4426,-1.8798,-0.5166,70,14.026,270,8.3818,0.3436,-13.0757,-0.1869,-1.1216,-0.1062,40,80655.62,1559695,-0.8117,0.3407,-4.6971,-1.12,2.0595,0.3206,47
14.368,277,7.0411,-1.5015,-14.8928,-0.4772,-1.0362,0.1832,75,13.755,265,10.1358,1.5704,-10.4876,-0.7786,-0.472,-0.3746,88,14.249,275,9.4746,-1.4623,-10.5554,0.6375,-0.8344,-0.8923,70,14.077,271,8.6265,0.2423,-13.1094,-0.2336,-1.1777,0.0105,40,80655.671,1559696,-5.7511,1.3018,-2.6946,-0.5645,1.65,-0.3876,47
14.42,278,10.1962,-6.2935,-13.5446,-0.6973,-1.4256,-0.1056,75,13.807,266,9.5404,1.5038,-10.5243,-0.7712,-0.3462,-0.2762,88,14.301,276,8.3136,-0.9203,-10.6311,0.6258,0.0693,-0.8562,70,14.129,272,8.6039,0.3809,-13.1395,-0.2147,-1.1662,0.0623,40,80655.723,1559697,-3.8438,0.5897,-4.0985,0.0308,0.5412,-0.959,47
14.472,279,12.4987,-4.5927,-10.7615,-0.9472,-0.7553,0.0266,75,13.859,267,8.7404,1.9973,-10.4637,-0.5523,-0.2946,-0.2017,88,14.353,277,9.5492,0.3476,-11.9967,-0.0571,0.729,-0.4135,70,14.181,273,8.6777,0.073,-13.4236,-0.2329,-1.1809,0.0808,40,80655.775,1559698,-2.4286,0.0731,-5.1383,0.4904,-0.2681,-1.3759,47
14.524,280,13.1139,-4.8655,-8.8466,-1.3687,0.1312,0.4248,75,13.911,268,7.9644,3.1384,-10.0377,-0.5081,-0.2575,-0.0713,88,14.405,278,10.5645,0.552,-15.5015,-0.7169,1.2104,0.2633,70,14.233,274,8.5537,0.5421,-12.6964,-0.2376,-1.3752,0.0913,40,80655.827,1559699,3.5859,5.3845,-1.1867,0.2135,-0.2712,-1.6803,47
14.576,281,10.5117,-4.8511,-7.2454,-1.5242,0.7782,0.345,75,13.963,269,7.2942,2.9811,-9.9233,-1.0474,-0.3135,0.0548,88,14.457,279,8.8892,1.1562,-19.3186,-1.1984,1.5617,0.4736,70,14.285,275,10.5758,-0.3354,-13.0105,-0.2723,-1.6705,-0.023,40,80655.879,1559700,2.7095,4.3942,-1.7167,-0.522,0.4907,-1.6764,47
14.627,282,5.7269,-4.2937,-6.697,-1.2824,1.2504,0.4888,75,14.014,270,7.3755,3.0963,-10.0937,-1.4421,-0.2693,0.0982,88,14.508,280,5.4608,-4.3932,-14.0731,-0.676,0.6413,0.8305,70,14.336,276,12.836,0.1597,-14.2986,0.0201,-1.886,-0.1323,40,80655.93,1559701,1.9908,3.6275,-1.6919,-1.0589,1.0468,-1.668,47
14.679,283,0.9872,-1.7798,-6.5954,-0.3514,1.5892,0.0382,75,14.066,271,7.8798,2.838,-11.2702,-1.7266,-0.0003,0.0745,88,14.56,281,1.1866,-4.387,-12.1805,-0.7591,1.1448,0.7518,70,14.388,277,8.9918,1.5131,-13.8649,-0.4949,-1.9408,0.1849,40,80655.982,1559702,1.4703,3.0516,-1.6929,-1.4507,1.4527,-1.6563,47
14.731,284,-3.1143,-1.2072,-8.3001,-0.8903,1.249,-0.0659,75,14.118,272,8.1891,1.269,-12.5383,-1.2085,0.3758,-0.3413,88,14.612,282,6.1318,-3.808,-13.141,-0.5224,0.6537,0.5196,70,14.44,278,6.7124,1.1718,-13.561,-0.4991,-1.4324,0.3369,40,80656.034,1559703,1.0762,2.6115,-1.7031,-1.7367,1.7489,-1.6417,47
14.783,285,-4.2144,-1.6903,-12.0075,-0.8868,0.2422,-0.714,75,14.17,273,8.7317,0.9784,-12.9384,-0.7668,0.6252,-0.3075,88,14.664,283,7.0042,-3.5746,-12.9696,-0.4783,0.2168,0.311,70,14.491,279,4.7441,0.6773,-12.338,-0.2392,-0.4035,0.4567,40,80656.085,1559704,0.7959,2.3012,-1.7268,-1.9454,1.9651,-1.6261,47
14.835,286,0.1651,-4.8295,-11.1295,-0.6741,-0.0272,-0.4275,75,14.221,274,9.3725,0.3849,-11.9341,-0.473,0.2213,-0.0213,88,14.716,284,7.7504,-2.9368,-12.5975,-0.4517,-0.0829,0.2301,70,14.543,280,5.107,0.2969,-12.4356,0.2928,0.3904,0.4366,40,80656.137,1559705,5.9392,7.0106,1.3031,-1.7891,1.9717,-1.7767,47
14.886,287,4.5072,0.6851,-14.7951,-0.879,-0.6892,-0.98,75,14.273,275,9.6743,0.8728,-11.5614,-0.4073,0.0147,0.4484,88,14.767,285,7.7483,-2.9682,-12.7865,-0.4082,-0.2261,0.1175,70,14.595,281,6.6037,0.0788,-13.0131,0.4677,0.9699,0.5066,40,80656.189,1559706,9.6931,6.4154,-3.9569,-1.1747,1.1454,-1.9728,47
14.938,288,7.9849,-4.6977,-16.7228,-1.3189,0.0957,-0.0386,75,14.325,276,9.0157,1.1358,-11.2907,-0.2291,-0.0782,0.7406,88,14.819,286,8.2087,-2.8012,-12.7204,-0.3385,-0.3735,0.0427,70,14.647,282,7.9337,0.1933,-13.6842,-0.0782,1.3929,0.834,40,80656.241,1559707,7.1852,4.3864,-5.4131,-0.5801,0.1729,-2.1159,47
14.99,289,10.885,-4.296,-15.7717,-0.2882,0.6404,0.6484,75,14.377,277,7.7343,1.7475,-10.2213,0.107,-0.0302,0.6902,88,14.871,287,8.3416,-2.6863,-12.8518,-0.4432,-0.4974,0.0675,70,14.699,283,9.8905,1.4842,-15.156,-0.7342,1.7015,1.289,40,80656.292,1559708,0.0125,-2.0564,-11.9763,-0.1452,-0.1592,-2.2203,47
15.041,290,11.2234,-4.1256,-12.4066,0.3662,1.1498,1.0295,75,14.428,278,7.1383,2.4802,-9.417,-0.1987,-0.1659,0.7455,88,14.922,288,8.5025,-2.5947,-13.1471,-0.4155,-0.6678,0.0154,70,14.751,284,10.1672,0.4529,-15.853,-1.2129,1.9268,1.3719,40,80656.344,1559709,-0.2075,-1.3314,-10.7692,-0.7839,0.564,-2.2626,47
15.093,291,2.6591,-6.2031,-7.495,0.7067,1.3772,1.3814,75,14.48,279,6.951,2.6569,-9.172,-0.4388,-0.1975,0.6288,88,14.974,289,8.901,-2.533,-13.2927,-0.3384,-0.9591,-0.1116,70,14.803,285,6.9065,2.3559,-17.6946,-1.3426,1.6401,1.0583,40,80656.396,1559710,-0.2523,-0.7766,-10.1226,-1.25,1.0886,-2.3223,47
15.145,292,-0.2901,-4.9029,-6.3691,1.1901,1.6875,1.6848,75,14.532,280,7.0626,2.5674,-9.0492,-0.3923,-0.1234,0.2385,88,15.026,290,9.3341,-2.4574,-13.11,-0.2289,-1.3725,-0.2194,70,14.855,286,10.1579,-3.5773,-11.6408,-1.6175,0.5693,0.8081,40,80656.448,1559711,-0.2846,-0.3616,-9.6115,-1.5902,1.466,-2.3684,47
15.197,293,-2.1873,-0.2483,-11.472,1.543,1.4273,1.2074,75,14.584,281,7.6279,2.7074,-9.3536,-0.4584,-0.0564,-0.173,88,15.078,291,12.0782,-2.4945,-12.4618,-0.5295,-1.6751,-0.0862,70,14.906,287,12.3329,-1.837,-11.4189,-0.5059,-0.2493,-0.0784,40,80656.5,1559712,-0.3054,-0.0629,-9.2233,-1.8384,1.7375,-2.3987,47
15.249,294,3.4609,-5.3789,-5.7816,0.7194,0.7595,1.22,75,14.636,282,8.5442,2.8951,-9.1336,-0.6197,-0.1416,-0.4978,88,15.13,292,14.0501,-4.166,-12.6217,-1.0616,-1.896,-0.0946,70,14.958,288,9.1806,-1.7306,-10.0875,-0.8867,0.2492,0.0211,40,80656.551,1559713,-0.3153,0.1604,-8.9446,-2.0196,1.9289,-2.4182,47
15.3,295,-2.9072,-2.9279,-10.5634,-0.1318,0.1343,0.2572,75,14.687,283,9.0842,2.1648,-8.7921,-0.9482,-0.0272,-0.6779,88,15.182,293,9.7263,-4.0762,-13.2943,-0.2251,-1.2655,0.0838,70,15.01,289,8.7275,-0.7035,-11.7406,-0.6872,-0.02,-0.2285,40,80656.603,1559714,5.1282,1.5842,-4.2648,-1.8432,1.6315,-1.9201,47
15.353,296,2.1266,-1.7042,-12.0066,-0.7736,-0.5713,-0.4874,75,14.739,284,9.4293,2.2528,-9.5456,-1.3721,-0.2584,-0.4053,88,15.234,294,8.0937,-2.3259,-12.1386,0.5122,-0.2452,0.6139,70,15.062,290,8.869,-0.488,-12.4719,-0.5787,-0.3927,-0.2481,40,80656.655,1559715,4.6359,6.4873,-3.8737,-1.1027,0.7934,-1.0741,47
15.404,297,6.6094,-1.232,-15.9833,-1.242,-0.9252,-0.6139,75,14.791,285,8.899,3.4648,-10.1236,-1.3636,-0.3876,0.0269,88,15.285,295,8.9193,0.9825,-12.3542,-0.2247,0.4994,1.1258,70,15.114,291,9.0627,-0.3667,-13.0376,-0.3839,-0.6205,-0.2366,40,80656.707,1559716,3.1172,5.5989,-4.8771,-0.1309,0.0822,-0.1083,47
15.456,298,9.8811,-1.2633,-15.1099,-0.7465,0.0072,-0.0676,75,14.843,286,8.6428,4.3228,-10.3846,-1.2858,-0.4066,0.2128,88,15.337,296,10.3014,3.0501,-13.6499,-0.8392,1.0428,1.4994,70,15.165,292,9.2159,-0.5956,-13.4515,-0.4676,-0.8776,-0.0559,40,80656.758,1559717,2.0132,4.2747,-5.6319,0.5783,-0.4545,0.5967,47
15.508,299,10.7831,-0.5866,-12.8375,-0.8204,0.6877,0.2644,75,14.895,287,8.2578,4.6955,-10.5902,-1.5982,-0.4565,0.4005,88,15.389,297,11.3489,5.0044,-15.708,-1.2877,1.4394,1.772,70,15.217,293,9.3303,-1.091,-13.7103,-0.6531,-1.2103,0.1068,40,80656.81,1559718,-3.7623,-2.138,-12.1359,0.2978,-0.5358,0.8242,47
15.56,300,8.5453,-1.018,-10.8755,-1.2653,1.1675,0.1987,75,14.946,288,7.7252,4.7813,-10.3928,-1.8418,-0.4726,0.5202,88,15.44,298,11.327,2.284,-19.4693,-1.615,1.7289,1.8746,70,15.269,294,10.4888,-1.6354,-13.2893,-0.7193,-1.5501,0.1766,40,80656.862,1559719,-2.6686,-1.5469,-11.634,-0.1266,-0.3719,1.2301,47
15.612,301,5.7726,-1.2927,-9.1084,-1.439,1.4121,-0.2474,75,14.998,289,7.461,4.7994,-10.9873,-2.0243,-0.2836,0.6276,88,15.492,299,13.5327,4.3468,-11.6255,-1.5677,0.6007,0.9507,70,15.321,295,12.7725,1.3387,-14.1524,-0.0198,-1.7981,0.2745,40,80656.914,1559720,-1.8189,-1.1179,-11.1704,-0.436,-0.2473,1.5735,47
15.663,302,1.7079,-1.8555,-7.0232,-1.0817,1.4807,-0.6349,75,15.05,290,7.966,3.3784,-11.2835,-2.1574,-0.1911,0.5522,88,15.544,300,7.2442,2.1193,-13.477,-1.318,1.1166,1.0987,70,15.373,296,10.8335,2.037,-12.0,-0.6915,-1.8431,0.8807,40,80656.966,1559721,-1.2082,-0.8003,-10.8218,-0.6607,-0.1525,1.8241,47
15.715,303,6.3038,-0.3541,-9.4676,-1.129,1.3948,-0.6863,75,15.102,291,7.9768,2.2066,-12.6759,-2.0613,0.2815,0.3106,88,15.596,301,7.1245,-0.748,-13.9337,-1.5131,1.0746,0.7767,70,15.424,297,9.4616,1.1502,-10.376,-0.822,-1.9272,1.2459,40,80657.017,1559722,2.6444,3.2296,-5.3348,-1.0149,-0.0609,2.007,47
15.767,304,3.7787,0.5889,-10.4802,-0.9637,0.3487,-1.044,75,15.154,292,7.9011,1.892,-13.5693,-1.09,0.5484,0.1486,88,15.648,302,7.4252,-1.9171,-13.1813,-1.2145,0.6435,0.3953,70,15.476,298,8.7846,1.6528,-10.1285,-0.2864,-0.7429,1.5894,40,80657.069,1559723,5.6663,4.9751,-4.1857,-0.3578,0.5147,1.5762,47
15.818,305,7.8152,2.4031,-10.9523,-1.0238,-0.4148,-1.2528,75,15.206,293,8.7013,1.6104,-11.5269,-0.9931,0.0564,0.3626,88,15.699,303,8.0359,-1.5488,-13.2759,-0.97,0.3056,0.1801,70,15.528,299,9.07,3.6946,-10.8537,-0.4332,0.1427,1.7646,40,80657.121,1559724,2.2156,8.9622,-1.9846,0.4125,1.0643,0.8655,47
15.871,306,10.2204,2.4359,-14.1564,-1.3607,0.0971,-0.6104,75,15.258,294,8.8091,1.6042,-12.52,-1.4045,-0.0754,0.6989,88,15.752,304,7.9602,-2.7542,-12.9554,-0.7024,0.0106,-0.0888,70,15.58,300,9.6048,4.6466,-12.3604,-0.9932,0.7891,1.9255,40,80657.173,1559725,2.0974,7.133,-2.3815,0.9749,1.4655,-0.0444,47
15.922,307,12.4962,1.4712,-13.3675,-0.3187,0.7533,0.0604,75,15.309,295,8.1298,1.5177,-11.6042,-0.9841,-0.0813,0.6073,88,15.803,305,8.1347,-2.1376,-13.0739,-0.2681,-0.2723,-0.3309,70,15.632,301,10.8834,4.8198,-13.9811,-1.402,1.2609,2.004,40,80657.224,1559726,2.1288,5.4553,-2.9885,1.3854,1.7582,-0.7085,47
15.974,308,11.8292,0.9614,-9.9616,0.3963,1.2322,0.4392,75,15.361,296,7.4334,1.2065,-10.9021,-1.0614,-0.1447,0.5372,88,15.855,306,7.7542,-2.7362,-12.9613,-0.4362,-0.4214,-0.1887,70,15.683,302,10.2047,5.426,-17.3185,-1.7003,1.6052,2.0654,40,80657.276,1559727,1.2894,4.1156,-4.765,0.3333,1.2809,-1.1931,47
16.026,309,5.6187,0.6095,-5.3115,0.568,1.5678,0.9813,75,15.413,297,7.0882,1.3341,-10.6082,-1.3419,-0.1997,0.4506,88,15.907,307,7.9442,-2.8625,-12.8856,-0.3489,-0.7517,-0.1744,70,15.735,303,7.0968,5.1391,-20.621,-1.918,1.3548,1.5631,40,80657.328,1559728,0.7229,3.1055,-5.9673,-0.4346,0.9185,-1.5469,47
16.077,310,3.1347,1.1003,-4.2569,1.0889,1.8096,1.0645,75,15.465,298,6.5087,1.2583,-10.3827,-1.4018,-0.1197,0.267,88,15.958,308,10.6191,-3.127,-14.4934,-0.5397,-1.222,0.0926,70,15.787,304,7.6733,0.9812,-23.0313,-0.8917,0.9201,0.5264,40,80657.379,1559729,0.3119,2.3573,-6.8279,-0.9951,0.6388,-1.805,47
16.129,311,0.689,6.193,-11.1034,1.1609,0.9378,0.6674,75,15.516,299,7.1384,1.2722,-10.1211,-1.3541,-0.1985,0.0016,88,16.01,309,13.016,-4.102,-13.8697,-1.0676,-1.5653,0.3839,70,15.839,305,4.1713,3.3038,-24.0744,-1.3279,0.5774,0.4997,40,80657.431,1559730,-0.0023,1.8152,-7.4568,-1.4041,0.4221,-1.9934,47
16.181,312,-3.9373,9.9098,-9.1737,1.5217,0.9506,0.0109,75,15.568,300,7.5152,1.0281,-10.0606,-1.2944,-0.2013,-0.1839,88,16.062,310,10.9742,-4.7825,-13.715,-1.2099,-1.3889,0.6363,70,15.891,306,4.489,1.371,-22.1574,-0.3197,0.5294,-0.0368,40,80657.483,1559731,-2.5086,-3.933,-2.8789,-1.4574,0.1506,-2.131,47
16.233,313,0.3846,9.8637,-9.4714,0.4814,0.0245,-0.6672,75,15.62,301,8.9621,1.3067,-10.0317,-1.6092,-0.547,0.0126,88,16.114,311,8.6293,-3.909,-12.6554,-1.0697,-0.949,1.0741,70,15.942,307,5.5927,0.9941,-19.4161,0.2593,0.4315,-0.345,40,80657.535,1559732,-1.6329,0.7833,0.4623,-1.2528,0.614,-2.2313,47
16.285,314,5.338,2.0496,-14.4972,-0.326,-0.6413,-0.4396,75,15.672,302,10.1521,1.4702,-11.1722,-1.8545,-0.5718,0.2496,88,16.166,312,8.5653,-0.9221,-11.6361,-0.6693,-0.0233,1.4058,70,15.994,308,6.0742,1.318,-16.3306,0.4048,0.2426,-0.3833,40,80657.586,1559733,-1.3973,1.2242,-1.7411,-0.3081,1.1368,-2.3046,47
16.336,315,8.9532,1.3101,-11.9933,-0.8857,0.2143,0.3544,75,15.723,303,9.5254,1.3903,-12.0526,-1.6759,-0.071,0.0944,88,16.217,313,9.9983,1.23,-11.4195,-1.0261,0.6613,1.6653,70,16.046,309,6.8788,0.7007,-15.0042,0.0459,-0.1854,-0.2773,40,80657.638,1559734,-0.7321,1.258,-3.3113,0.409,1.5184,-2.358,47
16.388,316,8.0174,1.034,-9.451,-0.167,0.8389,0.4341,75,15.775,304,8.323,1.4444,-12.2716,-1.4347,0.2261,0.0125,88,16.269,314,10.6705,2.3206,-11.6,-1.4047,1.161,1.6567,70,16.098,310,6.4964,-0.6497,-15.7909,-0.3916,-0.4768,-0.1763,40,80657.69,1559735,4.8241,6.2492,-10.4423,0.9592,0.783,-1.3855,47
16.44,317,6.8158,1.37,-5.6652,-0.4874,1.2947,0.3746,75,15.827,305,7.1339,1.4822,-12.0232,-1.2519,0.2287,0.0682,88,16.321,315,10.6304,1.6039,-12.9029,-1.5603,1.5257,1.5753,70,16.15,311,7.4004,0.5392,-14.4496,-0.0164,-0.8324,-0.282,40,80657.742,1559736,3.4858,5.4062,-9.1721,1.3666,-0.0916,-0.3355,47
16.492,318,6.0694,0.8009,-4.802,-0.3211,1.6273,0.2416,75,15.879,306,6.7806,1.6558,-11.6444,-1.2922,0.0252,0.2068,88,16.373,316,9.732,1.4468,-17.422,-1.7845,1.7919,1.4113,70,16.202,312,9.221,0.147,-14.5088,0.0583,-1.2743,-0.2187,40,80657.794,1559737,2.3822,4.7907,-8.3821,1.6456,-0.73,0.4308,47
16.544,319,2.986,3.3606,-7.5652,-0.0486,1.8701,-0.3017,75,15.931,307,8.1772,1.3034,-12.6571,-1.1176,0.1567,0.2304,88,16.425,317,12.3686,-1.001,-18.7935,-0.7699,0.6344,0.5813,70,16.253,313,11.8472,-0.2357,-13.8809,0.3826,-1.5969,0.2033,40,80657.845,1559738,1.5808,4.3347,-7.7922,1.8102,-1.1958,0.9901,47
16.595,320,-1.1073,4.3996,-11.9232,-0.6546,1.1981,-0.8953,75,15.982,308,8.476,1.0567,-12.4946,-0.4273,0.353,0.2138,88,16.476,318,5.8734,-4.1569,-19.5644,-0.7834,0.012,0.9593,70,16.305,314,10.2017,3.1283,-14.9093,-0.2133,-1.8322,0.8057,40,80657.897,1559739,1.004,4.0162,-7.3698,1.8918,-1.5359,1.3983,47
16.647,321,4.2491,-1.8329,-6.1109,0.0935,0.2051,-0.8223,75,16.034,309,8.9765,0.6939,-12.1898,-0.0588,0.4482,0.3159,88,16.528,319,6.3981,-4.4395,-18.3199,-0.9783,-0.0783,0.6983,70,16.357,315,8.0363,2.2755,-14.7526,-0.8327,-1.4648,1.2684,40,80657.949,1559740,0.6247,3.8001,-7.0646,1.9052,-1.784,1.6963,47
16.699,322,0.8803,-0.0444,-9.034,-0.4797,-0.3893,-0.2648,75,16.086,310,8.0223,1.1586,-11.7044,0.3328,0.4314,0.4034,88,16.58,320,6.4808,-4.8811,-16.9875,-0.5769,-0.2359,0.3411,70,16.409,316,7.798,2.3571,-12.3661,-0.6266,-0.6011,1.6061,40,80658.001,1559741,4.5796,6.7309,-2.7085,1.1501,-0.6134,1.568,47
16.751,323,5.6997,-5.2301,-14.5899,-1.0275,-0.9535,0.3549,75,16.138,311,8.5164,1.1671,-10.2141,-0.4024,-0.1438,0.7419,88,16.632,321,6.8106,-3.9937,-15.9599,-0.472,-0.2888,-0.0175,70,16.46,317,7.5196,3.7294,-11.3568,-0.8283,0.2462,1.8525,40,80658.052,1559742,3.2618,5.8963,-2.7039,0.287,0.241,0.4683,47
16.803,324,9.2172,-3.0927,-9.3195,-0.6476,-0.963,0.858,75,16.19,312,7.8838,1.6019,-11.2384,-0.9737,-0.2668,0.9854,88,16.684,322,7.3712,-3.4886,-14.7741,-0.1808,-0.3559,-0.1797,70,16.512,318,8.3388,4.4743,-11.7993,-1.0722,0.8647,1.864,40,80658.104,1559743,2.3238,5.2673,-2.6001,-0.3885,0.8645,-0.3343,47
16.854,325,9.5565,-5.2239,-4.2107,-0.605,-0.0204,1.3029,75,16.241,313,7.97,1.3331,-11.6722,-0.6189,0.0481,0.3416,88,16.735,323,7.5642,-3.2984,-13.3794,-0.347,-0.6617,-0.0771,70,16.564,319,11.2033,5.388,-16.4366,-1.3806,1.316,1.3528,40,80658.156,1559744,3.1667,2.4935,-9.8325,0.3903,-0.0321,0.3225,47
16.906,326,8.56,-5.3633,-0.482,0.2308,0.6675,1.6275,75,16.293,314,8.2203,1.0338,-11.7399,-0.3776,0.2749,-0.2742,88,16.787,324,9.059,-3.3084,-13.3008,-0.4153,-1.1563,0.2184,70,16.616,320,5.9922,5.4672,-19.9773,-0.3329,1.6455,0.8502,40,80658.208,1559745,2.1841,2.0643,-8.8698,0.9588,-0.6865,0.8527,47
16.958,327,8.9795,-3.8794,-0.9852,0.8429,1.1696,1.7423,75,16.345,315,8.0386,0.2814,-11.1784,-0.5336,0.4211,-0.7152,88,16.839,325,11.8774,-3.0947,-15.7687,-0.5645,-1.5173,0.809,70,16.668,321,9.4906,-1.3066,-16.6594,-0.9201,1.548,0.5176,40,80658.259,1559746,1.4932,1.7582,-8.352,1.3736,-1.1641,1.2447,47
17.01,328,8.3379,0.6017,-8.7156,1.0522,1.5361,0.8137,75,16.397,316,6.579,-0.3509,-10.3803,-0.8912,0.4747,-0.7917,88,16.891,326,8.6971,-3.5463,-14.6637,-1.0868,-1.3247,0.8919,70,16.719,322,12.044,-0.5526,-14.3125,-1.1507,0.463,-0.224,40,80658.311,1559747,0.9695,1.5331,-7.976,1.6764,-1.5127,1.5337,47
17.062,329,7.9727,3.8571,-14.3575,0.6474,0.4556,-0.0812,75,16.449,317,5.655,-0.2675,-9.6698,-1.0234,-0.0425,-0.5019,88,16.943,327,5.6035,-2.5513,-15.4829,-1.1007,-0.3213,0.9747,70,16.771,323,11.4073,-0.0205,-14.0116,-0.949,0.0922,0.0202,40,80658.363,1559748,0.5774,1.3699,-7.6853,1.8974,-1.7671,1.7472,47
17.113,330,10.8761,-2.3826,-7.8876,1.144,-0.1717,0.0387,75,16.501,318,9.0471,1.5882,-9.5585,-1.4269,-0.6497,0.1177,88,16.994,328,4.3784,-1.1288,-13.6587,-1.3974,0.4439,1.0486,70,16.823,324,10.6093,-0.4882,-13.7219,-0.9735,-0.0514,0.2248,40,80658.415,1559749,0.3254,1.2871,-7.5002,2.0587,-1.9528,1.9063,47
17.165,331,9.8478,-2.3413,-3.1656,0.1576,-0.7947,-0.2337,75,16.553,319,9.9099,1.1118,-11.6926,-1.6399,-0.194,-0.1206,88,17.046,329,5.0701,-0.0768,-13.109,-1.4748,1.0023,1.1964,70,16.875,325,9.8902,0.047,-13.2953,-0.6131,-0.0875,0.161,40,80658.466,1559750,4.6775,6.1676,-12.0284,0.8246,-1.1221,0.7152,47
17.217,332,9.1083,0.831,-10.3069,-0.5624,-1.2493,-0.8015,75,16.604,320,8.9137,2.0516,-11.2851,-1.3433,0.2592,-0.487,88,17.098,330,6.5562,1.1683,-12.828,-1.7181,1.4099,1.379,70,16.926,326,9.5679,-0.0866,-12.7446,-0.3847,-0.2133,0.1299,40,80658.518,1559751,2.2824,5.1429,-9.7662,-0.076,-0.1303,-0.154,47
17.269,333,11.0801,-4.5912,-6.8391,0.211,-0.2792,-0.6565,75,16.656,321,7.9626,1.7264,-11.0196,-1.6604,0.168,-0.5451,88,17.15,331,8.5271,1.0952,-14.8653,-1.9292,1.7073,1.3806,70,16.978,327,9.6061,0.5912,-12.3366,-0.36,-0.6166,0.1899,40,80658.57,1559752,0.5731,4.5601,-7.9839,-0.7333,0.5936,-0.7885,47
17.321,334,11.6774,-3.4102,-3.2691,0.0051,0.4786,0.1663,75,16.708,322,7.1438,2.2326,-11.4793,-1.8919,0.181,-0.3873,88,17.202,332,10.1097,-1.3853,-18.8543,-1.8275,1.9245,1.1285,70,17.03,328,10.1565,-0.0207,-12.3374,-0.2931,-1.1168,0.2482,40,80658.622,1559753,-0.4405,4.0454,-7.0422,-1.2131,1.1219,-1.2515,47
17.372,335,9.5197,-4.2586,-1.9806,0.2211,1.0317,0.7064,75,16.76,323,7.552,2.2474,-12.4329,-1.8281,0.3052,-0.2912,88,17.253,333,12.6443,-1.0869,-11.1766,-0.6572,0.7588,0.8645,70,17.082,329,12.5299,-0.8085,-13.2712,-0.4212,-1.4819,0.3757,40,80658.673,1559754,-0.1073,2.7219,-8.2242,-0.2115,1.4671,-0.5087,47
17.424,336,7.2116,-3.8037,-3.1978,0.8358,1.4354,1.0709,75,16.812,324,7.3855,2.2091,-13.0226,-1.0237,0.6034,-0.5084,88,17.306,334,13.2408,-2.2057,-11.1174,-0.9832,0.2875,1.1511,70,17.134,330,12.1913,1.1258,-12.9977,-0.4917,-1.7483,0.8585,40,80658.725,1559755,-0.167,1.9407,-7.998,0.5195,1.7149,0.0314,47
17.476,337,5.25,-3.3025,-7.0368,1.2662,1.7301,1.4582,75,16.863,325,8.7691,2.2121,-12.4887,-0.6222,0.6293,-0.6046,88,17.357,335,13.5902,-2.0115,-11.9948,-0.9506,-0.3577,0.8562,70,17.185,331,8.9827,1.0228,-13.4029,-0.9999,-1.3033,1.0711,40,80658.777,1559756,-0.2235,1.3722,-7.8056,1.053,1.8874,0.4243,47
17.528,338,4.4911,-1.662,-13.1323,1.5985,0.6379,1.3678,75,16.915,326,8.8546,1.5611,-11.4897,-0.596,0.508,-0.5731,88,17.409,336,12.5021,-2.2866,-11.7156,-0.7984,-0.5694,0.6252,70,17.237,332,8.4078,0.2757,-10.9488,-1.4069,-0.5402,1.2918,40,80658.829,1559757,-0.2639,0.9683,-7.6663,1.4424,2.0017,0.7087,47
17.579,339,0.9096,-0.139,-17.581,0.96,0.1341,1.3379,75,16.967,327,9.542,1.057,-9.6465,-0.9832,-0.047,-0.315,88,17.461,337,11.8094,-2.2758,-11.8136,-0.7681,-0.694,0.4396,70,17.289,333,7.7498,-0.4437,-10.3578,-0.9705,0.2907,1.2097,40,80658.88,1559758,-0.2869,0.6856,-7.5602,1.7266,2.0726,0.9148,47
17.631,340,2.5024,-0.1416,-19.0158,0.0251,-0.5714,0.6017,75,17.019,328,9.716,0.7371,-9.9888,-0.9423,-0.2107,0.007,88,17.513,338,11.194,-2.4538,-11.9518,-0.6212,-0.7181,0.2974,70,17.34,334,8.1111,-0.7953,-10.9171,-0.3068,0.8971,1.0403,40,80658.932,1559759,-4.6077,4.405,-13.5433,0.7761,0.8496,-0.0084,47
17.683,341,6.8836,5.2866,-13.5451,-0.6569,-1.0864,0.0243,75,17.071,329,9.1632,0.9057,-9.6073,-0.5781,-0.4595,0.4262,88,17.564,339,10.5305,-2.3115,-12.2728,-0.5246,-0.7521,0.1984,70,17.392,335,9.6614,-0.4381,-11.8401,0.0848,1.3397,0.8049,40,80658.984,1559760,-5.4533,1.1788,-10.3872,0.0784,-0.043,-0.6822,47
17.735,342,10.0813,-1.3393,-13.3165,-0.9218,-0.1717,0.5627,75,17.122,330,8.8964,1.4075,-9.6405,-0.1613,-0.4654,0.7046,88,17.616,340,10.0447,-2.224,-12.4645,-0.3998,-0.8017,0.1121,70,17.444,336,12.1686,0.1548,-15.6134,-0.6152,1.6628,1.0608,40,80659.036,1559761,-4.1393,-0.9047,-8.4361,-0.4136,-0.6945,-1.174,47
17.787,343,12.415,-1.7213,-9.2433,-0.4911,0.5571,0.8916,75,17.174,331,8.023,2.1731,-9.5465,0.2658,-0.3483,0.6888,88,17.668,341,10.0975,-2.4089,-12.1831,-0.2765,-1.0536,0.0041,70,17.496,337,9.3514,1.0341,-17.7047,-0.7859,1.8929,0.7795,40,80659.087,1559762,-2.9971,-2.3285,-7.2722,-0.6499,-1.17,-1.5329,47
17.838,344,9.6148,-4.3915,-7.3607,-0.7412,1.089,1.3274,75,17.226,332,7.6696,2.755,-9.2755,0.5119,-0.2909,0.4327,88,17.72,342,10.4684,-2.3051,-12.3306,-0.261,-1.4424,0.0793,70,17.548,338,6.5729,1.3468,-19.5316,-0.6251,0.8362,0.3432,40,80659.139,1559763,-2.6022,-1.6871,-5.1995,-1.1522,-0.3636,-0.9697,47
17.89,345,5.2518,-3.6488,-6.7723,0.0873,1.4772,1.6454,75,17.278,333,7.0284,3.263,-9.0254,0.4533,-0.2718,0.1132,88,17.771,343,12.8425,-2.8498,-13.5248,-0.5588,-1.7261,0.5502,70,17.599,339,6.9262,2.2758,-22.2362,0.0083,0.4104,-0.3415,40,80659.191,1559764,-1.7146,-1.1349,-5.5763,-1.5188,0.2124,-0.5612,47
17.942,346,1.9272,-0.6,-8.8234,0.7381,1.7606,1.6729,75,17.33,334,6.8361,3.2272,-9.1533,0.0733,-0.2673,-0.2283,88,17.823,344,12.2573,-3.6805,-13.3043,-1.083,-1.8422,0.8349,70,17.651,340,2.1895,1.822,-21.181,-0.6046,-0.0535,-0.224,40,80659.243,1559765,-1.0673,-0.7341,-5.8447,-1.7864,0.6308,-0.2635,47
17.994,347,0.9554,3.6868,-13.1221,1.0406,0.7115,0.6761,75,17.381,335,7.4511,3.4665,-9.442,-0.1465,-0.5017,-0.5151,88,17.875,345,10.5207,-2.6708,-12.4622,-1.458,-1.3221,1.0343,70,17.703,341,3.8092,1.8406,-19.5974,-0.6021,-0.1766,-0.1018,40,80659.294,1559766,-0.5891,-0.4407,-6.0357,-1.9816,0.9354,-0.047,47
18.046,348,-1.1583,7.4561,-17.4461,0.2331,-0.15,-0.1817,75,17.433,336,10.358,4.4411,-9.5222,-0.7869,-0.9516,-0.4176,88,17.927,346,9.3103,-1.6572,-11.3333,-1.7393,-0.6305,1.2994,70,17.755,342,4.8036,1.2587,-17.3382,-0.7577,-0.2508,0.0026,40,80659.346,1559767,-0.2457,-0.2228,-6.1793,-2.1242,1.1555,0.1103,47
18.097,349,-6.3777,5.0746,-13.5138,0.6782,0.5729,-0.8077,75,17.485,337,9.369,2.0839,-10.9227,-1.2544,-0.2931,-0.9911,88,17.979,347,8.5419,-0.7388,-11.4867,-1.0933,0.1947,1.3438,70,17.807,343,5.9568,0.4784,-16.0172,-0.3734,-0.2875,-0.1276,40,80659.398,1559768,-5.4109,0.7727,-12.5355,-2.1706,1.241,-0.5956,47
18.149,350,0.4026,3.8035,-15.5816,1.061,-0.2512,-1.2646,75,17.537,338,9.5082,2.9611,-10.8677,-1.106,0.1308,-1.4053,88,18.03,348,8.6806,0.687,-11.4637,-0.3135,0.8204,1.2949,70,17.859,344,6.9381,0.6015,-14.7325,0.0236,-0.2797,-0.2367,40,80659.45,1559769,-7.1916,-0.2934,-15.7638,-1.7291,1.5944,-1.1107,47
18.201,351,5.3511,3.2168,-13.711,0.097,-0.0442,-0.3925,75,17.589,339,7.5229,2.5161,-10.9469,-1.4494,0.1774,-1.2937,88,18.082,349,9.787,1.4481,-12.0202,-0.0309,1.2771,1.0575,70,17.91,345,7.5668,0.5985,-13.9435,0.2007,-0.2931,-0.2,40,80659.501,1559770,-4.9613,1.4665,-12.8384,-1.067,1.8523,-1.4867,47
18.253,352,8.9628,-1.3842,-13.8748,-0.5607,0.6488,0.3902,75,17.641,340,7.2036,2.4982,-11.3471,-1.1982,0.1219,-1.0161,88,18.134,350,11.6753,1.2076,-12.8961,-0.193,1.6105,0.7274,70,17.962,346,7.9795,0.619,-13.0004,0.2711,-0.4289,-0.1385,40,80659.553,1559771,-3.4553,2.7432,-10.7105,-0.6674,2.0406,-1.7611,47
18.305,353,8.4879,-2.6786,-8.9322,0.2652,1.156,0.9599,75,17.692,341,7.071,3.2488,-11.7649,-0.6975,0.3971,-0.7324,88,18.186,351,12.7828,-0.6088,-13.6593,0.2423,1.8537,0.2538,70,18.014,347,7.7108,-0.2931,-13.4088,0.0148,-0.7003,-0.0742,40,80659.605,1559772,-7.7534,0.1161,-15.8425,-1.137,0.8262,-1.9121,47
18.357,354,7.0102,-3.1994,-5.9342,-0.2125,1.5261,1.3772,75,17.744,342,6.8586,3.6296,-11.4914,-0.352,0.3377,-0.4197,88,18.238,352,10.8928,-0.7533,-15.7581,0.6921,1.8937,0.0144,70,18.066,348,8.5848,0.2781,-13.1114,0.0094,-1.0392,-0.1023,40,80659.657,1559773,-6.1432,-0.7071,-12.1656,-1.5077,-0.0601,-2.0716,47
18.408,355,5.6182,0.2746,-6.8033,0.5193,1.7962,1.539,75,17.796,343,6.9096,3.782,-11.2387,-0.2287,0.3594,-0.1887,88,18.289,353,7.4922,-2.681,-18.3724,0.8966,1.1027,-0.0356,70,18.117,349,9.5353,0.43,-13.1586,0.0995,-1.4252,-0.085,40,80659.708,1559774,-4.9641,-1.326,-9.5448,-1.7782,-0.7069,-2.188,47
18.46,356,2.7315,5.5903,-11.0523,0.7132,1.9934,0.5474,75,17.848,344,7.3588,3.7051,-10.9122,-0.1778,0.2917,-0.2636,88,18.341,354,6.625,-2.4778,-21.4139,0.6678,0.2374,0.2058,70,18.169,350,12.0766,0.2814,-13.2448,0.2343,-1.7069,-0.0398,40,80659.76,1559775,-4.0558,-1.809,-7.6531,-1.9757,-1.179,-2.2729,47
18.512,357,1.2229,7.36,-16.0629,-0.1569,0.9748,-0.2756,75,17.9,345,9.0051,3.3947,-9.8548,-0.7374,-0.1091,0.109,88,18.393,355,8.6599,-3.2119,-17.8279,0.4581,-0.4133,0.4658,70,18.221,351,11.2187,2.1842,-13.2433,0.5099,-1.7699,0.2713,40,80659.812,1559776,-3.354,-2.1767,-6.2872,-2.1198,-1.5236,-2.3349,47
18.564,358,-4.2899,3.6965,-19.72,-0.4833,0.38,0.3169,75,17.951,346,9.5398,2.5592,-9.7499,-1.1949,-0.4613,0.7059,88,18.445,356,9.0726,-3.3445,-16.5388,0.218,-0.5736,0.3969,70,18.273,352,8.598,2.1061,-12.9215,0.1433,-1.4976,0.5097,40,80659.864,1559777,-2.8251,-2.4478,-5.3119,-2.225,-1.7751,-2.3802,47
18.615,359,-0.5817,4.3054,-20.8327,0.1018,-0.392,-0.2767,75,18.003,347,9.5091,2.7842,-9.8085,-0.465,-0.6306,1.1088,88,18.497,357,9.2282,-2.9545,-15.3555,-0.1897,-0.566,0.424,70,18.325,353,8.1272,1.3483,-11.1792,-0.5697,-0.7137,0.6773,40,80659.915,1559778,-1.5529,-1.3517,-6.2259,-1.5242,-1.6921,-1.0615,47
18.667,360,4.6327,8.4047,-15.6538,-0.3415,-0.9554,-0.7018,75,18.055,348,9.8679,3.0357,-9.0629,0.1172,-0.8224,1.4491,88,18.549,358,9.255,-2.4905,-14.1732,-0.2473,-0.5381,0.3272,70,18.376,354,7.8106,0.7422,-11.1913,-0.9414,0.164,0.8063,40,80659.967,1559779,-2.2048,-0.1291,-6.6897,-0.4385,-0.5463,-0.099,47
18.719,361,6.3783,0.9364,-14.351,-0.4134,-0.6413,0.1644,75,18.107,349,9.1342,3.0364,-9.4853,-0.0072,-0.8318,1.6543,88,18.601,359,9.1715,-2.5311,-13.4234,-0.0791,-0.5876,0.2137,70,18.428,355,8.0349,-0.1261,-11.5559,-0.7129,0.8047,0.8313,40,80660.019,1559780,-1.9013,-0.482,-6.9932,0.3538,0.29,0.6034,47
18.771,362,8.1088,-2.4038,-11.4756,0.3727,0.2144,0.7966,75,18.159,350,8.1422,2.8904,-9.3873,0.1844,-0.5992,1.4237,88,18.652,360,9.2923,-2.4787,-13.1204,0.2965,-0.7286,0.0976,70,18.48,356,9.3547,0.2321,-12.724,0.0438,1.2723,0.5445,40,80660.071,1559781,3.9707,-5.6096,-13.1295,0.5953,0.5445,1.1161,47
18.823,363,3.4336,-3.9231,-6.81,0.4883,0.8389,1.2581,75,18.21,351,6.9581,2.8926,-9.4512,0.5671,-0.3253,0.9288,88,18.704,361,9.6171,-2.0729,-12.6008,0.2131,-0.9829,0.1431,70,18.532,357,8.9798,-1.5069,-17.2677,0.6542,1.6135,0.0486,40,80660.122,1559782,2.6501,-4.5008,-11.129,-0.2434,-0.2657,0.1385,47
18.874,364,-0.757,-5.6653,-6.3156,1.029,1.2091,1.5948,75,18.262,352,7.5132,2.741,-9.8426,1.0856,-0.0562,0.2508,88,18.756,362,10.1313,-2.0652,-12.7962,0.2027,-1.3908,0.1249,70,18.583,358,6.3304,-0.9437,-20.193,1.1522,1.2838,-0.6349,40,80660.174,1559783,1.6369,-3.69,-10.2688,-0.8555,-0.857,-0.575,47
18.926,365,-1.7162,-6.3175,-7.2398,1.4254,1.0242,1.8406,75,18.314,353,7.7361,1.6269,-10.5894,1.4641,0.2308,-0.3725,88,18.807,363,12.66,-1.3078,-13.0807,0.0951,-1.6885,0.2771,70,18.635,359,9.7375,-5.8956,-19.5567,0.1638,0.5835,0.1309,40,80660.226,1559784,0.9137,-3.0987,-9.6295,-1.3023,-1.2886,-1.0957,47
18.978,366,-2.4755,-3.8605,-11.4931,1.7147,0.3139,2.02,75,18.366,354,7.6311,1.4645,-10.2525,1.5591,0.2418,-0.5267,88,18.859,364,14.5049,-2.4385,-11.9798,-0.4479,-1.9057,0.1782,70,18.687,360,4.4327,-2.1171,-18.6492,0.7565,0.8203,-0.0183,40,80660.278,1559785,0.4046,-2.6664,-9.1699,-1.6283,-1.6035,-1.4757,47
19.03,367,0.1354,-0.0197,-15.1212,1.9258,-0.4402,1.3094,75,18.418,355,7.3862,1.2208,-10.3609,1.2601,-0.0466,-0.3001,88,18.911,365,12.4318,-0.5199,-10.4593,-0.0474,-1.5754,-0.1248,70,18.739,361,6.5594,-0.2241,-17.2344,0.5186,0.3486,0.2225,40,80660.329,1559786,0.057,-2.3471,-8.8498,-1.8663,-1.8334,-1.7531,47
19.082,368,2.9215,0.3129,-17.3309,0.7802,0.1428,1.6323,75,18.47,356,9.2309,2.4726,-9.825,1.2174,-0.703,0.1094,88,18.963,366,10.0573,0.0124,-8.8858,-0.1861,-0.6512,-0.5862,70,18.791,362,6.475,-0.1935,-15.6184,-0.18,0.1352,0.5586,40,80660.381,1559787,5.3999,-3.2975,-3.8956,-1.5428,-1.9,-1.7988,47
19.133,369,1.6247,4.5196,-20.6453,-0.108,-0.5651,1.0335,75,18.521,357,9.4556,2.6725,-10.3166,0.8511,-0.7246,0.3597,88,19.015,367,8.7913,0.0471,-9.3958,-0.4731,0.2031,-0.8464,70,18.842,363,7.1655,-0.2992,-14.9917,-0.0345,-0.0046,0.5184,40,80660.433,1559788,3.0636,2.9147,-0.2798,-0.4521,-2.0498,-1.1746,47
19.185,370,6.243,0.8938,-15.6488,0.5157,-1.0818,0.0792,75,18.573,358,9.3644,3.2541,-9.7165,0.5964,-0.8549,0.4339,88,19.066,368,8.5573,-0.341,-10.5288,-0.6008,0.8266,-0.7765,70,18.894,364,7.6127,-0.1686,-14.5762,-0.1658,-0.0178,0.5232,40,80660.485,1559789,1.9949,2.5437,-0.5157,0.3439,-2.1591,-0.2728,47
19.237,371,9.6137,-2.2864,-9.9081,-0.301,-0.8845,0.1852,75,18.625,359,8.3603,3.096,-8.6923,-0.2448,-1.0307,0.6024,88,19.118,369,10.1409,-1.0003,-13.0038,0.2069,1.2816,-0.913,70,18.946,365,8.2438,-0.6854,-13.6318,0.1253,-0.0414,0.4107,40,80660.537,1559790,1.1997,2.26,-0.6532,0.9249,-2.2389,0.3913,47
19.289,372,9.3305,-4.8667,-4.6403,-0.8292,0.0366,0.4121,75,18.677,360,7.9981,2.9121,-9.103,-0.8587,-0.8978,0.5955,88,19.17,370,12.6671,-1.8293,-15.6418,0.8275,1.6137,-1.3258,70,18.998,366,8.3976,-0.0095,-12.885,0.2186,-0.1544,0.4233,40,80660.588,1559791,0.5822,2.032,-0.7315,1.3489,-2.2971,0.8827,47
19.34,373,8.877,-5.5847,-2.4273,-0.2016,0.7092,0.6841,75,18.729,361,8.7799,3.321,-10.3546,-0.6247,-0.1505,0.2204,88,19.222,371,10.5479,-2.0162,-16.9563,1.1396,1.3718,-1.018,70,19.05,367,8.6568,-0.09,-12.2883,0.296,-0.5297,0.4281,40,80660.64,1559792,1.8927,4.0393,1.1277,1.4973,-2.3365,1.3199,47
19.392,374,7.2872,-4.0687,-4.6024,0.4774,1.2,1.1229,75,18.78,362,9.3278,3.2686,-11.5241,-0.0168,0.5692,-0.4742,88,19.273,372,10.8064,-1.3037,-14.6889,0.7737,0.3278,-0.456,70,19.101,368,8.8041,-0.0545,-12.9851,0.4758,-0.9198,0.3634,40,80660.692,1559793,1.2122,3.4378,-1.4059,1.5348,-2.3683,1.639,47
19.444,375,4.2643,-0.8076,-8.5985,1.0226,1.4691,1.015,75,18.832,363,9.4595,2.8242,-12.1664,0.1722,0.877,-0.9249,88,19.325,373,9.7712,-5.1777,-15.796,0.6826,-0.4154,0.2086,70,19.153,369,10.741,1.8753,-13.3925,0.8544,-1.1385,0.2622,40,80660.744,1559794,0.7466,3.0144,-3.2917,1.5401,-2.3916,1.8719,47
19.496,376,0.3831,4.3669,-11.8542,0.8413,0.9758,0.0657,75,18.884,364,9.6887,0.714,-12.2662,-0.096,0.7082,-0.3273,88,19.377,374,7.7919,-4.9502,-14.6844,0.3569,-0.0677,0.6731,70,19.205,370,10.9805,2.0095,-13.2603,1.2983,-1.2709,-0.2242,40,80660.796,1559795,0.4286,2.7194,-4.6658,1.5173,-2.4086,2.0419,47
19.548,377,-2.8355,5.7515,-14.9106,-0.0633,0.0428,-0.6272,75,18.936,365,9.1318,-0.4425,-12.3711,-0.081,0.9459,0.3145,88,19.429,375,9.069,-3.586,-14.2059,0.3828,-0.0807,0.5897,70,19.257,371,11.2244,3.3862,-13.8116,1.6222,-1.5808,-0.5171,40,80660.847,1559796,0.2122,2.5023,-5.6774,1.4775,-2.421,2.166,47
19.6,378,-7.6018,-1.0,-18.8789,0.2078,0.7137,-0.6689,75,18.988,366,9.4107,0.2513,-12.8727,0.6126,0.6577,0.8949,88,19.481,376,8.8075,-3.0375,-13.5929,0.1525,-0.0574,0.5852,70,19.308,372,11.4193,2.3496,-12.0113,0.5069,-1.5832,-0.5142,40,80660.899,1559797,-0.6009,3.2679,-5.9015,1.7522,-2.4275,2.2565,47
19.651,379,-0.4909,-4.1212,-15.6339,0.7679,0.0101,-0.7629,75,19.039,367,10.3535,0.8514,-10.8012,1.0227,-0.1283,1.3185,88,19.532,377,9.1253,-2.2593,-13.0382,0.1385,-0.204,0.4764,70,19.36,373,11.1621,-1.6906,-9.7469,-0.3071,-0.8228,-0.5823,40,80660.951,1559798,4.2404,3.2913,-5.2785,1.9527,-2.4348,2.3226,47
19.703,380,4.699,0.1793,-13.4893,0.0,0.6779,0.1198,75,19.091,368,9.4114,1.4549,-11.0515,0.5853,-0.351,1.6277,88,19.584,378,8.9245,-2.041,-12.6654,0.049,-0.4101,0.4614,70,19.412,374,11.0877,-1.9252,-8.3589,0.4505,0.0845,-0.9389,40,80661.002,1559799,3.0414,2.6758,-5.7739,2.099,-2.4401,2.1835,47
19.755,381,8.4868,1.709,-10.906,0.6744,1.1772,0.4537,75,19.143,369,8.1651,1.4654,-10.4771,0.6368,-0.479,1.3401,88,19.636,379,9.0298,-1.7366,-12.8889,0.1244,-0.766,0.4185,70,19.464,375,12.3217,-1.3964,-9.733,1.0035,0.7466,-1.3554,40,80661.054,1559800,2.1471,2.3157,-6.0786,2.2059,-2.444,2.0822,47
19.807,382,6.528,-2.4767,-8.8195,0.6187,1.5416,0.5375,75,19.195,370,7.3018,1.5323,-9.774,1.0103,-0.3413,0.6254,88,19.688,380,9.3518,-1.516,-13.132,0.0722,-1.0936,0.3548,70,19.516,376,12.259,-5.1011,-13.8069,1.4071,1.2299,-1.6594,40,80661.106,1559801,0.8814,1.8986,-6.012,2.2838,-1.2483,1.7411,47
19.859,383,-0.6234,-5.2076,-8.8269,1.0274,1.8075,0.6139,75,19.247,371,7.0712,2.1603,-9.4794,1.2672,-0.159,-0.0724,88,19.74,381,11.002,-0.9986,-13.3704,-0.0143,-1.4544,0.3161,70,19.567,377,7.0297,-8.221,-18.0581,1.7016,1.5819,-1.5085,40,80661.158,1559802,0.5766,1.4852,-6.1292,2.3407,-0.3903,1.4884,47
19.91,384,-5.9873,-6.1105,-14.4387,1.2861,1.7106,0.8623,75,19.299,372,7.2185,2.1191,-9.3835,1.4936,-0.0089,-0.6519,88,19.791,382,13.2955,-2.1132,-13.617,-0.2467,-1.7349,0.2708,70,19.619,378,9.999,-11.2968,-19.8312,0.5648,0.7424,-0.6696,40,80661.21,1559803,0.3497,1.1831,-6.1879,2.3822,0.2267,1.3016,47
19.962,385,-7.4251,-4.3748,-18.5345,1.4214,0.5791,0.7483,75,19.35,373,7.1109,2.1719,-9.0124,1.2233,-0.1911,-0.7552,88,19.843,383,12.2594,-3.0283,-12.4428,0.1486,-1.9396,-0.2277,70,19.671,379,7.5834,-5.7114,-18.084,0.7198,0.2172,-0.3901,40,80661.261,1559804,0.208,0.9512,-6.2555,2.4125,0.6657,1.1621,47
20.014,386,-0.3656,-0.3239,-10.9362,0.7809,0.173,0.8981,75,19.402,374,7.8341,1.677,-9.5622,1.1343,-0.4769,-0.9365,88,19.895,384,9.4053,-3.4252,-12.1759,0.7659,-1.4949,-0.803,70,19.723,380,9.0146,-3.4112,-16.9813,0.3723,0.1061,0.1028,40,80661.313,1559805,-5.0798,0.954,-2.0021,1.5258,0.4546,0.785,47
20.066,387,4.7905,5.1535,-12.8656,-0.1075,-0.5431,0.166,75,19.454,375,9.8072,1.6975,-11.1219,0.8606,-0.5208,-0.9489,88,19.947,385,6.8856,-2.6338,-11.0397,0.8525,-0.451,-1.258,70,19.774,381,9.2743,-3.0895,-15.9039,0.1423,-0.2073,0.293,40,80661.365,1559806,-2.0768,-4.5616,-1.8918,0.5162,-0.3312,0.4481,47
20.118,388,8.5536,2.0493,-12.1527,0.5408,0.286,-0.5471,75,19.506,376,10.0079,0.929,-11.2541,0.9868,-0.7288,-1.365,88,19.999,386,6.6228,-2.7147,-10.7302,0.5689,0.3492,-1.4618,70,19.826,382,8.6121,-1.057,-14.6498,0.0343,-0.2733,0.492,40,80661.417,1559807,-1.5459,-3.2477,-2.6505,-0.3011,-0.9048,0.2127,47
20.169,389,11.3001,-1.7008,-11.4837,0.6934,0.7249,0.2773,75,19.558,377,9.9409,0.1341,-10.4074,0.3989,-0.7798,-1.2733,88,20.051,387,7.7362,-3.7053,-11.8458,0.5997,0.9332,-1.3969,70,19.878,383,7.9707,-0.847,-14.529,0.0277,-0.2745,0.5093,40,80661.468,1559808,-1.2219,-2.1714,-3.0449,-0.8976,-1.3234,0.0344,47
20.221,390,8.0369,-2.9945,-7.5032,1.1792,1.2115,0.4893,75,19.609,378,9.2431,0.0959,-10.5685,-0.2493,-0.6824,-1.0608,88,20.102,388,9.7574,-5.0704,-14.1012,1.1142,1.3594,-1.6684,70,19.93,384,8.9894,-0.1282,-13.246,0.6799,-0.4736,0.304,40,80661.52,1559809,-0.4575,-1.4884,-2.6854,0.0159,-1.4639,-0.6509,47
20.273,391,4.6092,-4.7801,-6.3218,1.535,1.5351,0.6588,75,19.661,379,8.3898,-0.4804,-11.0495,-0.453,-0.1947,-0.6542,88,20.154,389,9.8253,-8.551,-17.6152,1.4897,1.6705,-1.8688,70,19.982,385,8.8063,0.6106,-12.6668,0.1899,-0.9259,0.4118,40,80661.572,1559810,0.2151,-1.2166,-4.3628,0.6848,-1.5432,-1.1511,47
20.325,392,0.2007,-7.3963,-10.0498,1.7521,1.221,1.1575,75,19.713,380,8.1382,0.8882,-11.6723,0.3411,0.224,-0.2943,88,20.206,390,9.1177,-1.3024,-13.361,1.7638,0.5458,-1.5926,70,20.033,386,9.9184,1.2255,-12.0015,0.5475,-1.3425,0.2904,40,80661.624,1559811,0.7313,-1.0057,-5.5828,1.1736,-1.5721,-1.5162,47
20.376,393,-2.4805,-7.1693,-13.199,1.9532,0.2218,1.5214,75,19.765,381,8.9194,0.9665,-12.7337,0.9207,0.5966,-0.1588,88,20.258,391,11.1901,-6.1705,-17.7563,0.9003,-0.1483,-0.4846,70,20.085,387,11.0392,2.5499,-12.8191,1.0743,-1.4684,-0.0133,40,80661.675,1559812,1.1126,-0.8472,-6.4747,1.5305,-1.5571,-1.7827,47
20.428,394,-4.6938,-5.5056,-7.0421,2.0999,-0.5074,1.5955,75,19.817,382,7.7156,0.6562,-12.6783,1.3288,1.0417,0.0353,88,20.309,392,9.4659,-4.6605,-17.8723,0.8913,-0.7776,-0.282,70,20.137,388,10.3821,2.3965,-12.4756,0.9761,-1.1002,-0.6453,40,80661.727,1559813,1.4133,-0.7089,-7.1104,1.7909,-1.5162,-1.9771,47
20.48,395,-5.2155,-2.5822,-7.9483,1.1723,-0.9194,1.0673,75,19.868,383,9.5866,1.0,-13.4198,1.6415,0.4529,0.1359,88,20.361,393,9.3252,-2.1452,-16.4117,0.6086,-0.6748,-0.0947,70,20.188,389,10.0967,-0.8286,-10.7869,0.0611,-0.3203,-1.0998,40,80661.779,1559814,-0.3525,4.8137,-13.215,1.0115,-0.8165,-2.1191,47
20.532,396,1.2508,-2.4766,-12.8562,1.5299,-1.3404,0.1039,75,19.92,384,9.9574,2.2939,-13.1488,1.8698,0.3625,0.5162,88,20.413,394,9.2379,-1.4135,-14.2482,0.3556,-0.7163,0.0623,70,20.24,390,10.4439,-2.5744,-9.825,0.7193,0.4512,-1.4741,40,80661.831,1559815,0.0801,3.3269,-10.8729,0.0604,0.0927,-1.42,47
20.583,397,5.2432,-1.3871,-11.6897,0.5073,-0.2958,0.7447,75,19.972,385,9.0648,1.898,-11.4607,1.6898,-0.1075,0.7206,88,20.465,395,9.0499,-1.5507,-13.4177,0.2497,-0.9367,0.1557,70,20.292,391,10.7387,-2.0271,-9.4251,1.1623,1.0143,-1.5086,40,80661.882,1559816,0.2324,2.2947,-9.2638,-0.6338,0.7563,-0.8594,47
20.635,398,7.3796,-3.2961,-9.3625,0.133,0.4665,1.2202,75,20.024,386,7.5662,1.8433,-11.757,1.5719,0.1114,0.4794,88,20.517,396,9.2278,-0.5935,-13.8228,0.3718,-1.0544,0.1405,70,20.344,392,11.8598,-1.9157,-10.7544,0.5776,1.4252,-1.0106,40,80661.934,1559817,5.528,-3.5831,-14.7867,-0.1266,0.24,-0.1363,47
20.687,399,2.6569,-5.0021,-5.9079,-0.0043,1.0169,1.425,75,20.076,387,7.1037,3.0284,-10.7177,1.6958,0.0494,0.019,88,20.568,397,9.3882,-0.8341,-13.3888,0.2283,-1.1368,0.2268,70,20.396,393,9.9599,-3.8487,-15.8302,1.0962,1.7252,-1.2556,40,80661.986,1559818,3.9887,-2.1716,-10.6918,0.5815,-0.488,0.3938,47
20.739,400,-0.1793,-6.2639,-4.9438,0.459,1.1906,1.7167,75,20.127,388,6.5329,2.9472,-10.7715,1.7904,0.2331,-0.2706,88,20.62,398,9.7331,-1.5643,-12.8356,0.3717,-1.5031,-0.1673,70,20.447,394,6.6605,-5.1974,-18.0957,1.4748,0.9246,-0.9455,40,80662.037,1559819,2.7712,-1.1045,-7.5557,1.0983,-1.0192,0.7894,47
20.791,401,-3.2418,-7.0256,-6.2879,1.0094,1.1422,1.9296,75,20.179,389,7.581,3.9294,-11.2738,1.9784,0.1813,-0.5267,88,20.672,399,12.3694,-0.6665,-12.7385,0.0498,-1.7704,-0.2057,70,20.499,395,7.6152,-2.1009,-21.1882,0.3993,0.5409,-0.2316,40,80662.089,1559820,1.9014,-0.3128,-5.275,1.4754,-1.407,1.0844,47
20.842,402,-4.7253,-7.816,-7.2896,1.4111,0.8816,2.0843,75,20.231,390,7.4065,4.5052,-11.3759,2.1157,0.1355,-0.5831,88,20.724,400,12.8144,-3.7969,-11.4061,-0.0544,-1.9655,-0.8169,70,20.551,396,1.4493,0.6631,-20.356,0.9661,0.1281,-0.1852,40,80662.141,1559821,1.2724,0.2762,-3.605,1.7507,-1.6899,1.3076,47
20.894,403,-2.457,-5.1096,-9.8223,1.057,-0.0259,1.2764,75,20.283,391,7.4427,3.89,-9.752,1.0232,-0.4368,-0.2633,88,20.776,401,8.9233,-5.9522,-13.1822,0.6368,-1.1019,-1.2702,70,20.603,397,4.2545,1.9497,-17.5004,1.0206,-0.1618,-0.0233,40,80662.193,1559822,0.8279,0.7335,-2.3902,1.9516,-1.8965,1.4766,47
20.946,404,3.264,-4.051,-15.1238,0.7802,-0.5111,0.9927,75,20.335,392,10.3066,3.6898,-11.3129,0.7098,-0.857,-0.0079,88,20.827,402,7.0688,-4.6463,-11.0239,1.1044,-0.1674,-1.6011,70,20.655,398,4.561,2.6148,-15.323,0.3597,-0.2373,0.2703,40,80662.245,1559823,-4.1354,-4.7225,-6.4256,2.0983,-2.0472,1.6086,47
20.997,405,2.279,-3.6414,-19.0345,1.2438,-1.0424,0.6004,75,20.386,393,9.7832,1.0484,-10.7278,1.1898,-0.7245,-0.6919,88,20.879,403,5.8033,-6.7349,-10.0498,0.8807,0.5562,-1.8426,70,20.706,399,5.5213,2.034,-14.4565,0.4164,-0.4483,0.2902,40,80662.296,1559824,-6.4268,-8.7045,-12.3728,1.8273,-2.1572,1.4859,47
