right_hand_timestamp,right_hand_index,right_hand_accel_x,right_hand_accel_y,right_hand_accel_z,right_hand_gyro_x,right_hand_gyro_y,right_hand_gyro_z,right_hand_battery_percentage,left_hand_timestamp,left_hand_index,left_hand_accel_x,left_hand_accel_y,left_hand_accel_z,left_hand_gyro_x,left_hand_gyro_y,left_hand_gyro_z,left_hand_battery_percentage,right_leg_timestamp,right_leg_index,right_leg_accel_x,right_leg_accel_y,right_leg_accel_z,right_leg_gyro_x,right_leg_gyro_y,right_leg_gyro_z,right_leg_battery_percentage,ball_timestamp,ball_index,ball_accel_x,ball_accel_y,ball_accel_z,ball_gyro_x,ball_gyro_y,ball_gyro_z,ball_battery_percentage
0.256,4,2.6898,-8.7324,-13.9742,-0.172,-0.4489,-0.4682,76,0.778,15,6.6638,-2.6655,-10.6887,-0.9402,0.2798,-0.2837,85,0.198,3,8.3395,-1.2899,-12.8023,0.4797,0.8814,0.7277,75,84794.671,1639725,4.6119,-0.3213,-9.328,2.0079,-0.9049,2.1656,47
0.308,5,2.7632,-10.3045,-15.1398,-0.5078,-0.049,-0.5103,76,0.83,16,8.4127,-2.5362,-10.0756,-0.9028,-0.0122,-0.3343,85,0.25,4,8.6566,-1.3847,-12.6798,0.3232,0.746,0.7629,75,84794.723,1639726,7.6123,-0.9565,-9.6747,1.7238,0.0278,1.3919,47
0.359,6,2.0573,-10.6742,-14.5021,-0.5222,0.3162,-0.5193,76,0.882,17,7.2911,-3.6931,-9.7124,-0.5444,0.2342,-0.5796,85,0.301,5,9.8634,-1.2009,-12.583,0.2913,0.6892,0.6685,75,84794.774,1639727,8.7162,1.1023,-9.6182,1.2573,0.6703,0.3398,47
0.411,7,1.0217,-9.4966,-13.8721,-0.3263,0.3884,-0.5365,76,0.933,18,9.5257,-3.3932,-10.0447,-0.3794,0.0101,-0.2773,85,0.353,6,9.6379,-1.2659,-12.627,0.3086,0.6441,0.5306,75,84794.826,1639728,6.2214,1.3656,-9.6067,0.8111,0.9986,-0.428,47
0.463,8,0.8295,-8.7394,-13.5452,-0.1717,0.2917,-0.5178,76,0.985,19,8.9677,-2.5202,-9.9276,-0.1202,0.0558,-0.6218,85,0.405,7,9.748,-0.9639,-12.5031,0.3023,0.496,0.4725,75,84794.878,1639729,4.3765,1.4906,-9.6023,0.4677,1.2398,-0.9885,47
0.515,9,0.9282,-8.171,-13.7956,-0.0338,0.3742,-0.3782,76,0.067,1,2.9592,7.2439,-14.6317,0.1928,-0.2167,0.6069,85,0.457,8,9.6539,-0.9037,-11.9395,0.1173,0.4335,0.4947,75,84797.257,1639775,-6.7154,4.5827,-4.9475,0.2209,-0.7306,-0.073,47
0.567,10,1.338,-8.3708,-14.3249,-0.0512,0.5258,-0.2607,76,0.119,2,4.3345,7.9341,-14.9257,0.2757,-0.5011,0.2918,85,0.509,9,10.1502,-0.9612,-12.3334,-0.1046,0.0504,0.4951,75,84797.309,1639776,-6.037,4.0556,-5.2834,0.1597,-0.5477,-0.1709,47
0.618,11,1.8119,-10.1911,-14.8299,0.2906,0.524,-0.0754,76,0.17,3,3.6678,8.9625,-15.2793,0.2707,-0.6553,-0.2301,85,0.56,10,10.587,0.4514,-12.5623,-0.4611,0.0628,0.3262,75,84797.36,1639777,-5.7255,5.1454,-4.1776,0.2712,-0.5053,-0.085,47
0.67,12,2.0476,-11.5904,-14.3205,0.8789,0.4099,0.3869,76,0.222,4,3.9869,9.9184,-16.4175,0.1628,-0.915,-0.8543,85,0.612,11,10.1513,0.5852,-11.8293,-0.097,0.0684,-0.1515,75,84797.412,1639778,-7.45,5.8091,-3.2431,0.5876,-0.5507,0.2201,47
0.722,13,1.4439,-12.1762,-14.4202,1.3158,0.3596,0.959,76,0.274,5,2.9406,8.6259,-16.1301,0.2172,-1.0175,-1.2936,85,0.664,12,9.6868,0.4634,-11.1513,0.5953,0.1468,-0.5364,75,84797.464,1639779,-9.3577,6.9634,-2.1332,0.8905,-0.4593,0.4406,47
0.774,14,1.2551,-12.549,-13.0266,1.6347,0.3039,1.3766,76,0.326,6,1.0734,7.6644,-15.7356,0.3872,-1.1554,-1.3457,85,0.716,13,9.417,0.2319,-11.4668,0.9446,0.2914,-0.7153,75,84797.516,1639780,-10.0343,8.1,-1.5854,0.9279,-0.0541,0.3131,47
0.825,15,0.14,-11.3425,-11.8565,1.8675,0.5552,1.6813,76,0.378,7,1.3478,7.0096,-15.0341,0.2813,-1.5043,-1.227,85,0.768,14,8.5256,0.057,-12.355,0.5566,0.3463,-0.6867,75,84797.568,1639781,-9.8777,8.4502,-1.1083,1.082,0.46,0.0467,47
0.877,16,-0.8462,-10.1908,-10.8531,2.0373,0.6985,1.9037,76,0.429,8,3.2891,5.7821,-13.6607,0.0513,-1.0413,-1.0121,85,0.819,15,9.2653,-0.1049,-8.8379,-0.0894,0.2912,-0.1398,75,84797.619,1639782,-8.7848,7.779,-2.181,1.2063,1.0244,-0.1601,47
0.929,17,-2.3348,-8.7343,-10.5603,2.1613,0.7671,2.0661,76,0.481,9,4.2658,4.5571,-13.0858,0.001,-0.0809,-0.4828,85,0.871,16,10.7571,-1.7445,-6.7676,-0.521,0.1888,-0.018,75,84797.671,1639783,-6.8233,6.0926,-3.6777,1.1856,1.4363,-0.3279,47
0.981,18,-2.6009,-4.8917,-11.9854,2.2518,0.0687,1.6249,76,0.533,10,4.8339,5.0239,-13.1926,0.0401,0.62,0.1416,85,0.923,17,10.4899,-3.3314,-8.6581,-0.2617,-0.2178,0.052,75,84797.723,1639784,-5.0078,4.5621,-5.056,1.0137,1.737,-0.5311,47
1.033,19,-0.2412,-2.0024,-12.5667,1.4524,-0.6192,1.0686,76,0.585,11,4.9809,5.7445,-14.2501,0.0691,1.1316,0.7624,85,0.975,18,9.9787,-2.9346,-9.7792,-0.1747,-0.2258,0.042,75,84797.775,1639785,-3.6204,3.4577,-6.1109,0.8749,1.9564,-0.6945,47
1.084,20,-0.943,-1.6721,-12.4963,0.9592,-1.1213,0.1177,76,0.637,12,5.7737,5.5427,-14.4653,-0.5597,1.505,1.2218,85,1.026,19,10.0427,-2.238,-10.3746,-0.1105,-0.2393,-0.0062,75,84797.826,1639786,-0.2928,0.932,-6.4897,0.7366,2.0351,-0.3203,47
1.136,21,-1.678,-4.5248,-10.1252,0.9561,-1.4877,-0.5892,76,0.688,13,8.9122,5.4655,-14.8465,-0.0585,1.7775,1.5571,85,1.078,20,9.7622,-1.923,-11.0384,-0.0255,-0.2143,-0.0568,75,84797.878,1639787,2.8626,-1.9019,-6.4523,0.9129,1.7255,-0.3682,47
1.188,22,3.8329,-1.612,-11.0057,0.6872,-1.7551,-1.1051,76,0.74,14,9.0166,5.592,-14.8104,0.4187,1.9764,1.7634,85,1.13,21,9.4974,-1.9613,-11.4893,0.1061,-0.0794,-0.275,75,84797.93,1639788,5.0084,-0.1016,-5.2626,1.329,1.5141,-0.7311,47
1.499,28,0.6527,-5.2602,-4.5577,0.8096,0.8515,0.647,76,1.051,20,7.9604,4.0443,-9.4293,0.0066,0.6749,1.3564,85,1.441,27,12.3444,0.095,-12.9274,-0.4512,-0.5105,-1.6908,75,84798.24,1639794,2.6181,-1.8996,-8.8578,0.7733,-0.165,-1.084,47
1.551,29,4.4709,-9.0368,-0.7353,1.2653,1.1483,0.0288,76,1.103,21,6.0997,5.5055,-8.7181,-0.0282,0.442,0.7741,85,1.493,28,10.731,-3.4771,-11.6644,0.3472,-0.7316,-1.2834,75,84798.292,1639795,1.9518,-1.4055,-9.1033,0.6667,-0.3349,-1.0152,47
1.603,30,-1.5737,-3.7134,-8.1752,0.5584,0.6154,-0.5075,76,1.155,22,7.7861,5.8793,-9.7847,-0.7006,-0.1486,-0.0926,85,1.544,29,9.6847,-3.8081,-10.8699,0.2449,-0.1775,-0.2651,75,84798.344,1639796,1.8678,-1.3834,-7.6274,0.5689,-0.2575,-0.8235,47
1.654,31,-0.8774,-3.7749,-6.879,-0.0091,-0.2202,-1.0409,76,1.207,23,10.4343,4.5215,-10.0726,-1.1914,-0.4999,-0.754,85,1.596,30,9.6156,-2.2506,-10.9068,0.1618,0.4474,0.4843,75,84798.396,1639797,6.6981,0.4537,-6.5614,0.6618,-0.0468,-1.249,47
1.706,32,-2.8497,-3.2856,-5.7114,0.0921,-0.83,-1.4348,76,1.258,24,11.2169,0.6411,-10.4095,-1.5495,-0.4311,-1.2314,85,1.648,31,8.7504,0.0765,-12.5562,-0.1214,0.8292,1.0312,75,84798.447,1639798,10.247,1.7742,-4.9266,1.0444,0.3726,-1.5876,47
1.758,33,2.9778,-4.5031,-12.1649,-0.6102,-0.5234,-0.8658,76,1.31,25,11.0405,-2.8193,-11.1304,-1.8109,-0.2273,-0.9509,85,1.7,32,7.6827,5.4077,-17.1689,-0.3757,0.2369,0.8849,75,84798.499,1639799,8.8193,6.4972,-5.7388,1.3553,0.6923,-1.8348,47
1.81,34,6.4599,-1.7946,-8.7947,0.2079,0.3004,0.0156,76,1.362,26,10.5694,-4.2481,-11.0298,-1.3223,-0.1669,-0.5508,85,1.752,33,7.7406,1.4159,-10.3677,-0.6115,-0.5005,0.8059,75,84798.551,1639800,6.8146,5.0209,-6.5447,1.663,0.9128,-2.0152,47
1.861,35,5.3864,-2.12,-6.9141,-0.2118,0.9017,0.688,76,1.414,27,10.3909,-4.9099,-10.9743,-0.822,-0.1107,-0.3229,85,1.804,34,10.9152,2.0889,-10.7021,-0.3308,-0.6628,0.6184,75,84798.603,1639801,5.3182,3.8367,-7.1282,1.8876,1.0939,-2.1468,47
1.913,36,2.6648,-2.592,-6.0878,-0.1744,1.333,1.0326,76,1.466,28,9.3149,-3.8714,-9.9338,-0.4094,-0.0509,0.0989,85,1.855,35,10.2879,1.0261,-11.1146,-0.1735,-0.3017,0.3687,75,84798.654,1639802,4.0206,3.4125,-7.7031,1.6343,0.4687,-0.8911,47
1.965,37,1.7797,-2.6946,-6.1505,0.2997,1.6549,1.3483,76,1.518,29,10.0583,-3.1836,-9.5505,0.1228,-0.0673,0.4932,85,1.907,36,10.0997,0.6683,-11.1703,-0.0798,-0.1659,0.1368,75,84798.706,1639803,2.7688,2.9561,-8.1272,1.4295,0.0163,0.0253,47
2.017,38,-0.0395,-1.2469,-4.5689,0.8931,1.8862,1.3573,76,1.569,30,9.5059,-1.8082,-8.8595,0.4854,0.0328,0.7464,85,1.959,37,10.07,0.563,-10.9942,0.0008,-0.1004,-0.1903,75,84798.758,1639804,1.9244,2.6371,-8.5174,1.2637,-0.3118,0.6942,47
2.069,39,-2.3916,0.3479,-3.1351,1.3262,2.059,0.8919,76,1.621,31,8.3284,-0.0169,-8.6201,0.8579,0.2738,0.6667,85,2.011,38,10.887,-0.3633,-10.7786,-0.0359,-0.416,-0.7323,75,84798.81,1639805,1.3326,2.3965,-8.8098,1.1298,-0.548,1.1823,47
2.12,40,-3.0269,-0.0894,-4.221,1.0126,1.6635,0.204,76,1.673,32,6.455,0.9381,-8.9181,0.5911,0.4196,0.4524,85,2.062,39,13.2116,-1.1415,-10.2765,-0.4578,-0.9337,-1.1037,75,84798.861,1639806,0.9242,2.2238,-9.0217,1.0151,-0.7145,1.5386,47
2.172,41,-1.9618,-1.2759,-11.0772,0.4649,0.913,-0.4614,76,1.725,33,5.9465,1.8278,-9.029,0.2461,-0.0344,0.269,85,2.114,40,12.671,-0.143,-9.9083,-0.7709,-1.3549,-1.4511,75,84798.913,1639807,0.6469,2.0966,-9.1728,0.9185,-0.831,1.7986,47
2.224,42,-0.0111,-0.5273,-13.5898,0.499,-0.003,-0.9663,76,1.777,34,9.2599,1.2517,-9.1588,-0.3923,-0.0049,0.111,85,2.166,41,10.1191,-1.3574,-9.6669,-0.5899,-1.058,-1.0384,75,84798.965,1639808,2.9198,-1.5464,-10.3667,0.9228,-0.8887,1.9884,47
2.276,43,-0.7503,1.4428,-10.9517,-0.1261,-0.6715,-1.3804,76,1.828,35,10.3192,-1.1739,-8.9653,-0.9507,-0.2869,-0.3341,85,2.218,42,8.6713,-0.2222,-9.4494,-0.6287,-0.6278,-0.1338,75,84799.017,1639809,3.6902,-5.5135,-11.7886,1.0717,-0.9691,1.3695,47
2.328,44,4.51,-4.1447,-14.2679,-0.7694,-1.1594,-0.6291,76,1.88,36,10.1212,-1.6756,-9.0629,-1.2441,-0.2059,-0.2834,85,2.27,43,7.972,1.3333,-9.5526,-0.8208,-0.1823,0.5801,75,84799.069,1639810,4.3558,-7.0707,-12.7639,0.8151,-0.6928,0.5905,47
2.379,45,7.2553,-2.5585,-9.2688,-0.0748,-0.1638,-0.214,76,1.932,37,9.9501,-1.3486,-9.3098,-1.4027,-0.2257,-0.1559,85,2.321,44,8.2032,2.7904,-9.8164,-0.9797,0.1966,1.1011,75,84799.12,1639811,3.1431,-4.9686,-11.9711,0.3883,-0.4321,-0.2451,47
2.431,46,6.0409,-3.3873,-7.2679,-0.732,0.5629,0.151,76,1.984,38,8.8673,-0.9884,-9.261,-1.6945,-0.0862,-0.1448,85,2.373,45,8.722,3.2301,-10.0436,-1.1645,0.4959,1.481,75,84799.172,1639812,2.2341,-3.3822,-11.3904,0.0741,-0.243,-0.8549,47
2.483,47,2.6895,-4.3126,-6.3786,-0.8495,1.0932,0.2139,76,2.036,39,8.5108,-1.467,-9.5534,-1.7775,0.0565,-0.0752,85,2.425,46,9.3743,2.8849,-10.3238,-1.4228,0.8137,1.7309,75,84799.224,1639813,-1.6469,-1.6508,-16.26,-0.1716,-0.5928,-0.3815,47
2.534,48,1.8514,-4.7472,-6.8926,-0.8332,1.1698,0.2604,76,2.087,40,8.3585,-2.0078,-9.7533,-1.7569,0.224,-0.0298,85,2.477,47,9.5568,3.817,-11.2168,-1.7137,0.9593,1.9194,75,84799.275,1639814,-1.1526,-1.0698,-14.2362,-0.3738,-0.9181,0.0021,47
2.586,49,0.4699,-3.8492,-6.6585,-0.2271,1.3781,0.2237,76,2.139,41,8.2744,-2.1773,-10.1558,-1.1409,0.4524,-0.1237,85,2.529,48,9.7266,5.8818,-12.1622,-1.9259,0.6938,1.7089,75,84799.327,1639815,-0.7633,-0.6802,-12.9186,-0.5251,-1.1546,0.2809,47
2.638,50,0.1072,-2.4818,-6.4389,-0.307,1.6539,-0.2094,76,2.191,42,7.8274,-1.5663,-10.2451,-0.2042,0.5841,-0.4315,85,2.58,49,7.3137,-0.9442,-12.8054,-1.4806,1.1847,1.0643,75,84799.379,1639816,-0.483,-0.3997,-11.9602,-0.6382,-1.3249,0.4833,47
2.69,51,-1.2773,1.3277,-5.5518,0.4503,1.8822,-0.8257,76,2.243,43,6.4892,0.0548,-10.008,0.0158,0.6233,-0.6745,85,2.632,50,7.11,-0.7222,-12.3403,-0.7652,0.8091,0.5358,75,84799.431,1639817,-0.2851,-0.1982,-11.2627,-0.7244,-1.4473,0.6298,47
2.742,52,-4.5931,0.3185,-12.0485,-0.2946,1.5319,-0.9727,76,2.295,44,9.656,-0.673,-9.7746,-0.4049,0.4672,-0.5341,85,2.684,51,7.7667,-0.5843,-12.6143,-0.5256,0.5541,0.2199,75,84799.482,1639818,-1.1542,-2.3389,-14.813,-0.4405,-1.3208,0.4009,47
2.793,53,-2.3765,-0.5231,-12.0549,-0.0601,0.4487,-1.3571,76,2.346,45,9.9281,-3.2835,-9.1949,-0.4729,0.1371,-0.6744,85,2.736,52,8.3331,-0.6434,-12.2655,-0.26,0.4787,-0.0435,75,84799.534,1639819,-0.8837,-4.987,-16.1927,0.3524,-1.0247,0.0816,47
2.845,54,2.1569,3.4969,-16.7947,-0.7212,-0.3419,-1.6288,76,2.398,46,9.4044,-2.7615,-8.6542,-0.6283,0.1395,-0.2833,85,2.788,53,8.5432,-0.9285,-12.1733,-0.184,0.3834,-0.2333,75,84799.586,1639820,-0.989,-6.3071,-15.0027,0.9311,-0.5261,-0.1372,47
2.897,55,6.6318,2.1123,-14.6945,0.148,0.3957,-0.6972,76,2.45,47,9.5087,-2.523,-8.845,-0.1875,0.0814,0.1053,85,2.839,54,9.1538,-1.5815,-11.931,-0.1263,0.3072,-0.4899,75,84799.638,1639821,-0.1015,-3.9913,-9.2048,1.3534,0.3047,-0.5878,47
2.949,56,9.0099,1.666,-11.7693,0.7824,0.9712,0.0253,76,2.502,48,8.5429,-1.5824,-8.6303,-0.0574,0.2098,0.3196,85,2.891,55,9.5072,-1.8195,-11.3461,-0.0452,0.165,-0.7221,75,84799.689,1639822,0.5836,-2.319,-5.0807,1.6617,0.911,-0.9221,47
3.001,57,6.9225,0.8492,-9.3744,0.5058,1.3913,0.5388,76,2.554,49,8.5227,-0.9567,-8.3959,-0.0185,0.1618,0.5761,85,2.943,56,9.6002,-0.8161,-11.5854,-0.0689,0.0745,-0.9149,75,84799.741,1639823,5.7843,-5.731,-1.1447,0.874,1.3536,-0.8018,47
3.053,58,4.383,-0.7473,-9.083,0.9181,1.6977,0.4744,76,2.606,50,8.1824,-0.3071,-8.0861,-0.0829,0.2049,0.7402,85,2.995,57,9.6227,-0.1418,-11.6023,-0.137,-0.0636,-1.052,75,84799.793,1639824,4.3608,-3.8116,-1.6768,0.1346,1.6766,-1.1332,47
3.104,59,3.1529,-1.7595,-8.8968,1.0382,1.9214,0.5027,76,2.657,51,7.9146,0.045,-7.9813,-0.2946,0.1717,0.7675,85,3.047,58,10.1337,0.2751,-11.7087,-0.4278,-0.4598,-1.2058,75,84799.845,1639825,3.2558,-2.3897,-2.5575,-0.4236,1.9123,-1.3956,47
3.156,60,0.3682,-2.8835,-7.2943,0.6846,2.0848,0.7652,76,2.709,52,7.2038,0.5459,-8.1864,0.0893,0.2865,0.4013,85,3.098,59,12.574,-1.6077,-9.6747,-0.392,-0.7446,-1.4711,75,84799.896,1639826,2.4437,-1.3523,-3.1351,-0.8545,2.0843,-1.5828,47
3.208,61,-1.4834,-2.4756,-6.3983,0.7572,1.8855,0.5128,76,2.761,53,6.1974,1.0884,-8.5855,-0.0424,0.1093,-0.0671,85,3.15,60,11.9962,-1.994,-10.4777,-0.6924,-1.0792,-1.6376,75,84799.948,1639827,1.8432,-0.5788,-3.5379,-1.1885,2.2099,-1.7149,47
3.26,62,3.9323,-7.0045,-4.2895,-0.1247,1.5315,1.0398,76,2.813,54,6.9481,1.495,-9.2856,-0.3206,-0.1721,-0.3257,85,3.202,61,10.1753,-1.6934,-9.4451,-0.5828,-0.6976,-1.2015,75,84800.0,1639828,1.392,-0.0411,-3.8231,-1.456,2.3016,-1.8067,47
3.311,63,1.2556,0.0512,-11.1272,-0.1244,0.8466,0.6698,76,2.865,55,9.9909,1.8257,-9.4101,-0.5437,-0.5797,-0.9094,85,3.254,62,9.5715,-0.8689,-9.0421,-0.2386,-0.125,-0.5233,75,84800.052,1639829,0.5313,-2.3361,-4.7961,-1.1647,2.3684,-1.759,47
3.363,64,1.8234,-2.4193,-10.619,-0.0356,-0.0515,-0.1863,76,2.917,56,10.2963,-1.873,-9.015,-1.0414,-0.4062,-1.331,85,3.306,63,9.4648,-0.1156,-9.1693,0.2636,0.5197,0.2021,75,84800.103,1639830,-0.7345,-5.4915,-9.2345,-0.4712,1.6257,-0.7796,47
3.415,65,6.3884,0.4599,-15.5885,0.1799,-0.7069,-0.8111,76,2.968,57,9.5549,-2.6692,-8.9256,-0.8766,-0.2833,-1.0559,85,3.357,64,9.2213,0.3877,-9.2183,0.6511,0.8331,0.7568,75,84800.155,1639831,-3.0098,-6.6836,-10.5869,0.0328,0.5234,0.0866,47
3.467,66,9.3917,-1.7023,-12.1509,0.7799,0.1665,-0.3076,76,3.02,58,9.6736,-2.2772,-9.1863,-0.6214,-0.3529,-0.5896,85,3.409,65,9.9142,1.1943,-10.5478,0.7581,0.9881,1.2008,75,84800.207,1639832,-2.1561,-4.1305,-9.1474,0.6734,-0.2811,0.7389,47
3.519,67,7.0367,-2.4758,-9.1727,-0.0688,0.8039,0.4522,76,3.072,59,9.6195,-1.7049,-9.4621,-0.3655,-0.1614,-0.3682,85,3.461,66,10.2849,2.4857,-12.944,0.8868,1.1884,1.3461,75,84800.259,1639833,-1.5058,-2.255,-8.1496,1.1156,-0.8682,1.215,47
3.57,68,5.5207,-4.0135,-8.4301,0.2755,0.9999,1.0066,76,3.124,60,9.5055,-1.7766,-9.5601,0.0628,-0.0181,-0.2013,85,3.513,67,7.9043,7.1661,-17.452,0.7611,0.8204,1.0423,75,84800.31,1639834,-4.7379,3.6853,-3.3845,1.0828,0.055,1.0941,47
3.622,69,3.7597,-3.8676,-7.4781,0.7397,1.0458,1.4113,76,3.175,61,9.1634,-2.1012,-9.4649,0.2404,0.1474,0.0952,85,3.565,68,8.202,2.0526,-20.0674,0.7561,0.2578,0.4958,75,84800.362,1639835,-3.2787,2.5455,-3.8646,0.893,0.7288,0.9895,47
3.674,70,-0.1526,-2.7252,-5.3422,1.2142,1.4433,1.7067,76,3.227,62,9.4467,-2.5146,-9.5204,0.8291,0.293,0.1661,85,3.616,69,10.4201,1.9046,-18.8814,0.7811,-0.1563,0.0574,75,84800.414,1639836,-2.2752,1.7326,-4.0281,0.7603,1.2206,0.9126,47
3.726,71,-3.3398,-3.2222,-2.998,1.0543,1.3207,1.9223,76,3.279,63,8.5681,-1.8134,-9.4611,1.2769,0.6059,0.1365,85,3.668,70,10.0155,1.3686,-17.2206,0.6902,-0.1714,-0.3374,75,84800.466,1639837,-1.5668,1.1434,-4.1383,0.6697,1.5795,0.8573,47
3.777,72,-2.4533,-3.3775,-3.2401,1.4439,0.9261,2.0304,76,3.331,64,8.7507,-0.9716,-9.8134,1.6037,0.6429,-0.0167,85,3.72,71,10.0303,1.1337,-16.0727,0.51,-0.2777,-0.42,75,84800.518,1639838,-1.0597,0.7155,-4.2127,0.6095,1.8415,0.8169,47
3.829,73,-0.6673,-0.4883,-10.3612,1.7282,0.3469,1.5164,76,3.382,65,7.5679,0.1945,-9.8212,1.5969,0.6928,0.1015,85,3.772,72,9.8286,0.9374,-13.6788,0.2322,-0.0439,-0.522,75,84800.569,1639839,2.863,-3.8667,-11.1002,0.6838,2.0326,0.7585,47
3.881,74,-0.6474,0.1787,-15.5586,0.7231,-0.4162,1.069,76,3.434,66,7.2268,0.9588,-10.0499,1.718,0.6669,0.4466,85,3.823,73,11.0472,0.5863,-13.0132,0.0777,-0.3427,-0.9017,75,84800.621,1639840,2.8905,-3.4193,-10.7998,0.9257,2.1722,0.8636,47
3.933,75,2.2183,-0.7213,-10.3575,-0.0339,-0.9731,0.2219,76,3.486,67,8.089,0.9519,-9.9652,1.8345,0.5188,0.8622,85,3.875,74,13.3285,-2.1363,-11.8143,-0.612,-0.7371,-1.2509,75,84800.673,1639841,6.4613,-4.3268,-15.7141,0.5147,1.1923,1.0479,47
3.985,76,3.7581,-2.0988,-5.7953,-0.702,-1.3795,-0.5131,76,3.538,68,7.7585,1.9176,-9.0014,1.6178,0.3161,1.0286,85,3.927,75,10.4117,-1.264,-10.2247,0.2277,0.034,-1.587,75,84800.725,1639842,6.6605,-4.4953,-18.7161,-0.1611,0.2071,1.0949,47
4.036,77,7.8005,-6.7295,-5.2222,-0.2281,-0.3244,0.2976,76,3.59,69,9.0331,1.1103,-9.3651,1.0865,0.0242,1.3338,85,3.979,76,8.7379,-4.5949,-7.2993,0.2552,0.7016,-1.1329,75,84800.776,1639843,5.248,-2.9026,-14.6872,-0.7955,-0.5119,1.2242,47
4.088,78,8.6301,-5.5682,-4.8161,-0.0676,0.4456,0.8704,76,3.641,70,8.8167,1.9292,-8.5257,0.8827,-0.1405,1.176,85,4.031,77,8.8759,-5.079,-7.5051,0.8613,1.1904,-0.1491,75,84800.828,1639844,4.0422,-1.7618,-11.1533,-1.2584,-1.0367,1.3129,47
4.14,79,6.6481,-5.1254,-4.7558,-0.2612,1.0077,1.3119,76,3.693,71,8.9921,0.5225,-8.1785,0.5124,-0.2309,0.9314,85,4.083,78,10.7612,-2.8052,-11.0995,1.3051,1.5472,0.5689,75,84800.88,1639845,8.3085,-6.5437,-5.5768,-1.0276,-0.9546,1.0555,47
4.192,80,1.5165,-4.7455,-4.0356,0.0623,0.7809,1.4077,76,3.745,72,8.4128,-0.2132,-7.5196,0.5456,-0.2515,0.5923,85,4.134,79,11.374,0.4137,-16.1058,1.6291,1.6616,0.8165,75,84800.932,1639846,6.2485,-4.6084,-5.6555,-0.0921,-0.0081,0.4805,47
4.243,81,1.9838,-4.3755,-3.3978,0.3023,1.1898,1.4707,76,3.797,73,8.0139,-1.6305,-7.5205,0.6999,-0.1052,0.4055,85,4.186,80,8.418,4.9421,-14.1356,0.8467,0.6045,0.4586,75,84800.983,1639847,4.6646,-3.2159,-5.814,0.586,0.6828,0.0613,47
4.295,82,0.2576,-5.233,-2.5265,0.523,1.1842,1.6049,76,3.849,74,7.9132,-2.3497,-8.0435,1.1307,0.0907,0.2674,85,4.238,81,9.0657,4.5356,-13.1536,0.5908,0.6483,0.3021,75,84801.035,1639848,3.5134,-2.1788,-5.9406,1.0769,1.187,-0.2437,47
4.347,83,1.2353,-7.8986,0.7472,0.9664,1.5467,1.848,76,3.901,75,7.6465,-1.9372,-8.7321,1.497,0.1619,0.1278,85,4.289,82,9.4478,3.7239,-12.338,0.3901,0.3728,0.1654,75,84801.087,1639849,2.674,-1.4257,-6.0472,1.4301,1.555,-0.4655,47
4.399,84,0.506,-4.7636,-3.595,0.7388,1.5553,1.9567,76,3.953,76,7.3774,-0.8474,-9.3037,1.7643,0.2387,-0.0313,85,4.341,83,9.5902,2.5526,-12.0669,0.2712,0.2105,0.0912,75,84801.139,1639850,3.5408,-1.2905,-6.6738,1.7176,1.8236,-0.3185,47
4.451,85,-0.0822,-3.453,-7.3164,-0.0456,0.7785,1.9207,76,4.004,77,8.1657,-0.0746,-8.9042,1.3469,-0.3429,0.0813,85,4.393,84,9.3293,1.8766,-11.9075,0.0186,-0.0151,0.1385,75,84801.19,1639851,3.7286,-1.2252,-7.4861,1.8906,2.0196,-0.0082,47
4.503,86,-0.7867,-4.9616,-10.833,0.357,-0.1012,1.2377,76,4.056,78,8.8038,-1.2281,-8.2683,1.5196,-0.3627,-0.0588,85,4.445,85,9.1828,0.9665,-12.4115,0.01,-0.1687,0.0508,75,84801.242,1639852,6.877,-2.5114,-10.4854,1.4596,2.1468,0.4041,47
4.554,87,-0.6565,-4.8736,-12.5322,0.9225,-0.7432,0.4372,76,4.108,79,8.7497,-2.5749,-6.9134,1.6794,-0.3281,-0.0022,85,4.497,86,8.8777,0.5501,-13.162,0.1171,-0.2214,-0.1729,75,84801.294,1639853,9.4569,-2.8037,-14.0439,0.4873,1.8391,0.7109,47
4.606,88,4.5785,-0.6681,-7.7287,0.3846,-1.2117,0.2494,76,4.16,80,9.3781,-2.3152,-6.9785,1.7678,-0.0423,0.509,85,4.548,87,9.3154,0.2712,-13.0838,0.2203,-0.1408,-0.4155,75,84801.345,1639854,9.2104,-2.2161,-14.7478,-0.3222,0.7923,0.9895,47
4.658,89,8.3992,-4.4117,-6.8705,0.9551,-0.202,0.8573,76,4.212,81,9.2434,-1.4437,-7.3832,1.8738,0.1814,0.9907,85,4.6,88,9.6388,0.5021,-12.5868,0.1743,0.0933,-0.7052,75,84801.397,1639855,6.836,-1.2687,-12.4846,-0.913,-0.0848,1.3476,47
4.71,90,6.0823,-0.6513,-3.1235,1.1349,0.535,1.2894,76,4.263,82,9.0469,-0.4896,-8.2109,2.0393,0.3291,1.0761,85,4.652,89,10.629,0.0823,-11.9251,0.0937,-0.0308,-1.0578,75,84801.449,1639856,5.0977,-0.5908,-10.8398,-1.3442,-0.725,1.6074,47
4.762,91,6.7316,-4.0245,-4.5072,0.8908,0.4705,1.6177,76,4.315,83,8.8082,0.1337,-8.7058,2.008,0.3372,1.1053,85,4.704,90,13.0233,-0.9626,-9.7663,-0.1037,-0.3052,-1.446,75,84801.501,1639857,-1.511,4.8999,-5.348,-1.0352,-0.4873,1.1621,47
4.813,92,6.507,-4.0614,-5.2337,1.3153,0.9865,1.8573,76,4.367,84,8.1389,0.5999,-9.0023,1.9142,0.2421,1.1319,85,4.756,91,13.5229,-3.64,-10.0527,0.6009,0.0315,-1.7294,75,84801.553,1639858,-1.1984,3.6302,-6.4733,-1.342,0.2924,0.823,47
4.865,93,3.94,-5.165,-5.5376,1.4185,1.2868,2.0322,76,4.419,85,7.8165,1.7093,-9.1285,1.7009,0.0272,0.9549,85,4.807,92,11.8474,-4.7236,-10.1582,1.1151,0.6213,-1.8442,75,84801.604,1639859,-0.905,2.7955,-6.4502,-1.6573,0.9021,0.517,47
4.917,94,0.2293,-4.122,-4.729,1.6547,1.5141,2.1598,76,4.471,86,6.9662,2.5624,-8.7394,1.8088,-0.1957,0.3594,85,4.859,93,9.7669,-5.5409,-10.0589,0.7745,1.1318,-0.8832,75,84801.656,1639860,-0.696,2.1797,-6.4448,-1.8874,1.347,0.1478,47
4.969,95,-2.4285,-3.8883,-4.4424,1.3371,1.0455,2.253,76,4.522,87,8.1154,2.4727,-9.0069,1.8209,-0.6655,-0.424,85,4.911,94,11.1507,-6.4467,-13.3805,1.2418,1.5044,0.0331,75,84801.708,1639861,-0.5402,1.7116,-6.4401,-2.0554,1.6718,-0.1242,47
5.021,96,-2.8948,-3.4821,-7.9953,0.9522,0.1441,2.2039,76,4.574,88,8.8095,1.9659,-8.6358,1.6708,-0.9343,-0.9955,85,4.963,95,12.4993,-4.3345,-17.7705,1.5829,1.7572,0.7019,75,84801.76,1639862,-0.423,1.3637,-6.4626,-2.178,1.9088,-0.3213,47
5.072,97,0.3894,-7.7391,-8.3497,0.0176,-0.4259,2.2726,76,4.626,89,9.7961,0.3616,-7.9225,1.3505,-0.9363,-0.9531,85,5.015,96,10.1566,-0.5287,-20.9746,1.8318,1.59,0.703,75,84801.811,1639863,-0.3416,1.1132,-6.4941,-2.2675,2.0818,-0.4632,47
5.124,98,-2.6139,-2.0569,-7.7071,0.5195,-0.9399,1.6495,76,4.678,90,10.5752,-1.5376,-6.4518,1.3001,-0.7308,-0.6846,85,5.066,97,12.6785,-5.6229,-12.7241,1.798,1.2941,0.0047,75,84801.863,1639864,1.7724,6.1436,-2.362,-2.3171,1.8091,-0.0994,47
5.176,99,2.4063,-2.2941,-10.6047,0.9905,-1.3553,0.5288,76,4.73,91,9.737,-2.9438,-6.4039,1.5863,-0.0274,-0.2408,85,5.118,98,14.3114,-1.274,-11.934,1.3392,0.481,-0.1264,75,84801.915,1639865,4.3028,9.1538,-2.4111,-2.3623,1.0537,0.1384,47
5.228,100,6.8138,-6.8721,-10.7182,0.0455,-0.7896,1.0613,76,4.781,92,11.9666,-2.8251,-8.3646,1.8294,0.3611,0.4896,85,5.17,99,13.0267,0.7975,-9.8017,0.9143,0.0841,0.0175,75,84801.967,1639866,5.0513,8.3652,-3.9885,-1.8574,0.106,0.7767,47
5.279,101,8.6185,-4.7701,-8.0173,0.7076,0.1061,1.318,76,4.833,93,11.4169,-0.5114,-8.9041,2.0069,0.6447,1.0227,85,5.222,100,12.0979,0.8097,-10.7672,0.7777,-0.0312,-0.1011,75,84802.019,1639867,3.6807,6.405,-5.2169,-1.4469,-0.5857,1.2426,47
5.331,102,8.054,-5.6521,-7.3307,-0.0017,0.7599,1.6386,76,4.885,94,10.7041,0.6565,-9.245,1.9807,0.7233,1.2663,85,5.274,101,10.8722,1.42,-11.1722,0.8195,0.0503,-0.0604,75,84802.07,1639868,-2.5452,-0.5832,-8.7148,-1.7184,-1.0906,1.5826,47
5.383,103,5.8136,-4.8057,-6.2951,0.6524,1.2069,1.8725,76,4.937,95,9.3064,1.7255,-9.1524,2.1173,0.714,1.1239,85,5.325,102,10.8267,1.0896,-10.4041,0.8267,-0.2268,-0.1532,75,84802.122,1639869,-2.1478,-0.5266,-6.7766,-1.931,-0.2593,1.8307,47
5.435,104,2.5004,-1.5706,-4.9717,1.1024,1.4916,1.8178,76,4.989,96,7.722,3.4261,-8.5755,0.9603,0.3477,1.1023,85,5.377,103,12.7891,-1.6222,-8.6266,0.4348,-0.018,-0.667,75,84802.174,1639870,-0.753,-0.5562,-7.2343,-2.0872,0.4042,2.0118,47
5.487,105,0.3421,2.3834,-3.6221,0.969,1.0837,0.673,76,5.041,97,6.4736,4.1417,-8.0636,0.1998,0.1152,0.958,85,5.429,104,12.6,-2.2175,-7.8319,0.9939,-0.1314,-1.1608,75,84802.226,1639871,0.2475,-0.634,-7.5267,-2.2012,0.9282,2.144,47
5.538,106,0.4722,2.8888,-4.6566,0.0522,1.247,-0.1839,76,5.092,98,3.6797,4.2736,-7.0007,-0.5277,0.5743,0.6939,85,5.481,105,10.8335,-3.2429,-5.4613,0.589,0.5824,-1.4639,75,84802.277,1639872,0.9733,-0.7468,-7.7344,-2.2844,1.3446,2.2405,47
5.59,107,0.1233,5.361,-6.9921,-0.4767,1.5176,-0.8094,76,5.144,99,4.2789,2.7842,-7.4146,-1.0651,-0.1885,0.5044,85,5.533,106,6.4074,-5.7744,-6.8665,1.006,1.1034,-1.0528,75,84802.329,1639873,1.4919,-0.8861,-7.8835,-2.3451,1.6646,2.3109,47
5.642,108,2.4121,6.0301,-12.6148,-1.0253,0.4383,-1.2658,76,5.196,100,4.8079,0.5649,-8.1039,-1.4477,0.3624,0.5695,85,5.584,107,2.9872,-5.3028,-2.4274,0.6727,1.2721,-0.6096,75,84802.381,1639874,1.8252,-1.0479,-7.9772,-2.3895,1.9036,2.3623,47
5.694,109,6.818,4.0291,-14.7545,-1.4257,-0.3495,-1.599,76,5.248,101,8.4289,-2.4457,-9.5277,-1.2831,0.1405,0.5762,85,5.636,108,4.5866,-3.4636,-5.4023,0.2832,0.489,-0.3609,75,84802.433,1639875,2.035,-1.2177,-8.0375,-2.4195,2.078,2.3998,47
5.745,110,8.5122,4.4746,-10.1826,-0.7289,0.344,-1.4108,76,5.3,102,9.4847,-4.5846,-8.7503,-1.6032,0.0158,0.5288,85,5.688,109,5.8339,-0.1604,-6.1215,0.0067,-0.3165,-0.1053,75,84802.484,1639876,2.1367,-1.3911,-8.0726,-2.4278,2.2053,2.4272,47
5.797,111,11.2702,3.7689,-15.4282,-1.2094,-0.4182,-0.353,76,5.351,103,10.8364,-4.7284,-7.1666,-1.2959,-0.1339,0.3403,85,5.74,110,6.1849,-0.6118,-6.5329,-0.2831,-0.778,0.3755,75,84802.536,1639877,1.4037,0.1322,-10.6168,-1.7406,2.0268,2.4471,47
5.849,112,13.2831,1.5638,-13.2316,-0.2083,-0.9074,-0.4601,76,5.403,104,11.1425,-5.3791,-6.4281,-1.6258,0.1244,0.3198,85,5.791,111,7.8676,-1.3631,-4.2947,-0.8818,-0.2731,0.6878,75,84802.588,1639878,-1.1864,4.1874,-5.1852,-0.9486,2.1679,2.4617,47
5.901,113,13.56,-2.0768,-8.7524,0.5224,0.0201,-0.1182,76,5.455,105,10.2295,-5.9325,-6.2588,-1.8017,0.577,0.622,85,5.843,112,8.1311,-1.6154,-3.2386,-0.884,0.4501,1.1449,75,84802.639,1639879,-0.9946,2.5562,-5.2947,-0.212,2.2709,2.4724,47
5.953,114,9.1536,-1.5077,-5.9114,0.7621,0.6971,0.1947,76,5.507,106,10.8627,-5.4484,-7.7518,-1.8097,1.0903,1.115,85,5.895,113,8.2697,-0.8761,-5.0728,-0.8033,0.8016,1.5133,75,84802.691,1639880,-0.8645,1.3735,-5.4306,0.3524,2.3461,2.4801,47
6.005,115,4.438,-1.4515,-7.4972,0.2588,0.8872,-0.0775,76,5.559,107,9.8226,-4.2908,-10.9173,-1.4949,1.4749,1.2436,85,5.947,114,10.3055,2.1355,-9.4968,-0.9947,1.2457,1.533,75,84802.743,1639881,-0.7764,0.5393,-5.5425,0.7963,2.4009,2.4858,47
6.056,116,2.8467,0.6984,-8.825,0.8633,1.0767,-0.561,76,5.61,108,8.527,-5.1851,-13.4453,-0.8142,1.5474,1.1469,85,5.999,115,6.7014,3.7833,-13.0895,-0.901,1.4449,1.1297,75,84802.795,1639882,-1.8148,-0.0707,-2.9763,1.1375,2.441,2.4899,47
6.108,117,3.3051,1.8746,-8.587,0.0419,1.2542,-1.0845,76,5.662,109,7.0082,-5.0312,-14.0399,0.0775,1.5738,1.1084,85,6.051,116,10.1568,-1.6593,-6.9692,-0.0216,1.2539,0.1565,75,84802.846,1639883,-1.4821,-0.6744,-3.0498,1.4492,2.4702,2.493,47
6.16,118,3.0372,2.4065,-9.9348,-0.6181,0.3143,-1.4667,76,5.714,110,5.4504,-3.9767,-12.7512,0.7283,1.5268,1.1523,85,6.102,117,2.0887,-5.2276,-13.0913,0.3081,1.5935,0.3221,75,84802.898,1639884,-1.2397,-1.1124,-3.0847,1.7073,2.4915,2.4952,47
6.212,119,6.7258,1.8224,-13.0416,-1.1285,-0.2214,-1.7455,76,5.766,111,2.8571,-2.3514,-10.4577,1.2033,1.78,1.0592,85,6.154,118,6.7902,-1.0067,-14.1562,0.674,0.4896,-0.0377,75,84802.95,1639885,-1.0576,-1.4475,-3.1375,1.9149,2.5071,2.4968,47
6.264,120,5.3964,0.6372,-13.9877,-0.1493,-0.7254,-1.9491,76,5.818,112,-0.6578,1.8658,-8.4151,0.6979,0.8592,0.8698,85,6.206,119,7.2696,-0.596,-13.7139,0.3292,-0.3161,0.0689,75,84803.002,1639886,-0.8829,-1.6967,-3.2132,2.0714,2.5184,2.4979,47
6.315,121,3.9834,-4.7327,-13.5887,0.2275,0.153,-1.0128,76,5.869,113,0.8219,4.2149,-8.5713,-0.1707,0.6452,-0.0516,85,6.258,120,7.82,-0.5463,-13.7726,0.0243,-0.4661,0.2667,75,84803.053,1639887,-0.5111,-1.2663,-3.5461,2.1755,2.5267,1.5703,47
6.367,122,5.6319,-1.8754,-16.6957,0.69,-0.5577,-1.0395,76,5.921,114,5.5197,5.3186,-10.4071,-0.8046,0.0529,-0.724,85,6.31,121,8.1747,-0.9754,-13.8683,-0.1176,-0.5228,0.4274,75,84803.105,1639888,4.0824,-1.8245,-0.0334,2.1326,2.5328,1.1181,47
6.419,123,6.706,3.8777,-18.6727,0.9381,-0.9841,-0.9415,76,5.973,115,8.9484,5.4048,-14.1612,-1.2673,0.0715,-1.2148,85,6.361,122,8.3235,-0.562,-13.6683,-0.1512,-0.457,0.3998,75,84803.157,1639889,5.2377,-2.0258,-0.8936,1.6692,2.5372,0.6658,47
6.471,124,4.6266,4.2343,-17.1335,1.359,-0.0359,-0.3108,76,6.025,116,11.4509,3.1086,-18.2753,-1.6049,-0.0283,-1.573,85,6.413,123,8.5393,-0.5226,-13.5519,-0.1517,-0.3611,0.3667,75,84803.209,1639890,9.1811,-0.1345,0.3114,1.763,1.8343,0.9033,47
6.523,125,7.5251,2.4193,-13.6793,0.3145,-0.6938,0.1594,76,6.077,117,13.1308,0.3698,-20.2855,-1.7433,-0.5939,-1.8344,85,6.465,124,8.642,-0.4623,-13.518,-0.1438,-0.2728,0.3441,75,84803.261,1639891,12.0591,-5.356,-7.7982,1.6113,1.2628,1.0278,47
6.574,126,7.2019,0.9344,-12.1536,-0.4478,0.176,0.2415,76,6.128,118,12.6747,-1.8688,-19.9313,-0.8439,-0.6413,-1.8094,85,6.517,125,8.7085,-0.3813,-13.3872,-0.1327,-0.2386,0.33,75,84803.312,1639892,10.2081,-6.9902,-9.2238,1.1956,0.9724,0.7836,47
6.626,127,6.7368,-0.7951,-10.9226,-0.5702,0.2379,-0.2519,76,6.18,119,13.6276,-1.5929,-19.22,-0.2279,-0.8831,-1.1184,85,6.568,126,8.7282,-0.5685,-13.4704,-0.0732,-0.2103,0.3032,75,84803.364,1639893,9.2318,-7.6182,-10.0791,0.4743,0.9111,0.2834,47
6.678,128,7.4517,-1.7266,-10.6692,-1.0935,0.7436,-0.4688,76,6.232,120,13.6261,-1.3579,-18.0975,0.0213,-0.7386,-0.7076,85,6.62,127,8.8,-0.5747,-13.5167,0.01,-0.1932,0.2879,75,84803.416,1639894,9.4086,-6.238,-10.0995,-0.3317,0.816,-0.4135,47
6.73,129,6.8946,-1.5517,-10.7621,-1.4755,0.7181,-0.6694,76,6.284,121,13.3487,-0.2849,-16.6732,0.4201,-0.8189,-1.0287,85,6.672,128,8.7243,-0.6354,-13.5996,0.0828,-0.2596,0.3079,75,84803.468,1639895,8.9702,-4.6008,-10.714,-0.92,0.7917,-0.8966,47
6.782,130,6.7459,-4.7478,-13.1632,-1.7542,0.6902,-0.6498,76,6.336,122,14.0875,-4.1012,-12.5502,-0.3734,-0.3627,-0.6979,85,6.724,129,8.6896,-0.8556,-13.7792,0.1666,-0.1936,0.3453,75,84803.52,1639896,9.563,-2.3193,-10.8616,-1.3493,0.7109,-1.3109,47
6.833,131,7.3943,-6.2584,-14.2389,-1.4104,0.2516,-0.7414,76,6.387,123,11.8495,2.0351,-13.3591,0.3992,0.1553,-0.9537,85,6.776,130,8.6857,-1.1215,-13.8715,0.2606,-0.1235,0.347,75,84803.571,1639897,9.709,-0.2601,-10.0004,-1.6273,0.5108,-1.3983,47
6.885,132,7.6839,-5.849,-13.9884,-0.6822,-0.2813,-0.5897,76,6.439,124,13.0161,3.4994,-13.0213,0.7585,0.5837,-1.3824,85,6.827,131,8.5821,-1.344,-13.807,0.3109,-0.0224,0.3512,75,84803.623,1639898,10.3071,1.8443,-10.6281,-1.4968,0.2086,-1.0066,47
6.937,133,7.9192,-6.1856,-14.0761,-0.0012,-0.6204,-0.0883,76,6.491,125,14.1449,5.1366,-12.035,0.6284,0.6918,-1.6953,85,6.879,132,8.4752,-1.6221,-13.747,0.3929,0.0402,0.2917,75,84803.675,1639899,11.0725,4.6507,-11.007,-1.1339,0.0186,-0.8274,47
6.989,134,8.381,-7.7509,-13.8557,0.3976,-0.8801,0.5496,76,6.543,126,11.9398,4.801,-11.7273,0.8347,1.184,-1.9237,85,6.931,133,8.6187,-1.7753,-13.5033,0.4767,-0.0355,0.1995,75,84803.727,1639900,11.4712,5.2989,-12.1049,-0.567,-0.1651,-0.8016,47
7.04,135,8.9836,-8.0188,-12.7602,0.5982,-0.9469,1.0778,76,6.595,127,7.2501,2.7603,-13.6685,1.1367,1.5432,-1.7107,85,6.983,134,8.6341,-1.8092,-13.3578,0.4243,0.0198,0.1615,75,84803.778,1639901,12.5547,6.7929,-12.6836,-0.0098,-0.2285,-0.9967,47
7.092,136,6.2238,-6.4519,-12.6938,0.0661,-0.5099,1.4632,76,6.646,128,4.096,2.916,-13.8298,0.6356,1.5094,-1.4645,85,7.034,135,8.7367,-1.7703,-13.1396,0.3222,-0.001,0.1768,75,84803.83,1639902,13.5117,7.0431,-13.1931,0.4235,-0.2196,-1.3074,47
7.144,137,3.5148,-5.2068,-13.9543,-0.309,-1.0165,1.2032,76,6.698,129,3.7891,4.4613,-14.9239,1.1356,0.881,-1.2667,85,7.086,136,8.8608,-1.8904,-13.0962,0.2067,-0.0501,0.1864,75,84803.882,1639903,11.7423,5.6477,-12.6306,0.5458,-0.2037,-1.6302,47
7.196,138,3.0918,-4.8552,-15.9189,-0.6965,-1.4112,0.7173,76,6.75,130,5.109,6.9274,-11.9249,0.8965,1.3219,-1.2273,85,7.138,137,8.7785,-1.9742,-13.1897,0.1,-0.0688,0.2056,75,84803.933,1639904,8.7249,4.1896,-11.9294,0.5449,-0.1313,-1.8659,47
7.248,139,6.0575,-8.7413,-13.7479,-1.1857,-1.2144,0.7347,76,6.802,131,5.7887,8.6168,-11.7117,0.5587,1.0412,-1.2257,85,7.19,138,8.9037,-2.0473,-13.2653,-0.0155,-0.1021,0.2807,75,84803.985,1639905,6.4965,3.1391,-11.3703,0.5434,-0.0734,-2.0379,47
7.299,140,6.5745,-6.8667,-14.366,-0.2042,-1.3563,0.459,76,6.854,132,5.3886,9.0937,-12.3846,0.4937,1.0242,-1.354,85,7.242,139,9.2043,-2.2264,-13.2739,-0.1947,-0.1221,0.4031,75,84804.037,1639906,8.874,4.9359,-6.3414,0.7809,-0.0986,-2.0735,47
7.351,141,5.5918,-7.3418,-15.1679,0.0689,-1.4688,0.1774,76,6.906,133,4.598,7.5474,-12.3802,0.8682,1.2986,-1.2691,85,7.293,140,10.0547,-2.5553,-12.7603,-0.1633,-0.203,0.2706,75,84804.089,1639907,9.0474,6.4357,-8.5704,1.0201,0.259,-1.7403,47
7.403,142,4.9943,-7.9555,-15.7181,0.279,-1.6264,-0.046,76,6.958,134,3.033,7.1244,-13.3013,1.3054,1.6267,-1.1198,85,7.345,141,10.0996,-2.4105,-11.5566,0.5573,-0.0782,-0.4765,75,84804.14,1639908,9.3671,7.2347,-10.3577,0.9311,0.5564,-1.638,47
7.455,143,3.6604,-7.5332,-15.963,0.4104,-1.7953,-0.2793,76,7.009,135,1.6868,5.8459,-13.2516,0.7982,1.8663,-0.7694,85,7.397,142,9.1088,-3.9209,-11.0155,1.0833,0.0578,-1.0218,75,84804.192,1639909,9.0076,8.0175,-11.3575,0.9072,0.7643,-1.6861,47
7.507,144,2.3717,-6.6879,-15.7047,0.7329,-1.841,-0.6074,76,7.061,136,0.564,4.6031,-13.4411,1.2543,2.0351,-0.5287,85,7.449,143,6.8753,-5.154,-11.6964,1.4672,0.3333,-1.4129,75,84804.244,1639910,7.7239,7.7111,-11.7306,0.9335,1.0044,-1.8065,47
7.559,145,1.0626,-5.3228,-15.3294,1.2028,-1.858,-1.1161,76,7.113,137,0.8672,7.1161,-11.6799,1.5872,2.1644,-0.7903,85,7.501,144,9.962,-3.4823,-5.9689,0.669,-0.415,-0.5358,75,84804.296,1639911,5.4062,6.5861,-11.1906,1.0823,1.1543,-1.9074,47
7.61,146,0.6258,-4.0465,-13.9995,1.3233,-2.0254,-1.4743,76,7.165,138,2.1308,7.3555,-13.0023,1.8301,2.2567,-0.9232,85,7.553,145,8.5316,-1.3069,-8.2157,0.5834,-0.3579,-0.3556,75,84804.348,1639912,3.8804,5.4413,-10.348,1.2774,1.3401,-2.0408,47
7.662,147,0.1022,-5.403,-15.3124,0.6767,-2.1475,-1.4548,76,7.217,139,3.3438,6.6665,-14.5125,1.9354,2.2476,-1.208,85,7.604,146,8.8812,-1.5487,-9.742,0.4992,-0.2289,-0.2513,75,84804.399,1639913,3.4843,4.5756,-10.2434,1.4701,1.4548,-2.0485,47
7.714,148,0.6813,-6.0679,-16.0735,1.1683,-2.2367,-1.5196,76,7.268,140,3.9766,6.5313,-15.0942,2.0843,2.1641,-1.563,85,7.656,147,8.9405,-1.3163,-10.5682,0.4359,-0.1219,-0.2417,75,84804.451,1639914,3.1411,6.4428,-11.1547,1.6658,1.6595,-1.8778,47
