right_hand_timestamp,right_hand_index,right_hand_accel_x,right_hand_accel_y,right_hand_accel_z,right_hand_gyro_x,right_hand_gyro_y,right_hand_gyro_z,right_hand_battery_percentage,left_hand_timestamp,left_hand_index,left_hand_accel_x,left_hand_accel_y,left_hand_accel_z,left_hand_gyro_x,left_hand_gyro_y,left_hand_gyro_z,left_hand_battery_percentage,right_leg_timestamp,right_leg_index,right_leg_accel_x,right_leg_accel_y,right_leg_accel_z,right_leg_gyro_x,right_leg_gyro_y,right_leg_gyro_z,right_leg_battery_percentage,ball_timestamp,ball_index,ball_accel_x,ball_accel_y,ball_accel_z,ball_gyro_x,ball_gyro_y,ball_gyro_z,ball_battery_percentage
0.729,14,7.9798,-3.4942,-13.3623,1.0764,-1.664,0.0565,75,0.137,2,0.6736,7.7416,-14.3241,0.0503,-0.0268,0.4158,84,0.416,8,11.8693,1.9003,-8.8854,1.4897,0.117,0.4925,75,84989.161,1643485,1.0754,-1.5654,-0.7553,-1.684,0.1882,-0.6964,46
0.781,15,5.681,-5.9324,-12.3378,1.4023,-0.5321,0.5297,75,0.189,3,2.5033,8.3476,-14.6733,-0.4217,-0.0475,0.5371,84,0.468,9,10.7147,1.6154,-9.4252,1.0735,-0.1361,0.2809,75,84989.212,1643486,0.8418,-1.7971,-1.4056,-1.9069,0.5984,-0.6412,46
0.832,16,6.1622,-4.1393,-10.7089,1.6978,-0.873,0.5353,75,0.241,4,3.9154,8.0435,-14.3297,-0.4945,0.1802,0.4335,84,0.519,10,10.2617,0.9756,-10.3363,0.6246,-0.2351,0.215,75,84989.264,1643487,-0.1419,-2.2514,-1.1217,-2.0696,1.1254,-0.3721,46
0.884,17,5.7815,-3.967,-7.8415,1.2884,-0.5632,0.9533,75,0.293,5,4.3254,7.8873,-14.0054,-0.1919,0.3752,0.3803,84,0.571,11,10.0786,0.6815,-10.7619,0.5436,-0.3668,0.1117,75,84989.316,1643488,0.0352,-1.9332,-1.7334,-2.1884,1.51,-0.1285,46
0.936,18,4.0845,-5.002,-6.0853,1.6076,-0.037,0.8809,75,0.344,6,3.9284,8.0603,-13.5963,0.0516,0.4912,0.4214,84,0.623,12,9.8079,0.1665,-11.1002,0.2988,-0.3728,0.0401,75,84989.368,1643489,0.2699,-1.4868,-2.4267,-2.275,1.7907,0.136,46
0.988,19,2.7432,-4.7529,-4.5035,1.2912,0.6206,0.9793,75,0.396,7,3.1881,8.1285,-13.4566,0.2431,0.5208,0.2278,84,0.675,13,9.7735,-0.0724,-11.322,0.1344,-0.4128,-0.036,75,84989.419,1643490,1.1341,-1.1658,-3.0895,-2.3383,1.9956,0.395,46
1.039,20,2.3679,-4.7373,-3.3483,1.1371,0.8871,0.9883,75,0.448,8,2.6082,8.2089,-13.3452,0.4185,0.5085,-0.0764,84,0.727,14,9.6528,-0.2244,-11.599,-0.0123,-0.4668,-0.0951,75,84989.471,1643491,4.035,1.3636,-1.6731,-2.3845,2.1452,0.4653,46
1.091,21,3.1986,-4.2814,-3.6222,1.504,1.3222,1.1207,75,0.5,9,1.9005,7.9527,-13.1504,0.5821,0.4895,-0.3925,84,0.778,15,9.5692,-0.4296,-11.8682,-0.1268,-0.577,-0.1897,75,84989.523,1643492,2.5777,3.8692,-0.6733,-2.4182,2.2543,0.2287,46
1.143,22,3.4407,-2.6881,-7.6631,1.4123,0.8559,0.81,75,0.552,10,1.3196,8.2244,-12.9147,0.6824,0.2946,-0.5583,84,0.83,16,9.5537,-0.4028,-12.0826,-0.216,-0.719,-0.336,75,84989.575,1643493,1.7863,3.1003,-2.2562,-2.4428,2.334,-0.2597,46
1.195,23,1.2345,-0.3085,-8.9289,1.1654,0.0053,0.0947,75,0.603,11,1.2997,8.605,-12.8248,0.3704,0.0208,-0.5519,84,0.882,17,10.2379,-0.2867,-12.0725,-0.2361,-1.0545,-0.5676,75,84989.626,1643494,1.2393,2.5581,-3.5143,-2.4607,2.3921,-0.6148,46
1.247,24,2.2402,-1.2513,-7.443,0.1957,-0.6655,-0.606,75,0.656,12,1.1453,8.3842,-13.0891,0.0233,-0.1315,-0.4524,84,0.934,18,12.7378,-0.2468,-11.6732,-0.2607,-1.443,-0.7957,75,84989.678,1643495,1.4941,2.181,-5.2139,-2.4738,1.0881,-0.5565,46
1.298,25,6.6926,-3.3513,-6.327,0.2906,-1.155,-1.1174,75,0.707,13,0.6787,7.6031,-13.1009,0.1982,-0.2543,-0.3326,84,0.985,19,13.2987,-2.7403,-13.5097,-0.8655,-1.7266,-1.1825,75,84989.73,1643496,1.0023,1.7552,-4.9193,-2.4834,0.131,-0.5174,46
1.35,26,8.2302,-0.7302,-8.8919,-0.4563,-0.7889,-0.6045,75,0.759,14,0.9301,8.872,-13.627,0.1652,-0.2969,0.0652,84,1.037,20,11.491,-2.0169,-11.2051,-0.8078,-1.6276,-0.9457,75,84989.782,1643497,0.7157,1.4091,-4.8942,-2.4903,-0.5675,-0.492,46
1.402,27,8.5662,-2.6502,-8.2791,-1.0104,0.0064,0.2225,75,0.811,15,1.7046,9.202,-14.6681,-0.4018,-0.3863,0.5519,84,1.089,21,10.3068,-2.5159,-9.7416,-0.3205,-0.7625,-0.3179,75,84989.834,1643498,0.5038,1.1499,-4.8564,-2.4954,-1.0772,-0.4769,46
1.454,28,6.9615,-3.2349,-7.588,-0.7168,-0.129,0.6647,75,0.863,16,2.6162,8.569,-15.3467,-0.6457,-0.2544,0.5803,84,1.141,22,9.4622,-2.4905,-9.3558,0.4426,0.1218,0.317,75,84989.885,1643499,0.3503,0.941,-4.8181,-2.4991,-1.4493,-0.4687,46
1.506,29,4.6513,-3.7245,-6.4897,-0.3633,-0.1846,0.684,75,0.914,17,2.8878,7.6651,-15.0072,-0.4313,-0.1298,0.4025,84,1.193,23,10.1326,-1.5726,-11.0832,0.656,0.7673,0.9033,75,84989.937,1643500,0.3823,0.45,-6.0976,-2.5019,-1.7127,-0.382,46
1.558,30,5.075,-4.9101,-4.2059,0.4077,0.2977,0.9392,75,0.966,18,2.7607,7.1869,-14.6945,-0.1918,0.0083,0.371,84,1.244,24,11.0371,0.4541,-14.1971,0.1142,1.2384,1.337,75,84989.989,1643501,0.6401,0.124,-7.9112,-2.5038,-1.9125,-0.4045,46
1.609,31,5.9641,-5.4139,-2.5632,0.9719,0.6155,0.9268,75,1.018,19,2.5537,7.6068,-14.5157,-0.2046,0.0061,0.3465,84,1.296,25,8.385,4.282,-18.3665,-0.5919,1.5363,1.1725,75,84990.041,1643502,0.6628,0.1789,-8.889,-2.5053,-1.8136,-0.4779,46
1.661,32,6.0616,-4.3032,-2.2951,1.1513,1.0315,0.6768,75,1.07,20,2.9621,7.3585,-14.6562,-0.5895,-0.1344,0.1547,84,1.348,26,4.4576,7.7861,-20.9826,-0.6048,1.464,0.7072,75,84990.092,1643503,1.9879,0.421,-12.1564,-2.3204,-1.5141,-0.4921,46
1.713,33,2.8594,-2.5552,-2.2222,0.8975,0.8897,0.4669,75,1.122,21,3.2667,7.2341,-14.997,-0.0863,0.0837,-0.0588,84,1.4,27,5.7936,5.9274,-19.6637,-1.048,1.0823,0.5259,75,84990.144,1643504,1.6207,0.1687,-11.8954,-1.672,-1.0877,-0.2389,46
1.765,34,2.1923,-1.7697,-3.9347,1.2769,0.602,0.0125,75,1.173,22,3.9662,8.3071,-15.395,0.4509,0.0162,-0.0725,84,1.452,28,6.9262,3.8101,-17.8144,-0.7801,0.7089,0.2298,75,84990.196,1643505,1.2151,0.1179,-11.1717,-0.9902,-0.624,0.0068,46
1.816,35,0.7089,2.0699,-6.9735,1.3211,-0.23,-0.6301,75,1.225,23,4.2312,9.4548,-14.1945,0.1962,-0.2732,0.0646,84,1.504,29,7.4356,3.2804,-16.2789,-0.5906,0.4916,0.0738,75,84990.247,1643506,0.9042,0.0847,-10.6048,-0.4945,-0.284,0.1853,46
1.868,36,5.575,2.2395,-6.8635,0.2868,-0.8372,-1.135,75,1.277,24,3.9289,8.4092,-13.4567,-0.5368,-0.4824,0.2415,84,1.555,30,7.888,1.8995,-15.2143,-0.4981,0.283,-0.0652,75,84990.299,1643507,-4.5716,5.3929,-5.1764,-0.6527,-0.2513,-0.2809,46
1.92,37,9.1265,6.5293,-8.9098,-0.4681,-1.1514,-0.4997,75,1.329,25,3.416,7.5832,-12.4204,-1.0718,-0.5192,0.3634,84,1.607,31,8.1267,1.3027,-14.2767,-0.4297,0.0558,-0.1975,75,84990.351,1643508,-3.8498,3.8991,-4.907,-1.1542,-0.8465,-0.801,46
1.972,38,9.5694,-0.4324,-11.6525,-1.019,-0.746,0.3119,75,1.381,26,3.1217,6.7763,-11.843,-1.2074,-0.4285,0.4292,84,1.659,32,8.283,0.92,-13.6885,-0.4388,-0.1637,-0.3373,75,84990.403,1643509,-3.0817,2.7747,-4.8467,-1.5203,-1.2809,-1.2109,46
2.024,39,10.1456,-2.1316,-11.6032,-0.0693,-0.0278,-0.4056,75,1.433,27,2.6749,6.8178,-11.4523,-1.0373,-0.2476,0.4786,84,1.711,33,8.9721,-0.4761,-13.32,-0.4602,-0.6364,-0.48,75,84990.455,1643510,-2.5243,1.9547,-4.8349,-1.7874,-1.598,-1.5126,46
2.075,40,8.0384,-2.2289,-9.6563,-0.6594,0.4838,-0.3155,75,1.484,28,2.2272,7.0762,-11.7513,-0.7184,-0.1843,0.4077,84,1.763,34,11.814,-1.5362,-11.4642,-1.011,-0.6134,-0.6347,75,84990.506,1643511,-2.1305,1.344,-4.853,-1.9824,-1.8293,-1.7359,46
2.127,41,6.5157,-6.4749,-7.9958,-1.1419,0.9929,-0.0266,75,1.536,29,2.4544,9.5549,-12.7949,-0.3626,-0.1924,0.6751,84,1.814,35,13.8881,-5.7368,-13.517,-1.4131,-1.1211,-0.5585,75,84990.558,1643512,-1.8381,0.891,-4.8761,-2.1247,-1.9982,-1.9013,46
2.179,42,4.1467,-7.7759,-6.3003,-0.16,1.3989,0.2923,75,1.588,30,3.0493,10.4654,-13.9451,-0.4827,-0.5781,0.5818,84,1.866,36,12.2017,-6.7354,-11.1111,-1.7065,-1.1115,0.2701,75,84990.61,1643513,-2.1778,3.7491,-5.401,-2.2286,-2.1215,-1.9788,46
2.231,43,4.0222,-7.4562,-4.0235,0.5576,1.6404,0.6227,75,1.64,31,2.5365,9.9115,-14.2538,-0.8507,-0.9317,0.4301,84,1.918,37,12.1641,-5.1591,-9.5943,-0.9013,-0.7338,0.8749,75,84990.661,1643514,-2.8412,8.0673,-1.9286,-2.3044,-2.162,-1.7,46
2.283,44,1.3721,-4.97,-5.4588,1.0813,1.8797,0.8196,75,1.692,32,1.7921,9.1417,-14.0905,-1.0055,-1.2429,0.3763,84,1.97,38,13.0515,-1.3217,-8.3121,-0.6669,0.1428,1.3163,75,84990.713,1643515,0.7036,9.7255,-3.9105,-2.2978,-2.241,-0.6114,46
2.334,45,-0.4765,-0.5452,-9.0015,1.4636,1.4638,0.0864,75,1.743,33,1.4623,8.8522,-13.7791,-1.4103,-1.5722,0.3838,84,2.021,39,12.9325,1.5557,-7.9553,-0.9644,0.7826,1.6384,75,84990.765,1643516,0.7596,7.798,-5.2911,-1.9295,-2.2987,0.2295,46
2.386,46,4.5439,3.7874,-14.5662,1.7426,0.399,-0.6121,75,1.795,34,1.9773,8.1459,-14.0782,-1.7093,-1.8132,0.39,84,2.073,40,13.8941,2.7554,-9.5177,-1.3791,1.2495,1.8735,75,84990.817,1643517,0.7078,6.0605,-6.1256,-1.6617,-2.3408,0.8432,46
2.438,47,-0.4669,8.1542,-13.1031,0.7795,0.9736,-0.4778,75,1.847,35,3.8612,7.4776,-13.7981,-1.9276,-1.7445,0.3598,84,2.125,41,12.892,4.8462,-14.5392,-1.6817,1.5903,1.8382,75,84990.868,1643518,0.6032,4.765,-6.7879,-1.4828,-2.3715,1.2911,46
2.49,48,4.7169,4.9449,-17.5597,-0.1085,0.0413,0.0821,75,1.899,36,6.4687,7.1008,-14.2933,-1.7921,-1.0242,0.3663,84,2.177,42,9.8142,4.5949,-18.6163,-0.6196,0.6173,0.777,75,84990.92,1643519,-0.1799,4.9882,-7.1465,-1.5251,-2.3939,1.618,46
2.542,49,8.4999,1.1072,-14.301,-0.7012,-0.3226,-0.012,75,1.951,37,6.7264,5.8186,-13.4913,-0.7234,-0.0943,-0.0878,84,2.229,43,12.4286,8.7055,-14.2183,0.2194,0.7889,-0.1069,75,84990.972,1643520,0.3799,4.8626,-7.1677,-1.6031,-2.4103,1.8566,46
2.593,50,11.2612,-2.2346,-11.4774,-1.1891,0.447,0.6679,75,2.002,38,5.0746,6.5385,-11.5208,0.1437,0.4361,-0.0298,84,2.281,44,13.3822,4.4745,-14.2131,-0.236,-0.0977,-0.1152,75,84991.024,1643521,0.8447,4.7506,-7.2361,-1.7132,-2.4222,2.0307,46
2.645,51,9.1244,-6.0826,-10.1747,-1.2557,1.0086,1.0166,75,2.054,39,4.4248,8.3909,-11.8459,-0.0953,0.2843,0.6436,84,2.332,45,12.7506,2.1408,-13.6546,-0.469,-0.2648,-0.0866,75,84991.076,1643522,1.2423,4.6512,-7.2955,-1.845,-2.4309,2.1578,46
2.697,52,3.8687,-5.7239,-8.653,-0.2939,1.4186,1.1368,75,2.106,40,3.6405,9.6519,-12.8029,-0.1016,-0.1325,0.9108,84,2.384,46,12.1065,1.1069,-13.192,-0.1957,-0.4119,-0.0132,75,84991.127,1643523,1.5849,4.5485,-7.3293,-1.9817,-2.4373,2.2505,46
2.749,53,-0.0767,-4.1999,-6.4491,0.3826,1.7177,0.6877,75,2.158,41,2.2516,9.6006,-12.8601,-0.4951,-0.7694,0.8511,84,2.436,47,10.9161,-1.2867,-13.0921,-0.6957,-0.3883,0.1489,75,84991.179,1643524,1.9047,4.4278,-7.3595,-2.1104,-2.4419,2.3182,46
2.801,54,-2.3126,-1.1591,-7.1616,0.9527,1.9361,0.2392,75,2.21,42,1.73,9.4819,-12.7641,-0.8422,-1.2342,0.5801,84,2.488,48,9.7986,-2.2005,-12.9227,-0.8364,-0.3977,0.0916,75,84991.231,1643525,2.1801,4.2787,-7.3911,-2.2171,-2.4453,2.3676,46
2.852,55,-2.2958,2.3816,-10.9754,0.7839,1.5804,-0.5005,75,2.261,43,2.1214,8.6072,-13.2445,-1.2947,-1.5734,0.3517,84,2.539,49,8.5173,-2.2222,-13.1902,-1.1441,-0.3533,0.098,75,84991.283,1643526,-3.6404,1.4774,-13.4199,-0.9643,-1.55,1.9566,46
2.904,56,0.4028,3.2752,-16.0068,0.521,0.4841,-1.0404,75,2.313,44,3.123,8.5513,-13.89,-1.6207,-1.8063,0.0512,84,2.591,50,8.1878,-2.8067,-13.402,-1.0368,-0.4825,0.0589,75,84991.334,1643527,-1.7535,1.7645,-11.27,-0.0299,-0.4426,0.752,46
2.956,57,1.7084,7.025,-17.4514,1.0247,0.5673,-0.199,75,2.365,45,4.3122,7.9411,-14.5614,-1.8283,-1.7984,-0.2543,84,2.643,51,8.3685,-2.5243,-13.4286,-1.0347,-0.7688,0.0391,75,84991.386,1643528,-0.4453,2.1304,-9.2964,0.6521,0.3656,-0.1272,46
3.008,58,3.8223,10.5171,-19.2429,0.4327,-0.2118,-0.7358,75,2.417,46,5.2981,7.9653,-14.5847,-1.6825,-1.7634,-0.6293,84,2.695,52,10.129,-0.3279,-12.9783,-1.0865,-1.0527,0.0743,75,84991.438,1643529,-3.078,2.5779,-14.4927,-0.1763,0.8907,-0.7689,46
3.06,59,7.8473,2.4781,-17.3503,-0.3616,0.5193,-0.2373,75,2.469,47,6.0896,7.5398,-14.2437,-1.5522,-1.6201,-0.8191,84,2.747,53,11.971,-2.5771,-15.0092,-1.4682,-1.4417,0.4142,75,84991.49,1643530,-2.5798,2.476,-12.7005,-0.8066,1.3387,-1.2373,46
3.112,60,8.5903,-0.2044,-11.9971,0.217,0.4977,0.0215,75,2.521,48,6.8848,7.5879,-13.4475,-1.2462,-1.5885,-0.7716,84,2.798,54,9.767,-3.5632,-16.0518,-1.7467,-1.5892,0.8492,75,84991.541,1643531,-2.2679,2.3848,-11.2727,-1.2665,1.6657,-1.5791,46
3.163,61,6.7224,-0.6181,-7.9099,-0.0022,1.0457,0.0292,75,2.572,49,6.7274,7.2718,-13.5628,-1.508,-1.1899,-0.1356,84,2.85,55,9.3712,-2.8115,-13.2136,-1.9501,-0.8424,1.2975,75,84991.593,1643532,-2.0889,2.283,-10.2318,-1.6022,1.9044,-1.8285,46
3.215,62,5.697,-1.2933,-4.9361,-0.49,1.4456,0.2052,75,2.624,50,5.2253,7.2498,-14.0546,-0.9759,-0.8412,0.431,84,2.902,56,10.51,-1.2906,-10.1858,-1.8498,0.0635,1.6247,75,84991.645,1643533,-1.9746,2.1511,-9.46,-1.8473,2.0786,-2.0106,46
3.267,63,3.8811,-1.3858,-4.2535,-0.3838,1.7375,0.0608,75,2.676,51,3.4468,8.9783,-14.1699,-0.6161,-0.8978,0.8365,84,2.954,57,11.0259,-0.1062,-8.7092,-2.0218,0.7247,1.8635,75,84991.697,1643534,-1.8951,2.0407,-8.9119,-2.0261,2.2038,-2.1435,46
3.319,64,2.4648,-2.1994,-3.7427,-0.4251,1.9505,0.0933,75,2.728,52,2.2118,9.1899,-14.1637,-1.1297,-1.3266,1.1276,84,3.006,58,12.5303,1.165,-9.4055,-2.1465,1.2073,2.0378,75,84991.748,1643535,-1.8221,1.9465,-8.5282,-2.1566,2.2875,-2.2405,46
3.37,65,1.5403,-3.2855,-3.4547,0.0546,1.8689,0.2624,75,2.78,53,1.9306,8.6356,-13.8783,-1.5031,-1.617,0.9309,84,3.057,59,13.0579,3.6402,-14.0006,-2.2418,1.5595,2.1325,75,84991.8,1643536,4.0285,6.7517,-5.2915,-1.2403,1.5779,-1.575,46
3.422,66,1.0924,-2.588,-3.896,0.6964,1.9159,0.0116,75,2.831,54,2.8475,8.6586,-13.5397,-1.634,-1.6123,0.5861,84,3.109,60,11.0743,3.3753,-18.2212,-1.1315,1.1906,1.1606,75,84991.852,1643537,2.797,5.6403,-6.0865,-0.5874,0.4885,-0.4738,46
3.474,67,1.3733,0.115,-5.5174,0.3564,1.4286,-0.6419,75,2.883,55,4.7841,8.5707,-13.6284,-1.8282,-1.3995,0.219,84,3.161,61,13.3482,6.4047,-20.6295,-0.8377,0.1955,0.572,75,84991.904,1643538,1.8779,4.7847,-6.7298,-0.1369,-0.3066,0.3299,46
3.526,68,-0.3628,1.1589,-10.5538,-0.4172,1.2546,-1.1436,75,2.935,56,4.8862,6.5359,-13.5901,-1.0843,-1.0195,-0.4514,84,3.213,62,15.0079,5.394,-17.2732,-0.837,-0.5235,0.5639,75,84991.955,1643539,-3.861,-1.7657,-12.9373,-0.5328,0.0392,0.8256,46
3.578,69,4.7928,-4.3519,-5.1115,-0.6807,0.2463,-1.5097,75,2.987,57,6.0784,6.8115,-12.8685,-0.2899,-1.0757,-0.6029,84,3.265,63,13.4043,2.6819,-15.6843,-0.8249,-0.382,0.5368,75,84992.007,1643540,-2.6448,-1.2911,-9.2658,-0.2369,0.7172,0.7629,46
3.629,70,5.7288,1.0864,-6.6146,-0.251,0.0545,-1.3928,75,3.039,58,6.1418,6.3233,-12.1228,-0.4063,-1.083,-0.2876,84,3.316,64,12.0293,0.3737,-14.183,-0.7048,-0.3033,0.3669,75,84992.059,1643541,-1.8032,-1.0283,-6.3683,-0.0139,1.2121,0.7194,46
3.681,71,9.2387,-4.4048,-7.2229,-0.8166,0.2596,-0.7456,75,3.09,59,6.3121,6.0355,-11.8396,-0.9764,-1.0222,0.1769,84,3.368,65,10.9572,-0.8266,-13.397,-0.6044,-0.4928,0.1357,75,84992.111,1643542,-1.1705,-0.8324,-4.2697,0.1549,1.5733,0.6876,46
3.733,72,10.4056,-4.2932,-6.0368,-0.4955,-0.2406,-0.1419,75,3.142,60,6.7893,5.1995,-12.0227,-0.7149,-0.7691,0.4114,84,3.42,66,10.7755,-0.6188,-12.7924,-0.682,-0.9503,0.0332,75,84992.162,1643543,-0.6789,-0.6913,-2.742,0.2851,1.837,0.6661,46
3.785,73,9.2505,-5.4479,-7.0687,0.0369,0.1096,0.0566,75,3.194,61,6.6729,5.6246,-11.8957,0.1302,-0.3836,0.389,84,3.472,67,11.688,-0.3221,-12.4118,-1.029,-1.367,0.0592,75,84992.214,1643544,-0.3094,-0.5944,-1.6238,0.3879,2.0294,0.6519,46
3.837,74,7.4556,-6.6891,-9.0271,0.3954,-0.3746,0.2493,75,3.246,62,6.0144,6.0973,-12.253,0.3532,-0.1598,0.4485,84,3.524,68,13.7961,-0.0779,-7.8675,-1.4262,-1.6711,-0.1736,75,84992.266,1643545,-0.027,-0.5377,-0.7892,0.4692,2.1698,0.6437,46
3.888,75,6.634,-9.0265,-7.6968,0.9629,-0.9369,0.0526,75,3.298,63,4.2642,5.6915,-11.9101,0.8604,-0.0506,0.1251,84,3.575,69,15.3348,-1.0347,-13.5123,-1.4746,-1.893,-0.5821,75,84992.318,1643546,0.1696,-0.4993,-0.1691,0.5361,2.2723,0.6396,46
3.94,76,8.9986,-8.325,-6.9783,1.3772,-1.2726,0.7006,75,3.349,64,3.5623,7.7927,-13.4761,1.2997,-0.1922,0.3331,84,3.627,70,12.78,-1.0809,-9.4332,-0.435,-0.9663,-0.8373,75,84992.369,1643547,0.3063,-0.4657,0.3187,0.5912,2.3471,0.6382,46
3.992,77,6.6138,-3.8594,-6.936,1.6795,-1.2156,1.188,75,3.401,65,5.4769,8.7544,-17.7671,1.1277,-0.6579,0.0899,84,3.679,71,9.7863,-0.4757,-9.2818,-0.6657,-0.0269,-0.6928,75,84992.421,1643548,1.0501,-0.6982,-1.0299,0.6531,2.4017,0.5723,46
4.044,78,5.31,-0.2074,-6.673,1.6925,-0.8937,1.287,75,3.453,66,5.9269,6.6069,-17.5945,1.4948,-1.1415,-0.6068,84,3.731,72,8.895,0.5225,-10.1505,-1.1574,0.6587,-0.2232,75,84992.473,1643549,0.9827,0.9822,-7.7226,0.5378,2.163,-0.2584,46
4.095,79,4.5726,1.1062,-6.1771,0.9501,-0.8931,1.0543,75,3.505,67,6.4102,5.4213,-17.8016,1.4099,-1.5058,-0.1528,84,3.782,73,9.1301,-1.0021,-11.6139,-1.3486,1.1591,0.5148,75,84992.525,1643550,0.6471,0.6856,-8.1715,0.0473,1.295,-0.8646,46
4.147,80,1.5929,2.505,-6.8376,1.2256,-0.8283,0.0979,75,3.557,68,4.9702,4.5914,-16.106,1.7007,-0.4199,-0.7979,84,3.834,74,10.954,0.1328,-14.3431,-0.3077,1.5243,0.7385,75,84992.576,1643551,0.4292,0.4502,-8.4555,-0.3056,0.6606,-1.3071,46
4.199,81,5.4701,0.6772,-4.4345,0.3615,-1.2739,-0.6037,75,3.609,69,3.7678,4.4558,-19.4784,0.9054,-0.532,-0.0573,84,3.886,75,10.7259,-0.9756,-16.8078,0.452,1.7909,0.4684,75,84992.628,1643552,0.2601,1.5735,-3.6078,-0.3832,0.4702,-0.8829,46
4.251,82,9.05,2.7115,-4.956,-0.4135,-1.449,-0.0459,75,3.661,70,5.6336,5.6768,-15.7712,-0.0192,-1.0408,0.1336,84,3.938,76,9.3586,-0.1184,-18.434,0.6376,1.3871,0.5029,75,84992.68,1643553,0.3682,1.223,-5.4733,-0.7485,0.2879,-0.3446,46
4.303,83,7.0762,-2.1112,-10.4781,-0.9018,-1.4865,0.5309,75,3.712,71,6.0521,4.3399,-13.8999,0.3553,-0.0806,-0.4871,84,3.989,77,9.2648,-0.1857,-18.4811,0.0153,0.3954,0.1832,75,84992.732,1643554,0.4882,0.9533,-6.5362,-1.0272,0.1698,0.3974,46
4.355,84,9.4993,-1.512,-11.2981,-0.0453,-0.7433,0.489,75,3.764,72,7.1243,6.2226,-12.7785,0.1823,0.6203,-0.5745,84,4.041,78,7.8646,-2.9994,-17.9191,-0.3871,-0.3467,0.1758,75,84992.784,1643555,0.5631,0.7403,-7.3185,-1.2292,0.0929,0.9658,46
4.406,85,7.7359,-3.576,-14.1799,-0.0912,-0.1171,0.2215,75,3.816,73,7.5488,6.0442,-13.3528,-0.4492,1.1318,-0.0776,84,4.093,79,11.0057,-1.3556,-11.5664,0.2137,-0.7934,0.1892,75,84992.835,1643556,0.652,0.5726,-7.8973,-1.3772,0.0464,1.3806,46
4.458,86,6.8699,-5.0915,-13.9833,0.2155,0.0455,0.1851,75,3.868,74,7.7784,5.5591,-14.2567,-0.2423,1.5051,0.4126,84,4.145,80,10.7998,-2.2836,-11.9333,-0.2286,-0.8907,0.3087,75,84992.887,1643557,4.2326,-1.3754,-10.6127,-1.683,0.5775,0.749,46
4.51,87,4.4505,-6.4379,-14.3903,0.359,0.4406,0.1079,75,3.92,75,7.7617,5.4813,-15.6098,0.1706,1.7753,0.8406,84,4.197,81,10.6718,-1.8304,-11.6346,0.0705,-0.9002,0.2701,75,84992.939,1643558,4.6917,-2.2055,-11.7143,-1.4019,0.8242,0.8141,46
4.562,88,0.8866,-8.0117,-13.5298,-0.35,1.004,0.2412,75,3.971,76,7.4548,6.0213,-15.499,0.3182,1.7074,1.1051,84,4.248,82,10.4164,-1.3226,-11.6143,-0.1014,-0.8461,0.2481,75,84992.99,1643559,3.2116,-1.5698,-10.983,-0.7097,0.769,1.2699,46
4.614,89,2.5352,-5.4228,-7.2835,0.4169,0.174,0.1345,75,4.023,77,6.4173,5.9733,-14.8032,0.1118,1.3034,1.2766,84,4.3,83,10.0718,-1.2706,-11.7564,-0.0501,-0.816,0.1462,75,84993.042,1643560,4.3186,1.5867,-11.2735,-0.6411,0.9616,1.4981,46
4.665,90,-1.9848,-4.9903,-10.0367,-0.2103,0.8094,-0.0801,75,4.075,78,5.1034,6.4159,-13.3368,-0.0068,0.8872,1.2136,84,4.352,84,9.4379,-1.3045,-11.862,-0.0478,-0.8446,0.0584,75,84993.094,1643561,5.1551,4.4265,-13.9448,-0.7394,0.8145,0.7903,46
4.717,91,3.609,-8.8399,-11.9229,0.5209,-0.0786,-0.7081,75,4.127,79,4.0372,6.6823,-12.0984,-0.1174,0.4228,1.0217,84,4.404,85,9.1889,-0.8625,-12.0165,0.0268,-0.9345,-0.0301,75,84993.146,1643562,3.7279,3.1406,-12.7591,-0.6744,0.3278,-0.0992,46
4.769,92,7.6916,-1.0618,-16.6984,0.0702,0.3447,-1.1266,75,4.178,80,3.1011,6.3371,-11.1896,-0.2546,0.0426,0.7165,84,4.456,86,9.8886,-0.6819,-11.9213,-0.0096,-1.0795,-0.0887,75,84993.197,1643563,2.647,2.0509,-11.8055,-0.6219,-0.0268,-0.7485,46
4.821,93,7.1928,-0.5736,-14.2344,-0.6262,0.8471,-0.1873,75,4.23,81,3.1317,7.09,-10.1821,-0.428,-0.3567,0.5871,84,4.507,87,12.0169,0.8665,-11.8105,-0.3688,-1.2909,-0.0597,75,84993.249,1643564,1.6758,1.0884,-11.1926,0.22,0.6691,0.1294,46
4.873,94,5.1729,-2.9196,-12.0823,0.1807,-0.0472,0.0781,75,4.282,82,5.9065,7.1566,-11.0041,-0.6291,-0.5502,0.375,84,4.559,88,12.8247,-1.237,-13.6105,-0.9444,-1.3985,-0.4816,75,84993.301,1643565,0.4484,0.2437,-10.0197,0.8344,1.177,0.7701,46
4.924,95,5.0745,-3.5237,-10.5173,0.7228,-0.2694,0.1042,75,4.334,83,9.1569,5.318,-13.0048,0.2114,-0.2795,-0.392,84,4.611,89,8.713,-2.0126,-14.2012,-0.0127,-0.8956,-1.0239,75,84993.353,1643566,-0.4643,-0.3461,-9.1704,1.2829,1.5477,1.2378,46
4.976,96,4.2172,-5.6973,-9.6013,0.7359,-0.1057,0.4243,75,4.386,84,9.7168,5.5888,-12.398,0.3643,-0.2584,-0.7934,84,4.663,90,5.774,-1.4625,-12.0027,0.6672,0.0247,-1.3735,75,84993.404,1643567,-1.1564,-0.7288,-8.5689,1.6102,1.8182,1.5791,46
5.028,97,4.3469,-8.2383,-9.8807,1.1548,-0.2402,0.9742,75,4.437,85,9.3461,4.557,-11.513,-0.1553,-0.3723,-0.7222,84,4.715,91,6.486,-3.1699,-11.4215,0.8315,0.6964,-1.3929,75,84993.456,1643568,4.5144,-5.7898,-7.9584,1.8491,2.0081,1.8282,46
5.079,98,3.9812,-8.4196,-11.0422,1.4756,0.0616,1.3876,75,4.489,86,8.6905,3.7298,-11.4999,-0.6643,-0.2923,-0.485,84,4.766,92,7.7913,-4.8418,-12.3334,1.2834,1.1866,-1.1149,75,84993.508,1643569,7.6037,-7.5581,-6.084,1.9543,1.8212,2.01,46
5.131,99,4.3991,-4.7857,-13.9458,1.7502,-0.1594,1.4036,75,4.541,87,7.7837,2.9345,-11.4755,0.1174,0.0733,-0.424,84,4.818,93,9.1968,-5.3208,-13.6916,1.6132,1.5444,-0.6656,75,84993.56,1643570,10.7015,-10.4161,-7.6871,1.1421,1.214,1.681,46
5.183,100,2.276,-1.6006,-15.7232,1.9517,-0.747,0.6672,75,4.593,88,7.0374,3.1946,-11.6362,0.7574,0.6422,-0.3196,84,4.87,94,10.4438,-4.3397,-16.9463,1.3891,1.8055,0.1772,75,84993.611,1643571,7.8917,-7.4779,-7.9656,0.1557,0.3039,1.3577,46
5.235,101,6.7187,4.2217,-9.8819,1.0836,-0.8781,0.8321,75,4.645,89,6.8632,4.015,-11.9312,1.1282,1.1416,-0.1326,84,4.922,95,8.3217,-3.1664,-20.3361,1.6903,1.1806,-0.0379,75,84993.663,1643572,5.8241,-5.3235,-8.1596,-0.5642,-0.3604,1.1197,46
5.287,102,6.4819,-2.1165,-15.2088,0.1524,-1.3102,1.147,75,4.697,90,7.7581,5.0906,-11.7062,1.1967,1.5113,-0.0961,84,4.974,96,11.3393,3.0409,-22.847,1.6774,0.2311,-0.6186,75,84993.715,1643573,-0.9809,1.4458,-13.9808,-0.6138,-0.7355,0.8866,46
5.338,103,4.605,-2.753,-15.1383,0.7856,-0.6084,0.8802,75,4.748,91,8.7706,4.277,-11.8332,0.9958,1.7821,0.0611,84,5.025,97,11.0084,5.2845,-22.4646,1.6312,-0.1875,-0.6885,75,84993.767,1643574,-0.3467,1.9498,-12.9037,-0.2832,-0.206,-0.029,46
5.39,104,8.4185,-4.2796,-13.4301,1.2425,-0.1084,1.2311,75,4.801,92,9.0307,3.1046,-11.9856,1.3985,1.9797,-0.0904,84,5.077,98,10.7143,4.2855,-19.1311,1.1895,-0.3338,-0.5061,75,84993.818,1643575,0.0439,2.3414,-11.9331,-0.0663,0.2168,-0.6972,46
5.442,105,7.5672,-4.5298,-12.5388,1.1584,-0.1388,1.4588,75,4.852,93,8.9214,5.1764,-12.2589,1.6924,2.124,0.421,84,5.129,99,10.4388,3.4515,-17.1124,1.0135,-0.5395,-0.3902,75,84993.87,1643576,0.3113,2.6513,-11.2218,0.059,0.565,-1.1849,46
5.494,106,6.7027,-6.2116,-11.5289,1.4815,-0.3006,1.2031,75,4.904,94,8.007,5.1005,-12.6807,1.5592,1.9889,0.9727,84,5.181,100,10.3147,2.6051,-15.4611,0.8351,-0.7977,-0.4533,75,84993.922,1643577,0.4912,2.8985,-10.7037,0.1212,0.8506,-1.5409,46
5.546,107,2.1889,-5.7006,-11.0643,1.7556,0.1242,1.2564,75,4.956,95,6.782,5.2522,-13.0417,1.7008,1.5765,0.9982,84,5.232,101,11.1206,1.8883,-13.8581,0.7293,-1.1226,-0.5914,75,84993.974,1643578,0.6095,3.1118,-10.3212,0.1302,1.0949,-1.8006,46
5.597,108,-0.2672,-3.5287,-9.8403,1.9557,-0.5787,1.1794,75,5.008,96,5.0942,4.6291,-12.7377,1.7414,1.2225,0.9379,84,5.284,102,13.382,1.5109,-11.9528,0.3135,-1.4927,-0.7899,75,84994.026,1643579,0.6697,3.3173,-10.0164,0.0982,1.3072,-1.9903,46
5.649,109,2.3068,-3.1377,-6.657,1.6409,-1.0441,1.4296,75,5.06,97,3.7534,4.7872,-12.2402,1.9427,0.8238,0.7611,84,5.336,103,11.135,-1.0597,-12.6269,0.3401,-1.5335,-1.2505,75,84994.078,1643580,-4.7428,5.7641,-10.5634,0.1155,1.4314,-2.1286,46
5.701,110,2.2126,-1.5699,-4.9085,0.8037,-1.1986,1.1554,75,5.111,98,6.112,5.9666,-13.0884,1.3599,0.0788,0.8066,84,5.388,104,11.3817,-3.4116,-10.0734,0.6899,-0.8496,-1.1333,75,84994.129,1643581,-3.3882,4.1572,-10.245,0.2287,1.3274,-0.8779,46
5.753,111,3.2243,4.2441,-7.9964,-0.0908,-1.5441,1.0394,75,5.163,99,7.8333,5.7664,-13.24,1.3835,-0.1528,0.051,84,5.44,105,9.9624,-4.2018,-9.3319,1.1594,0.0583,-0.9038,75,84994.181,1643582,-2.3112,2.9623,-10.0842,0.3152,1.2534,0.035,46
5.805,112,5.1867,1.2081,-8.0659,0.347,-0.6758,0.7802,75,5.215,100,8.7864,6.2116,-12.2329,1.3335,-0.6725,-0.4145,84,5.491,106,9.8768,-4.1704,-9.5517,1.5227,0.7209,-0.5646,75,84994.233,1643583,-1.4524,2.6111,-8.0751,0.587,1.6035,0.0561,46
5.856,113,3.7053,0.1653,-7.5999,0.9276,-0.0613,0.7436,75,5.267,101,9.2278,5.7678,-11.1452,0.468,-0.8511,-0.5317,84,5.543,107,11.3425,-4.22,-11.9834,1.7879,1.2045,-0.1101,75,84994.284,1643584,-1.0005,1.898,-7.5861,0.7827,1.859,0.0698,46
5.908,114,3.5515,-1.8549,-7.7983,0.2525,-0.4382,1.1725,75,5.319,102,9.1338,3.7951,-10.6492,0.2915,-0.5872,-0.7021,84,5.595,108,11.6534,-3.5415,-16.6826,1.9814,1.5575,0.0978,75,84994.336,1643585,-0.6623,1.3722,-7.2828,0.9277,2.0454,0.0806,46
5.96,115,2.8024,-3.8544,-8.5143,0.8308,-0.4825,1.1165,75,5.371,103,8.3619,2.9081,-10.4249,0.8845,-0.0334,-0.9694,84,5.647,109,9.0936,-2.1596,-20.1806,2.1226,1.3325,0.1735,75,84994.388,1643586,-0.4167,0.9987,-7.0599,1.0349,2.1815,0.089,46
6.012,116,4.0726,-4.9955,-9.3255,1.2601,-0.5655,0.9588,75,5.422,104,7.8567,2.8494,-10.5133,1.2666,0.5526,-0.9395,84,5.699,110,11.9027,0.0362,-21.1916,1.2889,0.2991,0.2892,75,84994.44,1643587,-0.2441,0.7324,-6.9181,1.114,2.2808,0.0952,46
6.064,117,3.9624,-6.2269,-10.8491,1.2968,-0.7377,1.0166,75,5.474,105,7.5678,2.3759,-11.4548,1.5905,1.0777,-0.8099,84,5.751,111,10.5269,0.3808,-20.7766,1.3371,-0.4293,0.2728,75,84994.491,1643588,2.0073,-0.2359,-8.0703,1.1327,2.3533,0.1174,46
6.115,118,2.9395,-5.4371,-9.5263,1.0486,-0.2271,1.2579,75,5.526,106,8.5099,3.4921,-12.228,1.8325,1.2576,-0.694,84,5.802,112,10.416,0.5435,-18.4236,1.1576,-0.5802,0.2052,75,84994.543,1643589,6.28,-0.2658,-13.3566,0.9513,2.3601,0.6119,46
6.167,119,1.2244,-5.1437,-8.9194,0.7961,0.1082,1.2469,75,5.578,107,9.0429,4.4557,-12.4736,1.9271,1.2904,-0.4179,84,5.854,113,10.1848,0.8584,-16.6967,1.0096,-0.7127,0.1639,75,84994.595,1643590,5.2115,-0.3904,-12.9541,0.2844,1.9677,0.3724,46
6.219,120,-2.3424,-5.0868,-12.4773,0.5989,0.0582,0.5763,75,5.63,108,8.4665,4.6325,-12.2594,1.6479,1.1778,-0.158,84,5.906,114,9.7481,0.5571,-15.6225,0.7958,-0.768,0.1308,75,84994.647,1643591,3.7628,-0.2886,-11.9616,-0.2429,1.63,0.1591,46
6.271,121,-2.8055,-5.4766,-15.2159,0.8867,-0.6269,-0.2545,75,5.681,109,7.7845,4.4243,-11.7612,1.5084,1.1684,-0.0035,84,5.958,115,9.8306,0.9206,-14.6465,0.6805,-0.8651,0.0357,75,84994.698,1643592,-1.3568,0.2702,-6.1667,-0.5617,1.3771,0.168,46
6.322,122,3.01,1.3929,-12.9952,1.3215,-1.1269,-0.8609,75,5.733,110,7.211,4.5339,-11.6421,1.6282,1.4611,0.0585,84,6.009,116,10.062,0.7926,-13.8183,0.3958,-1.0092,0.0156,75,84994.75,1643593,-0.9399,-0.2494,-6.1741,-0.2145,1.6937,0.2897,46
6.374,123,3.5651,2.423,-10.4865,0.2871,-0.1633,-0.214,75,5.785,111,6.3333,4.82,-11.6494,1.8601,1.734,0.0564,84,6.061,117,10.9085,0.5401,-13.1585,0.159,-1.3402,-0.2111,75,84994.802,1643594,-0.6481,-0.5715,-5.2699,0.0648,1.9248,0.687,46
6.426,124,7.6596,-3.2181,-6.9448,0.3809,-0.056,0.5204,75,5.837,112,7.0987,6.9836,-10.8472,2.028,1.7439,0.2186,84,6.113,118,13.2272,1.9617,-9.5822,-0.5573,-1.6515,-0.507,75,84994.854,1643595,-0.4252,-0.8083,-4.623,0.29,2.0935,1.0403,46
6.478,125,3.3761,-3.3387,-5.0096,0.9524,0.6416,0.5006,75,5.889,113,7.2484,5.3519,-11.0361,1.7667,1.8235,0.2611,84,6.165,119,11.8199,-0.8144,-12.5581,-0.2875,-1.8787,-1.0441,75,84994.905,1643596,-0.2592,-0.9809,-4.1354,0.4803,2.2166,1.2957,46
6.53,126,2.1359,-2.3439,-4.3436,0.0634,0.2799,0.8985,75,5.94,114,7.6505,5.7206,-10.0125,1.8944,1.6467,0.4206,84,6.217,120,13.7821,-1.9194,-12.2169,0.4667,-1.4203,-1.436,75,84994.957,1643597,-0.1342,-1.0985,-3.7743,0.6409,2.3064,1.4795,46
6.581,127,2.7955,-3.2908,-8.5826,0.21,0.8867,0.3861,75,5.992,115,7.5772,5.9765,-9.4899,0.7253,1.314,0.9723,84,6.268,121,14.7663,-2.9479,-10.3962,0.4978,-0.3784,-1.7221,75,84995.009,1643598,-0.0285,-1.1751,-3.5176,0.7847,2.372,1.612,46
6.633,128,-3.3364,-6.3782,-14.2604,0.7055,0.1247,-0.3933,75,6.044,116,6.8738,6.3341,-8.752,-0.1407,0.7709,1.375,84,6.32,122,14.0386,-7.3885,-11.4483,0.0262,0.4022,-1.4693,75,84995.061,1643599,0.072,-1.2362,-3.3315,0.9114,2.4198,1.7068,46
6.685,129,2.6226,-2.0954,-10.7616,1.1893,-0.3403,-0.6866,75,6.096,117,6.5414,6.3961,-8.5268,-0.6237,0.4672,1.3367,84,6.372,123,12.1483,-9.9624,-14.361,-0.1626,0.9719,-0.3946,75,84995.113,1643600,0.1436,-1.2816,-3.1826,1.0303,2.4548,1.7749,46
6.737,130,6.9605,1.4038,-14.3325,0.4845,-0.9177,-0.051,75,6.148,118,6.3412,5.4997,-8.1843,-0.6484,0.2507,0.6145,84,6.424,124,12.284,-2.364,-18.4861,-0.4854,1.3877,0.3897,75,84995.164,1643601,0.2875,-1.2131,-3.0223,1.0766,2.4803,1.8933,46
6.789,131,5.5543,-0.5214,-14.9174,-0.0013,0.0126,0.6391,75,6.199,119,6.4815,4.4578,-8.0002,-0.6259,0.1663,-0.1476,84,6.476,125,9.8877,1.637,-21.4969,-1.0295,1.0277,0.4658,75,84995.216,1643602,0.301,-1.3061,-3.2006,1.1328,2.4989,1.9786,46
6.84,132,5.6992,-3.9748,-14.5423,-0.6428,0.2572,1.1431,75,6.251,120,7.7623,1.9725,-9.1851,-0.4365,0.2241,-0.794,84,6.527,126,1.8923,0.2386,-19.9545,-0.0748,1.4267,-0.334,75,84995.268,1643603,0.3091,-1.4002,-3.2675,1.2006,2.5125,2.0394,46
6.892,133,2.0394,-5.2568,-14.2462,0.1723,0.8701,1.5072,75,6.303,121,10.5473,2.0014,-8.8251,0.3532,-0.069,-1.2658,84,6.579,127,1.7409,0.5291,-19.4721,-0.5616,1.3817,-0.5095,75,84995.319,1643604,-1.1479,-1.8931,0.1589,1.2427,2.5224,2.0489,46
6.944,134,2.2943,-3.778,-13.7387,0.8001,0.594,1.3671,75,6.355,122,10.209,1.5343,-8.1707,0.2162,-0.311,-0.9851,84,6.631,128,4.7219,0.0706,-17.757,-0.1511,0.7907,-0.5743,75,84995.371,1643605,-0.9651,-2.2028,-0.5762,1.4189,2.5296,2.171,46
6.996,135,-0.6042,-0.2777,-13.283,0.9607,0.1147,0.7486,75,6.407,123,10.0325,1.3886,-7.8863,0.0586,-0.5676,-0.6233,84,6.683,129,6.1883,2.5059,-16.1123,-0.3983,0.4495,-0.583,75,84995.423,1643606,-0.8707,-2.3989,-1.0856,1.5922,2.5349,2.2602,46
7.048,136,-1.6323,-4.5117,-11.0337,1.3755,-0.569,0.1325,75,6.458,124,10.1635,1.5082,-7.8182,0.2202,-0.4416,-0.651,84,6.735,130,6.4339,1.9048,-15.3973,-0.358,0.1999,-0.61,75,84995.475,1643607,-0.8016,-2.5219,-1.4854,1.7715,2.5387,2.3253,46
7.099,137,-4.3266,-2.8515,-8.5176,0.3266,-0.5377,0.0335,75,6.51,125,9.3433,2.1536,-7.5206,0.4546,-0.1806,-0.7847,84,6.786,131,6.6151,2.0889,-14.9124,-0.2821,-0.0352,-0.6475,75,84995.526,1643608,4.7733,-0.1738,-1.2349,1.9668,1.6705,1.1425,46
7.151,138,1.8999,-5.1516,-14.213,-0.439,-0.2897,0.7011,75,6.562,126,7.5288,2.8615,-7.1125,0.4126,0.0264,-0.7973,84,6.838,132,7.1309,2.3338,-14.377,-0.3154,-0.2822,-0.7285,75,84995.578,1643609,4.1395,-0.9586,-1.9295,2.1093,0.5561,0.1578,46
7.203,139,6.1902,0.2137,-18.0351,0.3532,0.1657,1.0366,75,6.614,127,6.066,4.2101,-6.3691,0.1519,0.0678,-0.6626,84,6.89,133,8.6305,2.2136,-14.2532,-0.4008,-0.5534,-1.0198,75,84995.63,1643610,-2.2104,-5.9575,1.1552,0.9779,0.9718,-0.4628,46
7.255,140,7.6056,1.7925,-15.8054,0.9322,0.1423,0.7769,75,6.666,128,6.6774,4.9838,-7.242,-0.5692,0.0551,-0.2296,84,6.942,134,11.5646,0.8223,-13.8721,-0.2264,-0.8093,-1.3776,75,84995.682,1643611,-2.4618,-4.0682,-0.2486,0.0358,0.9151,-1.0138,46
7.307,141,7.3868,1.565,-14.1003,1.2494,-0.5429,0.2562,75,6.717,129,8.461,5.0142,-9.2982,0.1389,0.0742,-0.2589,84,6.994,135,13.2874,-0.5501,-15.563,-0.5645,-1.012,-1.4859,75,84995.734,1643612,-2.6113,-2.6974,-1.2058,-0.6517,0.8262,-1.416,46
7.359,142,5.5161,0.6528,-10.3601,1.2746,-0.0215,-0.3852,75,6.769,130,8.9977,6.5056,-9.8056,0.7257,-0.0576,-0.4046,84,7.045,136,14.5071,-3.8988,-14.4859,0.2646,-1.228,-1.3786,75,84995.785,1643613,-2.7354,-1.7052,-1.9414,-1.1535,0.7037,-1.7095,46
7.41,143,0.9605,0.1034,-7.925,0.837,0.6323,-0.8311,75,6.821,131,7.9987,5.8606,-10.6306,0.0263,-0.3656,-0.3228,84,7.097,137,13.0236,-3.26,-12.1211,0.8696,-0.3436,-0.4952,75,84995.837,1643614,-2.8039,-0.9745,-2.4892,-1.5198,0.5568,-1.9237,46
7.462,144,-3.9683,-5.1222,-9.6322,0.9618,0.6272,-0.5516,75,6.873,132,7.6318,5.1011,-11.4298,-0.1078,-0.5184,-0.4069,84,7.15,138,11.9591,-1.5193,-10.2825,1.0858,0.4276,0.1756,75,84995.889,1643615,-1.4292,2.8523,-2.8745,-1.7871,0.2239,-2.0801,46
7.514,145,-1.3274,-2.3897,-5.7794,1.008,0.8166,-0.435,75,6.925,133,6.7697,4.7459,-11.343,-0.2847,-0.6465,-0.5322,84,7.201,139,11.8971,-1.0739,-10.9081,1.1112,0.9904,0.6113,75,84995.941,1643616,-3.0431,3.468,0.4654,-1.9822,0.462,-2.1942,46
7.566,146,4.0888,0.1754,-5.4879,0.0808,-0.0734,-0.7427,75,6.976,134,5.5579,4.385,-10.7464,-0.6029,-0.8604,-0.6393,84,7.253,140,12.2204,0.7647,-14.6951,0.4208,1.4012,1.1227,75,84995.992,1643617,-4.494,3.4211,-0.2203,-2.1245,1.0259,-2.2775,46
7.617,147,5.6335,-0.6115,-12.0018,-0.3307,-0.281,-0.2246,75,7.028,135,5.4199,4.8198,-10.2393,-1.1201,-0.9985,-0.5613,84,7.305,141,9.2999,4.4477,-18.73,-0.3681,1.701,1.4971,75,84996.044,1643618,-3.6712,3.2533,-1.0566,-2.2285,1.4374,-2.3383,46
7.669,148,9.1692,-3.3382,-12.8801,0.433,-0.1362,0.1436,75,7.08,136,6.8117,4.9536,-10.5277,-1.4975,-0.8285,-0.1974,84,7.356,142,12.0532,8.5981,-11.0859,0.4079,0.5681,0.4186,75,84996.096,1643619,-2.4019,2.4018,-4.5345,-2.3043,0.7567,-2.38,46
7.721,149,6.5845,-0.07,-12.3136,0.9904,0.583,-0.0026,75,7.132,137,7.3441,3.4454,-11.8954,-0.8179,-0.3744,-0.3617,84,7.408,143,13.739,7.132,-13.1783,-0.3008,-0.2588,-0.1821,75,84996.148,1643620,-2.237,1.8927,-4.5474,-2.3596,0.2299,-2.4131,46
7.773,150,4.1619,-1.2559,-9.0913,0.0455,0.4422,0.1864,75,7.184,138,8.5032,6.439,-11.3339,0.0748,-0.2851,-0.5965,84,7.46,144,13.9388,5.6109,-13.1321,-0.5344,-0.797,-0.3151,75,84996.199,1643621,-2.1226,1.4732,-4.5414,-2.4,-0.1855,-2.4372,46
7.825,151,3.2449,-1.9182,-6.7315,0.0386,1.0052,0.2854,75,7.235,139,7.9566,6.9501,-11.1801,-0.6255,-0.452,-0.0694,84,7.512,145,13.0046,3.9164,-13.2079,-0.2104,-0.8598,-0.385,75,84996.251,1643622,-2.0443,1.1275,-4.5434,-2.4295,-0.5255,-2.4549,46
7.876,152,-2.6689,-1.0168,-4.754,0.7025,1.416,0.8163,75,7.287,140,6.8297,6.2392,-11.117,-0.7417,-0.6192,-0.0121,84,7.564,146,10.7909,2.1184,-13.6233,-0.7339,-0.7914,-0.3796,75,84996.303,1643623,-1.859,1.0215,-5.6805,-2.4511,-0.7591,-2.4677,46
7.928,153,-4.5104,2.5252,-8.0837,1.0462,1.5305,0.2316,75,7.339,141,5.6072,6.5788,-10.2274,-0.4429,-0.5436,-0.2193,84,7.615,147,9.8218,1.1742,-13.7894,-0.6552,-0.8253,-0.3646,75,84996.354,1643624,3.1713,4.0696,-12.1714,-2.4668,-0.4435,-2.0114,46
7.98,154,-4.3124,4.2427,-13.8964,0.924,0.4477,-0.5061,75,7.391,142,3.9536,6.4338,-9.1606,-0.3798,-0.4797,-0.4798,84,7.667,148,8.1285,0.0792,-13.7075,-1.0109,-0.9045,-0.2254,75,84996.406,1643625,3.1595,3.3811,-13.8996,-2.0776,-0.0127,-1.3813,46
8.032,155,1.9102,1.7457,-16.6979,1.0925,-0.3426,-0.8676,75,7.443,143,2.5343,6.7041,-8.437,-0.6682,-0.6132,-0.6883,84,7.719,149,10.8132,0.7248,-13.5759,-1.413,-1.1579,-0.1287,75,84996.458,1643626,2.288,2.3905,-12.6638,-1.2295,0.2847,-0.6917,46
8.084,156,6.4518,6.6641,-20.1834,0.12,0.0072,-1.3068,75,7.495,144,2.3292,6.7363,-8.8042,-1.1341,-0.5843,-0.888,84,7.771,150,11.8819,-0.9699,-14.4902,-1.7065,-1.4891,-0.2465,75,84996.51,1643627,1.5643,1.5832,-17.2681,-0.9831,0.6136,-0.5297,46
8.135,157,9.7664,-0.334,-15.9723,-0.5898,0.5159,-0.2772,75,7.546,145,4.6312,8.9372,-9.947,-1.5029,-0.6002,-0.5431,84,7.823,151,9.3875,-0.6958,-15.9739,-1.9132,-1.4486,-0.0908,75,84996.561,1643628,0.9724,1.5995,-13.1946,-1.3954,1.1365,-0.5482,46
8.187,158,12.1855,1.3354,-11.3665,0.2439,-0.0322,-0.0224,75,7.598,146,7.0045,9.9145,-11.3096,-1.2894,-0.3778,-0.2424,84,7.874,152,8.8492,-1.9236,-13.9496,-1.0329,-0.8412,0.5792,75,84996.613,1643629,0.5906,1.6198,-9.8934,-1.6963,1.5181,-0.8286,46
8.239,159,9.319,1.5478,-8.2396,0.3845,0.6589,0.1572,75,7.65,147,7.192,10.1868,-11.5538,-0.5491,-0.3344,-0.5031,84,7.926,153,9.746,-1.2111,-12.3428,-0.4163,-0.1236,1.1004,75,84996.665,1643630,0.3241,1.6448,-7.4811,-1.9159,1.7967,-1.1332,46
8.291,160,6.6056,0.9498,-6.028,-0.3968,1.031,-0.0318,75,7.702,148,6.6586,9.0803,-11.9009,-0.7783,-0.419,-0.0335,84,7.978,154,10.1887,-0.3748,-10.8011,-0.8755,0.5882,1.4809,75,84996.717,1643631,0.1316,1.6758,-5.7387,-2.0762,2.0,-1.3521,46
8.342,161,4.1675,-1.9792,-4.8306,-0.8262,1.4349,-0.0995,75,7.754,149,5.5592,8.2859,-12.2895,-0.5781,-0.4379,0.2372,84,8.03,155,10.9115,-0.2841,-10.2097,-1.2968,1.1076,1.7586,75,84996.768,1643632,0.0023,1.7156,-4.461,-2.1932,2.1483,-1.5069,46
8.394,162,0.939,-4.8251,-3.1263,-0.4782,1.6839,-0.4491,75,7.806,150,4.127,7.9197,-12.1082,-0.5876,-0.5231,0.4029,84,8.082,156,11.5606,0.3813,-10.9279,-1.2273,1.4867,1.9612,75,84996.82,1643633,-0.0928,1.754,-3.5235,-2.2785,2.2566,-1.6136,46
8.446,163,0.5207,-4.8531,-3.9774,0.2299,1.8619,-0.3946,75,7.857,151,2.9567,8.0077,-11.9322,-0.555,-0.6292,0.5685,84,8.133,157,11.3353,2.0901,-13.1912,-1.5653,1.7634,2.0711,75,84996.872,1643634,5.2084,1.9191,-0.0082,-2.2842,2.3356,-1.6428,46
8.498,164,-1.8624,-0.3249,-9.0487,0.8421,0.923,-0.497,75,7.909,152,1.9126,8.9633,-11.5819,-0.534,-0.8912,0.456,84,8.185,158,9.8216,4.6859,-14.7317,-1.2474,1.3265,1.363,75,84996.924,1643635,6.1033,6.2403,0.8468,-1.1465,2.3933,-1.6335,46
8.55,165,-1.0538,-0.457,-13.8437,-0.0627,0.5702,-1.0379,75,7.961,153,2.1815,10.026,-11.0535,-1.0621,-1.3164,0.1807,84,8.237,159,11.5272,2.9786,-18.7567,-0.357,0.3427,0.4635,75,84996.976,1643636,4.7425,4.8094,-1.4432,-0.1629,2.4354,-1.6486,46
8.602,166,3.2908,0.2807,-18.1002,-0.3933,-0.1255,-0.876,75,8.013,154,2.8616,8.7002,-11.3019,-1.4552,-1.521,-0.2289,84,8.289,160,10.9959,2.2247,-18.9835,-0.7168,-0.4233,0.2736,75,84997.027,1643637,-0.9792,-1.3783,1.5101,-0.4411,1.1149,-1.7484,46
8.654,167,6.63,-4.9928,-17.7227,-0.9645,0.5839,-0.2168,75,8.065,155,6.4407,9.0516,-11.3561,-1.568,-1.7292,-0.6304,84,8.341,161,11.0636,0.7029,-17.6928,-0.5944,-0.4382,0.1235,75,84997.079,1643638,-0.6727,-1.3386,-0.1926,-0.9067,0.1506,-1.8351,46
8.705,168,9.8964,-4.2317,-12.6296,-0.1847,-0.2007,0.1742,75,8.116,156,8.4459,7.9089,-11.6194,-1.6054,-1.5445,-0.5061,84,8.392,162,10.4924,0.2149,-16.2925,-0.3638,-0.4029,0.0425,75,84997.131,1643639,-0.5011,-1.2809,-1.2125,-1.2259,-0.5532,-1.9009,46
8.757,169,8.6239,-4.1832,-9.3988,-0.729,0.5359,0.4851,75,8.168,157,8.5411,7.2299,-12.3256,-0.8804,-1.2856,-0.2511,84,8.444,163,10.0915,-1.2472,-15.1719,-0.6125,-0.3839,0.0994,75,84997.183,1643640,-0.3689,-1.2468,-1.9562,-1.4346,-1.0668,-1.9509,46
8.809,170,7.0815,-5.3957,-6.7165,-1.1967,1.0736,0.8149,75,8.22,158,7.1948,7.0446,-12.3388,-0.6592,-1.0883,-0.0778,84,8.496,164,9.776,-2.3448,-14.2329,-0.7879,-0.4479,-0.0119,75,84997.234,1643641,-0.2989,-1.2312,-2.4982,-1.566,-1.4417,-1.9905,46
8.861,171,6.3977,-5.3751,-5.2093,-0.787,1.4659,1.0124,75,8.272,159,4.9366,7.2348,-11.9623,-0.7178,-1.0277,0.0718,84,8.548,165,9.4444,-2.4152,-13.7279,-1.0327,-0.627,-0.1141,75,84997.286,1643642,-0.2435,-1.2178,-2.8771,-1.6365,-1.7153,-2.0228,46
8.913,172,4.5906,-4.749,-4.6407,0.0332,1.7523,0.9298,75,8.324,160,3.0673,7.6651,-11.4329,-1.0802,-1.1781,0.1134,84,8.6,166,9.4679,-2.2721,-13.4947,-1.1894,-0.9897,-0.1016,75,84997.338,1643643,0.5939,-1.807,-4.7384,-1.6624,-1.915,-2.0435,46
8.964,173,4.5361,-4.053,-6.041,0.6921,1.9613,0.3834,75,8.375,161,2.1585,8.1119,-10.7829,-1.3209,-1.4647,-0.2085,84,8.651,167,11.5981,-1.6908,-12.5586,-1.5433,-1.3957,0.1292,75,84997.389,1643644,2.7868,-3.0534,-11.2256,-1.5273,-2.0607,-1.5706,46
9.016,174,3.4752,-0.8849,-6.2589,1.1795,2.0455,-0.3932,75,8.427,162,1.651,7.721,-10.3746,-1.5031,-1.6812,-0.6887,84,8.703,168,10.9589,-5.0329,-15.3416,-1.8016,-1.692,0.4289,75,84997.441,1643645,2.9578,-2.1376,-11.3672,-1.7674,-0.915,-1.6991,46
9.068,175,2.1343,3.3452,-10.005,0.4064,0.9278,-0.3747,75,8.479,163,2.106,8.1055,-11.1854,-1.4152,-1.8793,-0.8567,84,8.755,169,8.7587,-5.2161,-13.5949,-1.9901,-1.3431,0.7689,75,84997.493,1643646,1.9988,-0.932,-9.5601,-1.9678,0.0209,-1.9161,46
9.12,176,0.2064,3.6553,-12.0292,0.7865,0.0078,-0.9486,75,8.531,164,4.778,10.4839,-13.7373,-1.7099,-1.7842,-0.323,84,8.807,170,8.6011,-5.0863,-10.8093,-1.2613,-0.5505,1.2389,75,84997.545,1643647,0.7172,-0.1467,-8.2207,-1.6918,0.4516,-2.0745,46
9.171,177,2.1582,3.8066,-10.6458,0.1232,-0.3568,-1.1341,75,8.583,165,4.5486,8.9149,-14.3412,-1.5967,-1.4992,-0.3293,84,8.859,171,9.5845,-3.2317,-8.3803,-0.7673,0.2766,1.5819,75,84997.597,1643648,0.3231,-0.1722,-9.1903,-1.7559,0.3586,-2.1901,46
9.223,178,6.6328,8.1682,-12.319,-0.5874,-0.9297,-1.4993,75,8.634,166,5.5719,9.1566,-12.9504,-1.7978,-1.6912,0.1548,84,8.91,172,10.9876,-0.7635,-7.5154,-0.4436,0.8802,1.8323,75,84997.648,1643649,0.0033,0.0093,-9.3148,-1.8029,0.2864,-2.2745,46
9.275,179,6.8221,0.7638,-14.5457,-1.1061,-0.1599,-0.4176,75,8.686,167,6.2398,7.2911,-12.0359,-1.9919,-1.4825,0.7682,84,8.962,173,12.9133,1.9954,-9.6679,-0.6758,1.3208,1.9306,75,84997.7,1643650,-0.2243,0.1447,-9.389,-1.8376,0.2273,-2.3361,46
9.327,180,9.3332,-1.597,-11.8266,-0.1329,0.3312,0.1959,75,8.738,168,6.4666,6.0307,-11.4321,-1.5361,-0.9381,0.9676,84,9.014,174,12.7367,3.1924,-15.061,-1.1685,1.5819,1.513,75,84997.752,1643651,-0.3902,0.2268,-9.4451,-1.8633,0.1767,-2.381,46
9.379,181,7.7829,-3.9923,-10.1437,-0.7596,0.7216,0.3944,75,8.79,169,6.119,5.9806,-11.347,-1.3469,-0.421,0.8344,84,9.066,175,14.5239,3.232,-18.997,-0.5245,0.7562,0.7414,75,84997.804,1643652,-0.5052,0.269,-9.4934,-1.8824,0.1341,-2.4139,46
9.43,182,7.5799,-6.3075,-7.3459,-1.0265,1.1483,0.5623,75,8.842,170,5.3145,5.4786,-11.3986,-0.5717,-0.0894,0.5916,84,9.118,176,15.8659,2.5173,-16.2784,-0.9955,-0.1215,0.7333,75,84997.855,1643653,-0.4087,0.7981,-9.2766,-1.8417,0.1298,-2.4378,46
9.482,183,7.2146,-6.2288,-5.0723,-0.0748,1.5202,0.6031,75,8.893,171,4.8018,7.245,-11.2658,0.0597,-0.1599,0.6633,84,9.169,177,13.9909,0.562,-15.1469,-0.9536,-0.1259,0.6231,75,84997.907,1643654,-1.8169,1.151,-8.8139,-1.6984,0.0319,-2.4553,46
9.534,184,4.824,-4.053,-7.1673,0.5843,1.7919,0.613,75,8.945,172,5.4172,9.1936,-10.7476,-0.6115,-0.7751,0.918,84,9.221,178,12.6832,-0.4786,-14.2257,-0.6089,-0.1096,0.4436,75,84997.959,1643655,-1.9412,1.4082,-8.2629,-1.4437,-0.1526,-2.4676,46
9.586,185,6.7041,-1.3091,-6.945,0.4334,1.9902,0.0558,75,8.997,173,6.8339,7.9068,-10.7591,-1.1263,-1.2001,0.7654,84,9.273,179,11.5217,-2.0082,-13.6811,-0.8223,-0.2221,0.3197,75,84998.011,1643656,-6.0956,4.911,-4.392,-0.5913,-0.695,-1.6331,46
9.637,186,0.7362,-0.9542,-10.9663,-0.0475,2.135,-0.574,75,9.049,174,7.3991,6.4977,-10.4631,-1.1073,-1.0935,-0.0491,84,9.325,180,10.8591,-1.5661,-13.2174,-0.917,-0.3819,0.1933,75,84998.062,1643657,-4.843,4.0076,-5.1495,0.2424,-1.1703,-0.5162,46
9.689,187,-0.1606,-0.8282,-9.1118,-0.1858,0.8889,-1.094,75,9.101,175,7.6147,5.7455,-10.2341,-0.966,-1.0729,-0.7152,84,9.376,181,10.2759,-1.7879,-13.1217,-0.8765,-0.5672,0.11,75,84998.114,1643658,-3.9071,3.3161,-5.6494,0.8508,-1.5172,0.2989,46
9.741,188,4.9404,-4.0034,-5.4127,0.1934,-0.0206,-1.4736,75,9.153,176,7.213,4.9872,-10.062,-1.1595,-1.0478,-1.0313,84,9.428,182,9.6769,-1.7178,-13.3771,-0.7806,-0.7718,0.0425,75,84998.166,1643659,2.5068,-2.8376,-12.1487,0.3161,-1.7704,0.8813,46
9.793,189,-1.6308,2.4681,-2.668,-0.5362,0.6674,-1.3971,75,9.205,177,5.6601,4.3759,-10.0036,-1.1274,-1.0132,-1.3689,84,9.48,183,10.1693,-1.6939,-13.2412,-0.735,-0.9951,0.002,75,84998.218,1643660,2.1709,-1.9817,-11.7865,-0.4472,-1.423,1.3189,46
9.845,190,2.7791,-2.7135,-6.3487,-1.0291,0.6317,-0.343,75,9.256,178,8.1047,5.5693,-10.7687,-1.4921,-0.9341,-0.8525,84,9.532,184,11.8726,-0.9117,-12.7951,-0.9385,-1.3899,0.1593,75,84998.269,1643661,1.9853,-1.3116,-10.9943,-1.0042,-1.1526,1.6383,46
9.896,191,6.6898,-2.8617,-6.3526,-0.0858,0.4839,-0.8062,75,9.308,179,8.4316,3.9924,-11.4045,-1.0208,-0.6861,-1.0225,84,9.584,185,13.1773,-1.0792,-15.7192,-1.3602,-1.6878,0.5553,75,84998.321,1643662,1.8433,-0.8342,-10.4549,-1.4108,-0.9335,1.8714,46
9.948,192,6.1431,-2.7865,-5.3821,-0.1123,0.0798,-0.7185,75,9.36,180,8.5718,4.3404,-11.2428,-0.0733,-0.7252,-1.0306,84,9.635,186,12.4016,-3.5755,-14.4304,-1.6679,-1.786,0.8268,75,84998.373,1643663,1.7328,-0.4937,-10.0715,-1.7075,-0.756,2.0415,46
10.0,193,3.6023,-5.0772,-4.9082,-0.7594,0.7407,-0.2757,75,9.412,181,7.9279,5.46,-11.4082,0.6182,-0.619,-0.4953,84,9.687,187,9.972,-3.2614,-11.9263,-1.6777,-0.7903,0.9634,75,84998.425,1643664,2.3643,1.865,-6.3572,-1.8535,-0.0786,2.1657,46
10.052,194,2.6588,-5.9043,-4.2583,-0.4142,0.4077,-0.1877,75,9.464,182,7.1183,6.6729,-11.6668,0.4954,-0.7209,0.2397,84,9.739,188,8.2554,-1.693,-10.3404,-1.833,0.1016,1.3078,75,84998.477,1643665,3.9633,0.5668,-6.1627,-1.9307,0.254,2.2563,46
10.104,195,0.5416,-3.7504,-5.4743,0.2599,0.98,-0.1008,75,9.515,183,6.1845,6.7817,-11.9604,0.048,-0.9483,0.7068,84,9.791,189,7.9673,-1.4437,-10.1813,-1.3162,0.7525,1.6322,75,84998.528,1643666,4.3048,-0.8271,-2.8077,-1.7504,-0.3067,2.3224,46
10.156,196,-4.3068,-7.1214,-1.8543,0.8262,0.8816,-0.7152,75,9.567,184,5.1523,6.8812,-11.8211,-0.1391,-1.0654,0.7561,84,9.843,190,9.3121,-1.4856,-11.2035,-0.2841,1.2276,1.869,75,84998.58,1643667,7.061,-0.7204,-1.5101,-0.9102,-0.8218,2.3707,46
10.207,197,-5.7157,-5.4267,-2.7525,0.0919,1.2639,-1.0058,75,9.619,185,4.6547,6.4915,-11.6737,-0.466,-1.1079,0.6927,84,9.894,191,12.0621,2.3694,-13.9878,0.2734,1.5743,1.931,75,84998.632,1643668,5.1323,-0.3531,-3.5756,-0.2447,-1.2628,2.0639,46
10.259,198,0.886,-7.4075,-1.179,-0.6103,0.2532,-1.2635,75,9.671,186,4.4823,5.7852,-11.6445,-0.6392,-0.9486,0.4871,84,9.946,192,10.4033,1.6519,-18.2138,-0.2323,1.8273,1.6607,75,84998.684,1643669,3.7206,-0.0603,-4.9466,0.2333,-1.5848,1.8377,46
10.311,199,1.6425,-4.1631,-8.857,-0.7859,-0.1467,-1.5973,75,9.723,187,5.5433,6.6449,-11.7391,-0.7868,-0.7424,0.3521,84,9.998,193,11.9744,-1.8169,-10.7092,-0.1786,0.8565,0.8922,75,84998.736,1643670,7.5548,-0.3831,-1.7345,-0.4551,-0.5487,1.9591,46
10.363,200,6.2564,-2.1207,-7.4102,-0.2013,0.033,-1.1096,75,9.774,188,8.5278,5.8393,-12.8343,-1.0225,-0.5318,0.2444,84,10.05,194,14.0052,2.7296,-13.5403,0.5462,0.9655,0.0324,75,84998.787,1643671,5.8532,-0.734,-3.1244,-0.9824,0.2882,2.1055,46
10.415,201,4.1134,-2.5304,-5.9697,-0.8243,0.7033,-0.1334,75,9.826,189,8.9046,4.9574,-12.8731,-0.0746,-0.5783,-0.2861,84,10.102,195,15.4873,0.9261,-13.1874,0.2228,0.3164,0.1841,75,84998.839,1643672,4.6264,-0.9813,-4.0542,-1.3456,0.899,2.2124,46
10.466,202,1.5802,-7.0445,-5.6349,-1.0186,0.516,0.5174,75,9.878,190,9.2939,4.7283,-12.3486,0.1473,-0.3372,-0.1729,84,10.153,196,13.5472,0.0494,-12.8882,-0.3027,0.1442,0.1176,75,84998.891,1643673,3.7275,-1.1746,-4.736,-1.5816,1.3448,2.2904,46
10.518,203,2.3446,-8.6435,-5.1222,-0.4398,1.0158,0.9871,75,9.93,191,8.2898,4.0539,-11.7526,0.0142,-0.0676,0.1937,84,10.205,197,12.2792,-0.4434,-12.2547,0.0174,0.093,-0.114,75,84998.942,1643674,3.0749,-1.3081,-5.2287,-1.7281,1.6701,2.3473,46
10.57,204,2.3567,-7.7894,-4.6017,0.3313,1.3618,1.2039,75,9.982,192,7.341,3.8034,-11.5581,0.1039,0.2679,0.4142,84,10.257,198,11.206,-1.2075,-11.714,0.1394,-0.1683,-0.2246,75,84998.994,1643675,-0.0427,-1.752,-5.5984,-1.7708,1.9076,2.3889,46
10.622,205,1.8227,-10.6384,-6.436,0.3764,1.5366,1.2701,75,10.033,193,6.8052,3.4211,-11.7192,0.3188,0.5723,0.4531,84,10.309,199,10.5306,-0.9793,-12.0389,0.1914,-0.5629,-0.3579,75,84999.046,1643676,-5.2627,-0.0845,-12.1115,-1.3613,1.8096,1.9895,46
10.674,206,3.6462,-5.8148,-9.9372,0.9491,1.8038,0.6545,75,10.085,194,6.3362,3.5049,-11.9393,0.8154,0.8596,0.3268,84,10.361,200,10.2644,-0.9162,-12.1032,0.0916,-0.8093,-0.3377,75,84999.098,1643677,-5.9395,-1.6967,-11.6776,-1.119,1.1231,1.0459,46
10.725,207,1.5636,-2.8523,-15.2491,0.5391,0.9534,0.4132,75,10.137,195,6.1145,4.0424,-12.2657,0.9557,0.9957,0.2993,84,10.412,201,10.1284,-0.9848,-12.5125,-0.1255,-0.9909,-0.2584,75,84999.149,1643678,-4.181,-1.3333,-11.0127,-0.7094,0.2292,0.0873,46
10.777,208,5.2359,-1.3883,-14.4876,0.2262,0.0265,-0.32,75,10.189,196,5.3409,4.5295,-12.2933,1.1113,0.9828,0.292,84,10.464,202,11.3699,-0.5648,-12.4,-0.4031,-1.3233,-0.2578,75,84999.201,1643679,-2.8446,-1.0328,-10.5636,-0.402,-0.4177,-0.6124,46
10.829,209,8.879,-4.1317,-16.7615,-0.5123,-0.65,0.3047,75,10.241,197,4.6573,4.9785,-12.5293,0.9574,0.7663,0.4135,84,10.516,203,13.564,1.8295,-9.9745,-0.9694,-1.5626,-0.2841,75,84999.253,1643680,-3.6026,0.4506,-5.1464,-0.9712,0.3745,0.2288,46
10.881,210,8.2456,-6.435,-14.6283,-1.0513,-0.2741,0.8687,75,10.292,198,5.8504,6.759,-12.9613,0.8585,0.5008,0.5429,84,10.568,204,15.1653,-1.1956,-12.5437,-0.6823,-1.8138,-0.8502,75,84999.305,1643681,-0.925,-0.6113,-4.2871,-1.3867,0.962,0.8427,46
10.932,211,7.2426,-9.4251,-12.2441,-0.5522,-0.3993,0.4767,75,10.344,199,9.1681,7.0936,-14.2593,0.5738,0.0502,-0.1709,84,10.619,205,13.6645,-3.0215,-8.7035,0.0652,-0.9804,-1.0858,75,84999.356,1643682,0.9257,-1.4653,-3.6772,-1.69,1.3908,1.2907,46
10.984,212,5.9702,-9.7292,-11.8298,0.2713,-0.5001,0.2769,75,10.396,200,9.8736,6.9178,-13.5816,0.7753,-0.2504,-0.8111,84,10.671,206,11.2859,-2.444,-6.857,0.3599,-0.0372,-0.9344,75,84999.408,1643683,2.2262,-2.1529,-3.2355,-1.9113,1.7037,1.6177,46
11.036,213,5.1816,-9.7905,-11.5635,0.8724,-0.4206,0.6756,75,10.448,201,9.4123,8.1863,-10.299,-0.0354,-0.3771,-1.2697,84,10.723,207,10.4575,-2.2105,-7.5363,0.4904,0.6512,-0.5436,75,84999.46,1643684,3.1969,-2.1402,-2.7321,-2.0728,1.9321,1.8564,46
11.088,214,4.4278,-10.8699,-12.0524,1.1457,-0.4682,1.1697,75,10.5,202,10.0206,4.9911,-9.241,-0.7059,-0.2205,-0.9553,84,10.775,208,10.7794,-1.3637,-13.333,1.0345,1.1536,-0.4042,75,84999.512,1643685,6.1224,0.8628,-2.4873,-2.1907,2.0988,2.0305,46
11.14,215,8.2892,-11.6597,-15.0385,1.5105,-1.0111,0.9688,75,10.552,203,10.7992,2.6561,-8.5428,0.1272,0.5182,-1.3624,84,10.827,209,9.7806,1.3072,-17.7359,1.4315,1.456,-0.9299,75,84999.563,1643686,8.1612,3.0643,-1.6345,-1.8705,2.2205,2.1577,46
11.191,216,8.527,-7.5893,-14.3163,1.7768,-0.6039,1.1863,75,10.604,204,11.529,2.6515,-9.9025,0.7646,1.0573,-1.6718,84,10.878,210,12.4041,-1.1129,-16.3764,1.3834,0.7175,-0.818,75,84999.615,1643687,11.3148,6.1816,-0.8882,-1.4304,1.9891,1.6788,46
11.243,217,5.8188,-4.8012,-13.4935,1.0174,-0.6098,1.3588,75,10.655,205,9.8331,2.5101,-11.7862,1.2297,1.4507,-1.7142,84,10.93,211,12.3555,-0.0229,-14.8997,1.1739,-0.1266,-0.7159,75,84999.667,1643688,9.3035,5.9705,-3.0289,-0.3701,1.0671,0.5492,46
11.295,218,-0.2161,-3.4957,-13.8217,0.8395,-0.325,0.6749,75,10.707,206,8.1379,5.1954,-12.3921,1.5692,1.7379,-1.0803,84,10.982,212,12.0108,1.7764,-14.3435,0.7677,-0.2859,-0.4229,75,84999.718,1643689,7.0554,4.2626,-4.5329,0.4037,0.3671,-0.2752,46
11.347,219,2.4373,-1.6325,-14.3559,0.8054,-0.9066,-0.1685,75,10.759,207,7.2941,6.4853,-13.5913,0.6084,1.9475,-0.1231,84,11.034,213,11.5805,1.2951,-14.1508,0.5534,-0.506,-0.3179,75,84999.77,1643690,5.3873,2.9583,-5.6355,0.9686,-0.1323,-0.8769,46
11.399,220,4.4517,-6.3024,-13.4524,1.2351,-1.331,-0.7981,75,10.811,208,5.851,6.5952,-13.9148,0.2484,2.1004,0.4946,84,11.086,214,10.6874,1.3663,-13.8771,0.3664,-0.6868,-0.3024,75,84999.822,1643691,4.3102,3.1162,-8.3298,0.0575,0.5856,-1.3161,46
11.451,221,8.3067,-3.9657,-14.4299,1.1703,-1.2001,-0.5803,75,10.863,209,3.9207,6.5444,-13.7426,0.5282,2.2121,0.8389,84,11.137,215,10.3484,1.0533,-13.739,0.1725,-0.9338,-0.4398,75,84999.874,1643692,2.5988,3.0576,-7.7103,-0.6359,1.1161,-1.6366,46
11.502,222,9.0964,-6.4468,-12.6142,0.4095,-0.5741,0.2531,75,10.914,210,1.4358,6.9103,-12.8585,0.196,2.2443,1.2752,84,11.189,216,12.8185,1.7024,-10.4434,-0.423,-1.3549,-0.5271,75,84999.926,1643693,1.32,3.0062,-7.2355,-1.142,1.5032,-1.8705,46
11.554,223,7.3717,-5.2937,-10.517,0.944,-0.0629,0.705,75,10.966,211,2.3865,7.9649,-12.8215,0.2969,1.4593,1.5961,84,11.241,217,12.7483,-0.2017,-13.4319,-0.4099,-1.6623,-1.026,75,84999.977,1643694,0.3765,2.936,-6.8884,-1.5113,1.7858,-2.0412,46
11.606,224,5.4444,-5.3824,-8.7423,0.8089,0.0885,0.5849,75,11.018,212,5.2353,9.8958,-12.7183,0.8884,1.1571,1.3966,84,11.293,218,12.9077,-0.4329,-13.3283,0.3774,-1.1596,-1.4229,75,85000.03,1643695,-0.3075,2.8811,-6.6342,-1.7809,1.992,-2.1658,46
11.658,225,5.3777,-6.7289,-7.7551,0.6458,0.0256,0.703,75,11.07,213,4.4317,11.3317,-10.7105,0.597,0.6026,1.1391,84,11.345,219,11.4295,0.0489,-12.0377,0.8329,-0.1704,-1.7125,75,85000.081,1643696,-0.8116,2.8327,-6.4409,-1.9777,2.1425,-2.2568,46
11.709,226,5.5924,-6.703,-7.3704,1.1457,0.2704,0.8672,75,11.121,214,5.0826,9.5731,-9.1488,-0.2443,-0.0818,1.0647,84,11.396,220,10.8955,-2.3228,-12.2178,0.9493,0.554,-1.9239,75,85000.133,1643697,-1.2016,2.804,-6.2866,-2.1213,2.2524,-2.3232,46
11.761,227,6.8791,-7.6756,-6.452,1.4705,0.7014,1.1171,75,11.173,215,5.2468,7.3016,-8.3358,0.3173,0.1926,0.3281,84,11.448,221,11.4166,-4.2734,-12.8042,1.3693,1.0827,-1.832,75,85000.185,1643698,-3.1507,1.8555,-9.1426,-2.2261,1.7816,-2.3716,46
11.813,228,5.5723,-5.8601,-6.7602,1.104,1.1943,1.3874,75,11.225,216,5.4233,6.7239,-8.7049,0.9033,0.593,-0.3812,84,11.5,222,12.5999,-6.0317,-14.0753,1.6759,1.4685,-1.2309,75,85000.236,1643699,-4.7031,-0.069,-9.9186,-1.7053,1.32,-1.5461,46
11.865,229,3.2707,-3.6847,-8.9506,0.3446,1.1959,1.1581,75,11.277,217,5.7146,7.3531,-9.3291,1.331,0.8745,-0.7703,84,11.552,223,13.5452,-5.6518,-15.1187,1.8997,1.7502,-0.5346,75,85000.288,1643700,-3.4036,0.1477,-9.7065,-0.8128,0.4274,-0.4546,46
11.917,230,0.7475,-3.6861,-11.558,0.4609,0.2526,0.2457,75,11.329,218,4.9649,7.0697,-9.5905,1.1743,0.9301,-0.6606,84,11.604,224,13.5992,-5.2817,-17.7901,1.9712,1.9557,0.2828,75,85000.34,1643701,-2.4391,0.3471,-9.5379,-0.1705,-0.2266,0.3418,46
11.968,231,5.5467,-3.8677,-7.5867,1.0107,-0.485,-0.4958,75,11.381,219,4.1536,6.6467,-9.8232,0.9516,0.8813,-0.3507,84,11.656,225,10.7319,-4.0946,-20.1045,1.6973,1.8869,0.477,75,85000.392,1643702,1.2108,-3.9641,-12.4472,-0.8023,0.5187,0.9112,46
12.02,232,8.964,2.5671,-13.5336,0.4992,-1.0233,-0.8632,75,11.432,220,3.7975,6.6521,-10.1755,0.8901,0.8856,-0.1888,84,11.707,226,13.0984,-2.9069,-12.4998,1.9153,0.812,-0.052,75,85000.443,1643703,1.6141,-3.4437,-9.9251,-1.2635,1.0672,1.3407,46
12.072,233,8.7995,1.5862,-12.2779,0.3494,-0.0678,-0.5162,75,11.484,221,5.2935,6.3685,-10.788,1.0145,0.8711,0.1386,84,11.759,227,8.9134,-0.2246,-12.9149,1.6683,-0.0807,0.1414,75,85000.495,1643704,1.9525,-3.0779,-8.0536,-1.6,1.4676,1.6542,46
12.124,234,8.2409,-2.5886,-12.0956,-0.1655,-0.6358,0.1335,75,11.536,222,6.335,8.3917,-9.8225,1.4122,0.7112,0.3012,84,11.811,228,9.0506,0.2381,-13.1085,1.0747,-0.3048,0.1914,75,85000.547,1643705,2.1696,-2.8268,-6.6886,-1.8456,1.7598,1.883,46
12.176,235,5.7495,-5.0409,-11.1662,0.5536,-0.3921,0.1003,75,11.588,223,7.8297,8.5427,-9.6838,0.3506,0.0939,0.6655,84,11.863,229,10.0428,0.3649,-12.4143,0.9025,-0.483,0.2264,75,85000.599,1643706,2.6826,-2.1555,-6.0076,-2.0249,1.973,2.05,46
12.227,236,5.7711,-6.8751,-9.8322,1.0728,-0.7834,0.6748,75,11.64,224,6.8669,7.2393,-9.3536,-0.342,0.0239,0.3967,84,11.914,230,9.6929,0.2819,-12.5009,0.4697,-0.5356,0.2057,75,85000.65,1643707,2.804,-1.8074,-5.7968,-2.1557,2.1287,2.1719,46
12.279,237,5.0198,-6.007,-8.974,1.0084,-0.328,1.16,75,11.691,225,4.9016,6.4655,-8.7524,-0.4518,-0.1681,0.165,84,11.966,231,9.3519,0.3629,-12.473,0.3588,-0.528,0.2115,75,85000.702,1643708,2.7687,-1.6424,-5.7354,-2.2512,2.2423,2.2608,46
12.331,238,4.8648,-5.9358,-8.6222,0.698,0.0831,1.4672,75,11.743,226,4.093,5.794,-8.3264,-0.2411,-0.1886,-0.0677,84,12.018,232,8.7199,-0.0279,-12.7367,0.1564,-0.5538,0.1766,75,85000.754,1643709,3.4207,0.0272,-6.085,-2.3199,2.3252,2.3257,46
12.383,239,4.7693,-5.7006,-8.768,0.6947,0.3809,1.6849,75,11.795,227,4.1912,5.7213,-8.2389,0.1848,-0.0567,-0.2206,84,12.07,233,8.8122,0.3426,-12.817,0.1192,-0.6227,0.1077,75,85000.806,1643710,7.3323,4.1313,-1.8777,-1.3011,2.3857,1.8081,46
12.434,240,5.7129,-5.478,-8.1678,0.7883,-0.0465,1.44,75,11.847,228,4.3708,5.5526,-8.5905,0.8009,0.2021,-0.4535,84,12.122,234,9.2003,0.7749,-12.6581,0.1045,-0.7252,0.0014,75,85000.857,1643711,8.4778,7.4568,-4.1873,-0.2757,2.1483,0.6435,46
12.486,241,2.8468,-2.1195,-13.5041,0.7957,0.1391,1.2137,75,11.899,229,4.8525,6.1485,-8.6478,1.1343,0.1442,-0.3935,84,12.173,235,11.3236,1.3287,-10.8911,-0.4635,-1.1837,-0.0366,75,85000.909,1643712,6.7735,5.6129,-5.1609,0.4726,1.8656,-0.2064,46
12.538,242,3.1126,-4.2833,-12.4899,0.2967,-0.5678,0.5269,75,11.95,230,5.4254,6.3462,-8.83,0.9445,0.0587,-0.0677,84,12.225,236,13.5302,-1.8091,-9.4607,-0.9975,-1.5373,-0.2641,75,85000.961,1643713,5.5022,4.0273,-5.8998,1.0188,1.6844,-0.8267,46
12.59,243,5.0422,-3.1564,-9.3895,-0.4608,-1.0837,-0.0961,75,12.002,231,6.6232,7.1047,-9.2365,0.5188,-0.0684,0.1696,84,12.277,237,14.2801,-2.8488,-10.7558,-0.4889,-1.7954,-0.8644,75,85001.013,1643714,3.6756,2.9324,-6.5795,0.0657,0.9515,-1.2794,46
12.642,244,8.7376,-7.5014,-9.8859,0.1222,-0.8344,-0.3166,75,12.054,232,8.2573,6.4851,-10.0155,0.5637,0.0848,0.0253,84,12.329,238,13.2071,-3.8064,-10.7002,0.2966,-1.3072,-1.3049,75,85001.064,1643715,2.2465,2.1377,-7.2962,-0.6299,0.3976,-1.6098,46
12.693,245,9.6224,-7.0441,-8.9721,0.7174,-0.5616,0.4324,75,12.106,233,9.7111,6.4992,-10.395,1.0831,0.5642,-0.3243,84,12.381,239,10.6491,-3.8461,-10.4217,0.3741,-0.2986,-1.6264,75,85001.116,1643716,1.2077,1.5588,-7.8102,-1.1376,-0.0206,-1.851,46
12.745,246,8.7441,-6.4528,-8.6308,0.7941,-0.5606,0.9759,75,12.158,234,9.7713,7.1884,-9.9443,1.4376,1.0223,-0.6791,84,12.432,240,9.585,-5.0942,-11.3086,0.6124,0.4604,-1.7999,75,85001.168,1643717,0.4458,1.1373,-8.1986,-1.5082,-0.3419,-2.027,46
12.797,247,5.1244,-5.5024,-7.5996,0.6915,0.0058,1.0997,75,12.21,235,8.7161,6.0356,-10.1457,1.4121,1.4252,-0.8789,84,12.484,241,9.4335,-6.6983,-12.4841,1.1205,1.0144,-1.6083,75,85001.22,1643718,-0.1045,0.8159,-8.489,-1.7779,-0.5888,-2.1554,46
12.849,248,2.3114,-6.9141,-7.6792,1.0713,-0.6357,1.0009,75,12.261,236,6.8636,5.0983,-10.4416,1.7023,1.7192,-1.0023,84,12.536,242,10.4131,-7.7485,-15.3151,1.4943,1.4187,-0.778,75,85001.271,1643719,-0.8799,0.3354,-8.3784,-1.8167,-0.7908,-2.2492,46
12.901,249,2.8741,-7.8631,-6.9427,1.0343,-0.6711,1.0631,75,12.313,237,5.6427,5.378,-10.5778,1.763,1.9339,-0.776,84,12.588,243,11.805,-6.746,-19.1825,1.7672,1.7138,0.1099,75,85001.323,1643720,-1.4628,-0.6647,-8.6873,-1.6885,-0.8874,-2.3176,46
12.953,250,1.7636,-8.2165,-7.5131,1.3538,-0.4399,1.1049,75,12.365,238,5.114,5.3609,-11.3408,1.4716,2.0821,-0.3764,84,12.64,244,9.9338,-4.5299,-22.0051,1.8436,1.8777,0.4573,75,85001.375,1643721,-0.6247,-4.4035,-10.5304,-1.9023,-1.119,-2.3676,46
13.004,251,1.6783,-7.7684,-8.3988,1.6625,-0.2847,0.8609,75,12.417,239,4.8456,5.8717,-11.7994,1.61,2.1971,-0.3332,84,12.691,245,12.5159,2.0446,-13.4762,1.8695,1.3701,-0.221,75,85001.427,1643722,-0.3324,-7.9485,-11.2879,-1.9978,-1.4796,-1.4839,46
13.056,252,2.8113,-7.1255,-8.0962,1.8877,-0.6592,0.2803,75,12.469,240,4.4412,5.3923,-12.3181,1.7783,2.2245,-0.3158,84,12.743,246,10.0557,-0.4472,-13.641,2.04,0.4448,-0.3128,75,85001.478,1643723,0.0953,-5.0562,-10.1362,-1.9566,-1.743,-0.4073,46
13.108,253,2.3874,-7.1415,-8.6706,1.3941,-1.0228,-0.0488,75,12.52,241,4.5335,7.1219,-12.5712,1.9696,1.9669,-0.0779,84,12.795,247,10.2521,0.1393,-13.0126,1.3745,0.0956,-0.3069,75,85001.53,1643724,0.4357,-2.9197,-9.312,-1.9554,-1.9352,0.3784,46
13.16,254,1.5548,-5.6896,-8.0223,1.5467,-0.8638,-0.47,75,12.572,242,5.1683,9.3872,-11.6638,1.4651,1.4685,0.1862,84,12.847,248,9.9987,0.0308,-12.3538,1.6723,-0.141,-0.4062,75,85001.582,1643725,0.8392,-1.2753,-8.6851,-1.9913,-2.0755,0.9519,46
13.212,255,0.4566,-2.7466,-9.045,0.8533,-0.7985,-0.9832,75,12.624,243,5.6309,8.2854,-11.1487,0.4085,1.2058,0.4099,84,12.899,249,9.7487,0.4362,-12.1912,1.2783,-0.4882,-0.3483,75,85001.634,1643726,1.1543,-1.6951,-5.4133,-2.1312,-0.8261,1.3704,46
13.263,256,5.3908,1.043,-13.1326,0.1204,-1.2521,-1.3927,75,12.676,244,5.1774,7.2987,-9.9347,0.9699,1.5591,0.1515,84,12.95,250,9.8219,0.0647,-11.9035,1.1429,-0.6312,-0.3846,75,85001.686,1643727,1.896,-2.2749,-4.0592,-2.2333,0.0857,1.6759,46
13.315,257,2.8209,0.6194,-12.5468,0.74,-0.2315,-0.3631,75,12.728,245,4.0759,6.8237,-9.0099,1.3796,1.817,0.2186,84,13.002,251,9.8782,0.2435,-11.9108,0.6906,-0.8706,-0.4763,75,85001.737,1643728,2.3889,-2.7309,-3.1504,-2.3078,0.7512,1.8988,46
13.367,258,7.1164,-2.1896,-11.6566,0.1382,-0.8383,0.4116,75,12.779,246,4.1344,8.5024,-9.2905,1.4974,2.0025,0.4515,84,13.054,252,10.8151,0.5542,-11.5678,0.3841,-1.1887,-0.7543,75,85001.789,1643729,2.6959,-3.0833,-2.4978,-2.3622,1.237,2.0615,46
13.419,259,5.9982,-3.1533,-10.0241,0.7753,-0.555,0.5698,75,12.831,247,4.331,8.7078,-10.8644,1.0784,1.9592,0.471,84,13.106,253,13.159,0.1703,-10.0461,0.1347,-1.5409,-1.0542,75,85001.841,1643730,2.8651,-3.358,-2.0541,-2.4019,1.5914,2.1803,46
13.47,260,5.8307,-3.6633,-6.4729,1.2168,-0.6022,0.77,75,12.883,248,3.0941,9.1643,-11.7456,1.4588,1.6323,0.1422,84,13.158,254,12.8031,-2.712,-13.8715,-0.4741,-1.798,-1.442,75,85001.893,1643731,2.9565,-3.565,-1.7354,-2.4309,1.8502,2.267,46
13.522,261,4.1211,-3.8042,-5.2594,1.5625,-0.2706,0.7404,75,12.935,249,3.0348,9.6664,-12.4575,1.3555,0.6097,0.1071,84,13.209,255,13.0305,-2.3631,-11.6589,0.045,-1.8874,-1.1395,75,85001.944,1643732,2.9672,-3.7318,-1.5344,-2.4521,2.039,2.3302,46
13.574,262,3.3485,-3.7507,-4.4055,1.8147,0.1587,0.6482,75,12.987,250,3.7837,9.1475,-13.006,0.3889,-0.2277,0.2102,84,13.261,256,11.2642,-1.5926,-10.1816,0.0715,-0.7568,-0.3946,75,85001.996,1643733,6.3329,-2.6576,-0.8537,-2.4675,2.1768,2.3764,46
13.626,263,1.5939,-4.1147,-4.5455,1.9983,0.707,0.8941,75,13.038,251,4.478,7.6576,-13.1334,-0.1597,-0.8389,0.0215,84,13.313,257,9.9859,-1.214,-10.0753,0.1151,0.126,0.388,75,85002.048,1643734,9.9804,-3.6339,1.6821,-2.4775,2.2774,2.4101,46
13.678,264,-2.1797,-0.6112,-4.5022,0.9013,0.0672,0.3497,75,13.09,252,5.2035,6.6313,-12.9004,-0.5089,-1.2827,-0.2462,84,13.365,258,10.5076,-0.3549,-10.7639,0.291,0.7703,0.9609,75,85002.1,1643735,7.4939,-2.5793,-1.3822,-2.4818,1.5975,2.3638,46
13.729,265,3.4668,-1.4699,-7.2891,-0.0196,-0.6203,-0.2362,75,13.142,253,5.5228,5.3081,-12.7462,-0.6385,-1.4769,-0.5003,84,13.417,259,12.2422,2.3222,-13.6628,0.5602,1.2406,1.3791,75,85002.151,1643736,5.6888,-1.7389,-3.5574,-2.4846,1.1047,2.3258,46
13.781,266,6.8814,-1.1279,-12.3569,-0.6916,-0.2367,0.5043,75,13.194,254,6.5631,5.0768,-12.297,-0.6682,-1.5523,-0.4709,84,13.468,260,8.4309,3.8768,-17.9766,0.9577,1.2026,0.697,75,85002.203,1643737,0.7679,4.062,-10.6219,-2.0884,0.637,2.3298,46
13.833,267,9.2829,-3.5598,-11.4795,0.1696,-0.3328,0.7956,75,13.246,255,8.7638,5.5881,-12.342,-1.1677,-1.2731,-0.0,84,13.52,261,11.419,7.2553,-16.4946,0.3616,0.4037,0.7735,75,85002.255,1643738,0.2198,2.7665,-9.6899,-0.8503,1.1508,2.3761,46
13.885,268,7.302,-2.3077,-7.9259,0.199,-0.1655,0.4022,75,13.297,256,9.4413,3.4595,-11.8953,-0.9218,-0.9296,0.232,84,13.572,262,13.5998,5.7139,-16.2108,0.4573,-0.1406,0.433,75,85002.306,1643739,-0.2595,1.9234,-8.6813,0.0533,1.5227,2.4098,46
13.937,269,5.677,-6.3196,-7.6285,-0.5321,0.2664,-0.1772,75,13.35,257,9.3328,4.4977,-10.8159,-0.1465,-0.4755,0.5792,84,13.624,263,12.9915,4.4467,-15.3414,0.4614,-0.5079,0.0975,75,85002.358,1643740,-0.6205,1.3127,-7.9305,0.7127,1.782,2.4345,46
13.988,270,3.477,-8.912,-7.5654,0.2777,0.5551,-0.0607,75,13.401,258,9.2015,5.3804,-10.299,-0.1405,-0.1495,1.0881,84,13.675,264,12.2949,3.2975,-14.6578,0.3678,-0.5738,0.0255,75,85002.41,1643741,-1.922,1.7601,-7.3124,1.1941,1.9629,2.4525,46
14.04,271,1.9975,-9.3153,-6.4999,0.8765,0.9171,0.4731,75,13.453,259,8.655,6.3546,-10.3818,-0.1464,0.0565,1.4592,84,13.727,265,11.6553,2.2259,-14.0856,0.2437,-0.6167,0.0421,75,85002.462,1643742,-5.7754,2.7109,-8.589,1.5454,2.1176,2.4656,46
14.092,272,-0.7225,-7.6559,-6.1022,1.3141,1.2426,0.7351,75,13.505,260,7.5483,6.4395,-10.2129,0.0059,0.1235,1.3674,84,13.779,266,10.427,1.3773,-13.9059,-0.0672,-0.6127,0.0348,75,85002.513,1643743,-9.0598,3.4958,-10.6067,1.8018,2.0169,2.4415,46
14.143,273,-1.4213,-3.1647,-7.9388,1.6335,1.1903,0.4469,75,13.557,261,6.1214,6.3613,-9.7668,0.1007,0.2175,1.0972,84,13.831,267,8.9377,1.0206,-13.9349,-0.1441,-0.6093,-0.0079,75,85002.565,1643744,-7.4555,2.349,-9.5895,1.9112,1.9044,1.9388,46
14.195,274,-1.5439,1.581,-11.6869,1.8119,0.1994,-0.3489,75,13.609,262,4.8535,5.9042,-9.4547,-0.0081,0.3069,0.8117,84,13.883,268,8.8431,0.8563,-13.8083,-0.105,-0.4858,-0.0489,75,85002.617,1643745,-5.3453,1.6734,-9.5138,1.8587,1.6864,1.3728,46
14.247,275,3.9308,-4.0439,-5.9385,1.0269,-0.5238,-0.9298,75,13.66,263,3.9087,5.7077,-9.3241,-0.0463,0.4178,0.5349,84,13.934,269,9.5892,0.791,-12.9553,-0.119,-0.8571,-0.1599,75,85002.669,1643746,-3.7914,1.1822,-9.4331,1.8217,1.5293,0.9615,46
14.299,276,7.9265,-2.3008,-12.2683,0.0721,-1.0516,-1.3537,75,13.712,264,4.34,6.305,-9.9019,-0.0639,0.435,0.3975,84,13.986,270,10.1949,0.6082,-13.1661,-0.2321,-1.2797,-0.3884,75,85002.72,1643747,-6.711,5.9508,-7.8544,1.7963,1.4216,0.6633,46
14.351,277,8.3799,-2.2389,-10.9861,-0.5467,-0.0875,-0.4094,75,13.764,265,6.6763,7.7279,-10.7735,-0.0732,0.2106,0.1334,84,14.038,271,12.7065,-0.7851,-9.5164,-0.8446,-0.5848,-0.7118,75,85002.772,1643748,-3.8069,4.7864,-5.9689,1.9849,1.7262,-0.1469,46
14.403,278,10.1558,-6.4706,-8.5962,-0.6672,-0.2954,0.3778,75,13.816,266,9.0129,7.8777,-11.1059,-0.3561,-0.2804,-0.2969,84,14.089,272,7.1811,-0.9991,-14.8117,-1.0727,-1.1002,-1.0963,75,85002.824,1643749,-2.2045,4.065,-3.9671,2.1226,1.9485,-0.7586,46
14.455,279,12.4698,-3.9045,-7.2147,0.1463,0.4668,0.9524,75,13.868,267,10.0625,6.3024,-11.6754,-0.8873,-0.5522,-0.753,84,14.141,273,6.7982,-3.1898,-12.5844,-1.1551,-0.6459,-0.2948,75,85002.876,1643750,-1.0408,3.5657,-2.5391,2.223,2.1108,-1.2105,46
14.506,280,12.3403,-2.7295,-7.0282,0.2485,1.0231,1.3717,75,13.919,268,8.6675,5.0364,-11.6228,-0.4002,-0.5124,-1.0909,84,14.193,274,6.6683,-2.9505,-11.5071,-0.612,-0.3402,0.4626,75,85002.928,1643751,-0.2003,3.1983,-1.5206,2.2963,2.2292,-1.5442,46
14.558,281,10.0496,-0.0355,-9.0918,0.8229,1.4291,1.3382,75,13.971,269,8.2072,5.8074,-12.1575,-0.5538,-0.505,-0.7876,84,14.245,275,8.0539,-1.1286,-10.217,-0.1811,0.4301,1.0154,75,85002.979,1643752,0.4076,2.9464,-0.7996,2.3498,2.3156,-1.7919,46
14.61,282,4.2913,5.2465,-11.2189,0.8266,1.7255,0.8285,75,14.023,270,8.4064,5.2703,-13.7738,-1.0842,-0.6404,-0.6064,84,14.297,276,9.2442,1.6639,-9.8191,-0.2808,0.9922,1.4188,75,85003.031,1643753,0.8572,2.7444,-0.3089,2.3889,2.3787,-1.9732,46
14.662,283,1.8065,7.4459,-12.9155,0.5156,0.591,-0.0705,75,14.075,271,7.8633,4.0057,-14.5261,-0.9235,-0.6666,-0.7247,84,14.348,277,10.9117,4.3453,-10.6828,-0.8797,1.4025,1.7132,75,85003.083,1643754,3.0449,-3.2549,2.338,2.4174,2.4248,-2.0334,46
14.713,284,6.3761,3.3478,-6.8352,0.5844,0.3308,-0.7265,75,14.127,272,6.7455,4.0326,-13.9692,-0.7131,-0.6818,-0.7914,84,14.401,278,11.143,5.8979,-14.6832,-0.7174,1.702,1.4564,75,85003.135,1643755,2.0727,-6.5126,3.1482,1.0865,2.4584,-0.8083,46
14.765,285,8.4955,7.8333,-6.7894,-0.2311,-0.4279,-1.2054,75,14.178,273,5.8348,4.3397,-13.1059,-1.0154,-0.8607,-0.6541,84,14.452,279,8.633,1.4458,-15.311,0.0293,0.7445,0.8612,75,85003.186,1643756,2.2396,-5.3469,1.7671,0.1151,2.4829,0.0857,46
14.817,286,11.258,0.5193,-11.441,-0.8461,-0.6812,-0.2031,75,14.23,274,5.0128,4.4979,-12.7181,-1.2698,-0.929,-0.5293,84,14.504,280,5.1098,1.7143,-14.2523,-0.6538,0.3947,0.518,75,85003.238,1643757,5.929,1.4287,-2.0146,-0.0125,2.402,0.7383,46
14.869,287,12.2077,-3.0767,-13.1896,-1.2949,0.1383,0.5284,75,14.282,275,6.1383,6.2057,-11.7551,-0.567,-1.2714,-0.222,84,14.556,281,6.4665,0.9702,-14.0123,-0.4357,-0.0776,0.6196,75,85003.29,1643758,4.4613,0.8162,-3.913,-0.0145,2.4418,1.2145,46
14.92,288,9.8517,-3.6094,-12.9202,-0.2707,0.7834,1.0622,75,14.334,276,8.1101,7.2674,-12.0768,-1.0938,-1.3905,0.4214,84,14.608,282,7.359,0.0452,-13.7075,-0.4634,-0.3861,0.3796,75,85003.342,1643759,3.376,0.3552,-5.3238,-0.0013,2.4708,1.5621,46
14.972,289,7.7394,-3.2093,-10.5949,0.4291,1.2542,1.4519,75,14.386,277,7.82,6.0386,-11.7517,-1.1084,-1.3867,0.5808,84,14.66,283,8.5964,-0.6843,-13.1207,-0.5133,-0.4728,0.2731,75,85003.394,1643760,2.5781,0.0221,-6.333,0.0255,2.4919,1.8158,46
15.024,290,4.788,-4.1923,-8.9848,0.7008,1.5978,1.7127,75,14.437,278,7.3568,6.234,-11.5127,-0.9609,-1.2455,0.7744,84,14.711,284,8.455,-1.3654,-12.8783,-0.4736,-0.5558,0.1497,75,85003.445,1643761,1.9959,-0.2277,-7.0701,0.0622,2.5074,2.0009,46
15.076,291,-0.0264,-1.5875,-8.0425,1.1858,1.8485,1.0926,75,14.489,279,6.7827,6.9365,-11.653,-0.8837,-1.114,0.6724,84,14.763,285,8.212,-1.4102,-12.9598,-0.8386,-0.5629,0.1772,75,85003.497,1643762,1.5542,-0.4093,-7.6088,0.1035,2.5187,2.1361,46
15.128,292,-2.0248,1.4629,-9.4689,1.514,1.2904,0.1691,75,14.541,280,5.4771,7.9126,-12.4179,-0.6079,-0.8513,-0.1461,84,14.815,286,7.952,-1.9919,-13.2714,-0.8336,-0.6224,0.1123,75,85003.549,1643763,-4.0384,5.0324,-11.5753,0.4807,2.3488,1.4177,46
15.179,293,-1.3622,4.0065,-12.6545,1.4999,0.2724,-0.5517,75,14.593,281,3.3817,8.1426,-12.5115,0.0026,-0.7525,-0.793,84,14.867,287,8.2872,-2.034,-13.4092,-0.9136,-0.8008,0.1155,75,85003.6,1643764,-8.1369,5.4834,-15.4858,0.6155,2.0323,0.4235,46
15.231,294,3.78,7.6623,-17.2289,0.5391,-0.4705,-0.8504,75,14.645,282,2.5567,7.8651,-13.1442,-0.2998,-1.2212,-1.2651,84,14.919,288,8.9241,-1.2831,-13.4139,-1.158,-1.047,0.2336,75,85003.652,1643765,-5.3024,4.2821,-13.458,1.1231,1.8494,-0.367,46
15.283,295,4.9942,8.322,-16.7694,-0.0892,-1.0127,-1.2935,75,14.696,283,2.5191,7.2774,-14.3794,-0.507,-1.564,-1.5807,84,14.97,289,11.7112,1.0465,-12.0528,-1.5204,-1.2702,0.5665,75,85003.704,1643766,-1.6203,7.6924,-7.2588,0.6335,2.002,-0.5832,46
15.335,296,8.7026,4.5879,-12.6289,-0.706,-1.3516,-0.6053,75,14.748,284,3.8427,7.606,-15.2479,-0.5266,-1.8141,-1.5023,84,15.022,290,13.1053,-0.523,-14.8748,-1.7849,-1.6005,0.5174,75,85003.756,1643767,-0.9322,5.8401,-5.5338,0.0731,2.1498,-0.624,46
15.386,297,10.147,1.597,-11.3508,-1.1926,-0.3041,0.2348,75,14.8,285,4.5388,8.0946,-16.4543,-0.644,-1.9954,-1.1659,84,15.074,291,10.6479,-2.8926,-14.3189,-1.9779,-1.6618,0.7735,75,85003.807,1643768,-0.5329,4.4856,-3.9634,-0.3484,2.2577,-0.6481,46
15.438,298,8.0745,-1.7418,-9.9781,-1.5478,0.4605,0.8206,75,14.852,286,4.9001,9.0169,-16.9872,-1.0802,-2.1253,-0.7595,84,15.126,292,9.2929,-1.2515,-11.8419,-1.6754,-1.0012,1.2382,75,85003.859,1643769,-0.2512,3.4903,-2.8583,-0.6701,2.3364,-0.6594,46
15.49,299,4.3582,-2.8197,-7.9812,-0.9403,1.0074,0.7018,75,14.904,287,3.8464,7.3716,-16.9041,-1.0045,-2.1363,-0.4612,84,15.177,293,8.7747,-0.2079,-10.6044,-1.6303,-0.0536,1.5815,75,85003.911,1643770,-0.0638,2.7496,-2.0625,-0.9161,2.3939,-0.6628,46
15.542,300,2.8362,-4.3376,-7.3058,-0.7185,1.4155,0.6812,75,14.956,288,2.5822,7.0523,-16.2727,-0.268,-2.1659,-0.103,84,15.229,294,9.4785,0.7309,-9.8136,-1.1707,0.6392,1.832,75,85003.963,1643771,0.0769,2.2016,-1.5054,-1.1092,2.4358,-0.6597,46
15.594,301,1.0698,-5.6065,-6.4374,-0.1514,1.6789,0.9569,75,15.007,289,1.2762,7.4071,-15.3676,-0.0864,-2.2534,0.2527,84,15.281,295,10.8988,2.6793,-9.7566,-1.0778,1.1449,2.0148,75,85004.014,1643772,0.1861,1.8093,-1.1332,-1.2605,2.4664,-0.6531,46
15.645,302,-0.0364,-4.2362,-5.9672,0.5638,1.9078,1.1402,75,15.059,290,0.2696,7.5085,-14.9224,-0.5401,-2.3173,0.5049,84,15.333,296,12.7457,4.5043,-11.8542,-1.4619,1.5139,2.1482,75,85004.066,1643773,5.4942,-3.4634,0.2665,-1.2713,2.4888,-0.5737,46
15.697,303,0.1551,-3.1485,-6.1984,0.9568,1.698,0.6828,75,15.111,291,0.0048,7.5335,-15.105,-0.851,-2.364,0.5659,84,15.384,297,12.5378,5.3199,-15.2157,-1.7422,1.7833,1.9712,75,85004.118,1643774,9.3683,-6.1991,1.8839,-1.6058,2.2584,0.2493,46
15.749,304,-0.2479,1.4735,-9.9052,1.0511,1.7131,-0.1225,75,15.163,292,1.0464,8.2077,-15.4405,-0.6893,-2.393,0.4307,84,15.436,298,14.4164,-0.0875,-8.521,-0.7892,0.9771,1.5632,75,85004.17,1643775,7.3733,-4.2477,-0.1977,-1.8498,1.052,0.8576,46
15.801,305,0.0315,2.0198,-7.4866,1.2509,0.5809,-0.2088,75,15.215,293,2.405,8.4963,-15.4004,-0.6133,-2.2865,0.3395,84,15.488,299,14.8261,0.5065,-10.1577,-0.4642,0.219,0.9082,75,85004.221,1643776,5.8633,-2.7408,-1.72,-2.028,0.1914,1.3016,46
15.853,306,-1.1768,0.9666,-5.7711,0.3589,0.1723,-0.7607,75,15.266,294,3.1164,8.3049,-14.6272,-0.3533,-2.2374,0.341,84,15.54,300,14.2732,-0.5372,-10.6766,-0.7414,-0.2771,0.633,75,85004.273,1643777,-0.9522,3.3307,-9.2809,-2.1548,0.3679,1.6217,46
15.904,307,1.1807,4.2164,-8.2898,-0.4154,-0.5436,-1.2303,75,15.318,295,3.9058,9.4335,-13.3025,-0.689,-2.1597,0.6361,84,15.592,301,12.9392,-1.2369,-11.3091,-0.7279,-0.323,0.3743,75,85004.325,1643778,-0.5947,2.4344,-8.8898,-2.2506,0.7317,1.5823,46
15.956,308,2.2253,6.052,-13.2281,-0.578,-0.206,-0.2273,75,15.37,296,4.2571,9.1033,-12.1618,-1.1829,-2.0447,0.9782,84,15.643,302,12.1034,-1.4976,-11.1568,-0.3997,-0.3009,0.1682,75,85004.377,1643779,-0.2543,1.7896,-8.7775,-2.3204,1.0004,1.5517,46
16.008,309,2.5846,1.0253,-11.0157,-0.5645,0.4226,0.383,75,15.422,297,4.0155,9.3893,-10.2109,-1.3595,-1.6418,1.2504,84,15.695,303,11.2628,-1.7332,-10.7943,-0.4522,-0.3226,0.1203,75,85004.429,1643780,0.0069,1.3143,-8.6838,-2.3714,1.2014,1.5294,46
16.06,310,2.939,0.0427,-8.4041,-0.8744,0.9909,0.3484,75,15.474,298,4.1007,8.3809,-9.8582,-1.295,-1.1817,1.5779,84,15.747,304,10.5691,-2.227,-10.9163,-0.4777,-0.5086,0.0917,75,85004.481,1643781,0.1992,0.963,-8.6141,-2.4086,1.3523,1.5127,46
16.112,311,1.0228,-3.6384,-6.3489,-0.8665,1.4056,0.5588,75,15.525,299,3.4412,8.3584,-10.2311,-0.8751,-0.7712,1.5858,84,15.799,305,10.0862,-2.3981,-11.0241,-0.7385,-0.7783,0.0287,75,85004.532,1643782,0.3428,0.7102,-8.5591,-2.4358,1.4675,1.4997,46
16.163,312,1.6921,-5.629,-4.6794,-0.0263,1.7083,0.8604,75,15.577,300,2.4927,9.266,-10.3974,-0.7218,-0.6878,1.5039,84,15.851,306,9.5528,-2.034,-11.4871,-0.9729,-0.9995,-0.0064,75,85004.584,1643783,0.4543,0.5322,-8.5081,-2.4556,1.556,1.4893,46
16.215,313,0.4532,-4.4768,-3.7878,0.6551,1.9292,1.1371,75,15.629,301,1.4473,10.2251,-10.4279,-0.7414,-0.7589,1.1498,84,15.903,307,9.874,-1.769,-12.023,-1.0026,-1.1906,-0.0219,75,85004.636,1643784,-0.1908,1.4312,-11.897,-2.2652,1.4152,1.3697,46
16.267,314,-0.2135,-2.949,-3.8699,1.1525,2.0904,0.962,75,15.681,302,1.1753,10.3312,-10.5662,-1.1096,-1.0118,0.6364,84,15.955,308,11.4767,-0.3335,-11.4997,-1.2589,-1.4379,0.1012,75,85004.688,1643785,-1.942,-1.9414,-16.7085,-1.4649,1.2742,0.9042,46
16.319,315,-0.4429,-1.3552,-3.1619,1.1027,1.6388,0.3871,75,15.733,303,1.1734,9.8601,-10.6177,-0.9978,-1.1221,-0.0592,84,16.006,309,12.3733,-2.5461,-14.2885,-1.594,-1.7228,0.2717,75,85004.739,1643786,-1.6537,-0.9821,-15.4863,-0.3953,1.5012,-0.0154,46
16.37,316,-0.3764,0.3647,-5.4731,0.8961,1.1078,0.3282,75,15.785,304,1.9809,11.6043,-11.3249,-1.0821,-1.412,-0.4886,84,16.058,310,11.7872,-3.131,-15.0938,-1.8386,-1.9308,0.3388,75,85004.791,1643787,-0.8384,-0.3505,-13.2017,0.3854,1.76,-0.6873,46
16.422,317,1.1593,1.2961,-10.0229,1.1244,0.1392,-0.2374,75,15.836,305,3.026,11.2204,-12.293,-1.4698,-1.6175,-0.8839,84,16.11,311,9.6879,-3.0576,-11.9703,-1.4005,-1.0595,0.5025,75,85004.843,1643788,-0.2783,0.1572,-11.5134,0.9551,1.9566,-1.1777,46
16.474,318,5.9037,2.0459,-4.724,1.3989,-0.5677,-0.8385,75,15.888,306,3.568,10.2756,-12.8064,-1.2502,-1.7939,-1.2481,84,16.162,312,8.4919,-1.8585,-10.0322,-1.4257,-0.0949,0.953,75,85004.894,1643789,-0.9101,0.1772,-11.4471,0.0192,0.9775,-1.5356,46
16.526,319,5.7549,3.1663,-5.2424,0.3436,-0.0517,-0.31,75,15.94,307,4.2664,9.774,-12.5887,-0.8182,-1.8719,-1.3362,84,16.214,313,8.7216,-2.1694,-9.7555,-0.5466,0.6091,1.3593,75,85004.946,1643790,-1.5147,0.1162,-9.8004,-0.6638,0.2228,-1.7968,46
16.578,320,5.5906,0.9556,-11.8227,-0.4266,-0.707,-0.9014,75,15.992,308,5.6952,9.9619,-12.0276,-1.0976,-1.886,-1.0776,84,16.265,314,9.6865,-2.3495,-10.728,0.0508,1.1229,1.6608,75,85004.998,1643791,-1.9146,0.0151,-8.696,-1.1624,-0.375,-1.9874,46
16.629,321,9.1379,-1.2272,-11.6055,-0.9193,0.1664,-0.2309,75,16.044,309,6.3075,7.5147,-10.8607,-1.214,-1.6389,-0.9305,84,16.317,315,12.3354,1.1224,-13.7075,-0.6381,1.4979,1.8895,75,85005.05,1643792,-2.1879,-0.0986,-7.8994,-1.5262,-0.8492,-2.1266,46
16.681,322,11.7268,-2.3875,-9.358,-1.3483,0.8032,0.2534,75,16.095,310,6.3411,6.845,-9.4811,-0.9981,-1.0838,-0.6005,84,16.369,316,10.6958,2.4342,-17.5336,-1.141,1.738,1.6848,75,85005.101,1643793,-2.3785,-0.2262,-7.3155,-1.7918,-1.2387,-2.2281,46
16.733,323,9.9184,-3.4797,-8.1447,-1.6614,1.2686,0.0823,75,16.147,311,5.923,5.6252,-9.0475,-0.6737,-0.3799,0.006,84,16.421,317,12.2661,0.1714,-14.8239,-0.1562,0.6528,1.185,75,85005.153,1643794,-2.4998,-0.3349,-6.9049,-1.9856,-1.5466,-2.3023,46
16.785,324,6.7758,-5.9635,-5.9221,-1.6107,1.6083,-0.2006,75,16.199,312,5.3053,5.8994,-9.8761,0.1383,0.3432,0.6429,84,16.473,318,7.9014,0.9752,-15.1429,-0.199,0.2207,0.662,75,85005.205,1643795,-2.5599,-0.4509,-6.6448,-2.127,-1.791,-2.3563,46
16.837,325,6.1947,-6.1674,-5.0614,-1.8426,1.8562,-0.3874,75,16.251,313,4.2344,7.7068,-10.5982,0.7727,0.6925,1.1345,84,16.524,319,8.6582,0.626,-14.8985,-0.1715,-0.0536,0.414,75,85005.257,1643796,-2.5793,-0.5709,-6.48,-2.2303,-1.9702,-2.3958,46
16.888,326,4.8928,-5.7838,-6.397,-1.6835,2.0372,-0.4559,75,16.303,314,3.8425,9.246,-10.1955,0.7624,0.2905,1.4934,84,16.576,320,9.0904,0.2617,-14.0317,-0.0324,-0.2149,0.3051,75,85005.308,1643797,-2.5834,-0.6524,-6.369,-2.3056,-2.101,-2.4246,46
16.94,327,0.6708,-2.3397,-9.4482,-1.0639,2.1692,-0.48,75,16.355,315,3.7397,9.917,-10.2609,-0.1236,-0.3345,1.7553,84,16.628,321,8.9681,-0.9575,-13.4656,-0.4098,-0.2624,0.2404,75,85005.36,1643798,-0.8574,4.855,-3.8003,-1.5695,-2.1119,-2.2804,46
16.992,328,-0.7341,-3.0248,-12.8396,-0.9523,0.9145,-1.0254,75,16.406,316,4.3418,9.3608,-9.572,-0.4838,-0.7217,1.5678,84,16.68,322,9.0076,-1.4019,-13.0723,-0.5956,-0.3268,0.1523,75,85005.412,1643799,-1.1506,5.039,-4.4773,-0.4716,-2.2045,-1.2116,46
17.044,329,4.5218,-4.2887,-13.0502,-1.1429,0.1297,-1.2998,75,16.458,317,4.5674,8.8479,-9.1593,-0.9851,-1.0144,1.2514,84,16.731,323,8.5232,-1.8507,-13.008,-0.909,-0.4292,0.1167,75,85005.464,1643800,-0.9136,3.8426,-5.0982,0.3297,-2.272,-0.4082,46
17.095,330,2.9653,-8.3278,-17.5211,-0.1598,-0.4804,-1.6162,75,16.51,318,5.3121,8.2076,-8.9295,-1.399,-0.9955,0.906,84,16.783,324,7.7367,-2.0752,-13.6816,-1.2576,-0.4861,0.1573,75,85005.515,1643801,-0.7398,2.9101,-5.6017,0.9145,-2.3213,0.1816,46
17.147,331,6.7145,-0.6881,-13.388,0.5577,-1.0199,-1.8547,75,16.562,319,6.0807,6.773,-9.0068,-1.7011,-0.5499,0.5438,84,16.835,325,8.3984,-1.9395,-13.5884,-1.4722,-0.418,0.1573,75,85005.567,1643802,-2.4575,2.5024,-2.9501,1.3388,-2.1365,0.8082,46
17.199,332,2.684,2.287,-13.567,-0.2703,-0.5661,-0.6899,75,16.614,320,7.3331,4.5729,-9.8295,-1.1816,0.1275,0.0997,84,16.887,326,9.2549,-1.182,-13.1469,-1.4393,-0.4589,0.1752,75,85005.619,1643803,-2.8674,2.5663,-3.9218,1.651,-2.0699,1.2656,46
17.251,333,5.7482,1.0324,-8.9316,-0.8747,-0.0664,0.1731,75,16.665,321,7.8103,4.512,-9.8499,-0.1907,0.4815,-0.4989,84,16.938,327,10.0914,-0.5799,-12.8275,-1.194,-0.7737,0.0746,75,85005.671,1643804,-3.1097,2.6664,-4.615,1.8788,-2.0728,1.5994,46
17.303,334,5.0058,-1.3163,-7.0923,-0.7485,0.6197,0.3588,75,16.717,322,7.5434,4.5084,-9.2762,0.2473,0.5222,-0.6619,84,16.99,328,10.5662,-0.0108,-12.5946,-1.0034,-1.2381,0.0527,75,85005.723,1643805,-3.2704,2.7863,-5.1166,2.0451,-2.116,1.843,46
17.355,335,8.7111,-0.3261,-6.3931,-0.4608,0.9894,0.6556,75,16.769,323,6.0251,4.3138,-8.8428,-0.0659,0.5648,-0.4137,84,17.042,329,12.9774,1.9111,-10.9718,-1.3978,-1.577,0.2636,75,85005.774,1643806,-3.3277,2.9232,-5.4997,2.1665,-2.1846,2.0208,46
17.406,336,8.0298,-1.6837,-6.2927,-0.7877,1.1664,1.1551,75,16.821,324,4.7428,4.7078,-9.1626,-0.0565,0.4801,0.1702,84,17.094,330,14.7372,0.3625,-13.5335,-1.2732,-1.8244,-0.2221,75,85005.826,1643807,-3.3456,3.0617,-5.7919,2.2551,-2.2549,2.1505,46
17.458,337,6.795,-1.8669,-7.0531,-0.0571,1.2062,1.5142,75,16.873,325,5.6772,7.1572,-10.4881,-0.056,0.1012,0.4974,84,17.146,331,12.254,0.8343,-14.3336,-1.1717,-1.6106,-0.1548,75,85005.878,1643808,2.781,-3.0233,-6.5211,2.0564,-2.3088,2.2453,46
17.51,338,5.3751,-1.936,-7.0599,0.6327,1.0706,1.7317,75,16.924,326,5.9933,7.4774,-11.3499,-0.1183,-0.3351,0.1281,84,17.198,332,10.2269,1.2801,-11.806,-1.1248,-0.5056,0.2015,75,85005.93,1643809,5.1069,-7.4644,-6.79,1.1079,-2.3482,1.0399,46
17.562,339,3.7356,-1.5799,-7.7024,0.5189,1.0024,1.832,75,16.976,327,5.5484,7.1383,-11.2863,0.0753,-0.794,-0.2742,84,17.25,333,9.2668,1.5356,-10.802,-1.0728,0.3094,0.711,75,85005.982,1643810,3.391,-5.9167,-6.6714,0.1307,-2.3769,0.0829,46
17.614,340,0.5066,0.7087,-10.6804,0.2239,0.9525,1.5074,75,17.028,328,5.7498,6.8417,-11.2423,0.0838,-1.1752,-0.4848,84,17.301,334,9.7879,1.8071,-10.9443,-0.7175,0.9042,1.185,75,85006.033,1643811,2.0949,-4.7691,-6.5791,-0.5825,-2.3978,-0.6156,46
17.665,341,-2.4621,-4.6805,-5.2039,0.1471,0.1023,0.5332,75,17.08,329,6.5314,5.9799,-11.3074,-0.1314,-1.3417,-0.5955,84,17.353,335,12.0883,2.6196,-13.3796,-0.1407,1.3382,1.4777,75,85006.085,1643812,1.0802,-3.8276,-6.3986,-1.103,-2.4131,-1.1253,46
17.717,342,3.2607,-2.5813,-3.3037,-0.4992,-0.5947,0.5194,75,17.132,330,7.2215,5.2334,-11.0725,0.0095,-1.255,-0.8324,84,17.405,336,11.0762,0.5595,-17.7699,0.5183,1.6551,1.1506,75,85006.137,1643813,0.5757,-1.7338,-4.6671,-1.1351,-1.0725,-1.4431,46
17.769,343,7.4374,-6.0694,-10.142,-1.0417,-1.1033,0.0345,75,17.183,331,7.958,5.8635,-10.0418,-0.182,-1.007,-0.9116,84,17.457,337,8.5807,4.4492,-15.067,0.9639,0.5345,0.5326,75,85006.188,1643814,0.4135,-0.1022,-3.6436,-1.2163,-0.0941,-1.7293,46
17.821,344,9.934,-5.2648,-11.1031,-0.2646,-0.2199,0.071,75,17.235,332,8.4341,3.8711,-9.9131,-0.3053,-0.614,-0.5346,84,17.509,338,3.5696,1.6314,-11.235,1.2827,0.3208,-0.0557,75,85006.24,1643815,0.276,1.0648,-2.9099,-1.345,0.62,-1.9382,46
17.872,345,8.3009,-5.5885,-11.6459,0.3147,-0.3257,0.0546,75,17.287,333,9.289,4.2719,-9.4322,0.4489,-0.3348,-0.1307,84,17.56,339,7.871,1.8483,-11.9136,0.8414,-0.2485,0.3571,75,85006.292,1643816,0.1551,1.905,-2.3771,-1.4959,1.1411,-2.0906,46
17.924,346,6.3729,-6.0548,-9.7502,0.9002,-0.6547,0.3439,75,17.339,334,10.6249,6.1392,-9.8038,0.5137,-0.035,0.5667,84,17.612,340,8.6673,1.3359,-12.1315,0.8139,-0.5813,0.1457,75,85006.344,1643817,0.0622,2.4973,-1.993,-1.6741,1.5215,-2.2019,46
17.976,347,5.7362,-8.6458,-8.7447,1.3314,-0.8137,0.7962,75,17.391,335,9.6155,6.3344,-10.5245,0.5596,0.1961,0.7765,84,17.664,341,9.1246,1.1301,-12.1534,0.4091,-0.6223,0.1198,75,85006.395,1643818,0.0053,2.9147,-1.7215,-1.8655,1.7991,-2.2831,46
18.028,348,3.2753,-6.5348,-7.3894,1.6461,-0.644,1.2578,75,17.442,336,7.9275,6.6686,-10.5564,1.0376,0.4063,0.5807,84,17.716,342,8.8804,0.475,-12.1359,0.37,-0.6567,0.0211,75,85006.447,1643819,-0.0397,3.22,-1.5066,-2.0353,2.0018,-2.3424,46
18.08,349,1.2903,-3.8966,-7.7813,1.8758,-0.9656,1.4491,75,17.494,337,6.2091,6.474,-10.6215,1.26,0.6266,0.2933,84,17.768,343,8.7124,0.2405,-12.2026,0.1763,-0.7784,-0.0451,75,85006.499,1643820,0.897,3.4551,0.1081,-2.1633,2.1496,-2.3856,46
18.132,350,3.4394,1.6627,-5.1603,2.0434,-1.0829,0.5562,75,17.546,338,4.1975,6.0482,-10.9362,1.5913,0.8229,-0.3536,84,17.819,344,9.1534,0.3371,-12.3074,0.1155,-1.0739,-0.1642,75,85006.551,1643821,-3.1436,-0.2907,-1.924,-1.2398,2.2576,-2.1172,46
18.183,351,2.1042,2.1379,-4.3709,2.1407,-1.0496,0.471,75,17.598,339,3.0917,7.2306,-10.8483,1.8331,0.8187,-0.9401,84,17.871,345,11.9463,0.9961,-10.8396,-0.3133,-1.4572,-0.1653,75,85006.602,1643822,-2.2741,-0.2452,-3.8045,-0.3004,2.2892,-1.0235,46
18.235,352,2.5799,5.8917,-5.2971,0.885,-1.4353,-0.3266,75,17.65,340,4.2958,8.9166,-11.2837,1.6346,0.3813,-1.0564,84,17.923,346,9.8898,-1.9592,-15.9012,-0.8162,-1.7369,-0.6875,75,85006.654,1643823,-1.6141,-0.2183,-5.164,0.3906,2.3106,-0.2279,46
18.287,353,6.9405,1.2166,-8.9523,-0.0314,-0.828,0.4382,75,17.701,341,6.8525,9.0555,-12.3247,1.0184,0.137,-1.3161,84,17.975,347,8.6566,-1.3255,-13.0424,-0.972,-1.3181,-0.7741,75,85006.706,1643824,2.0316,-2.1107,-9.5452,-0.3471,2.375,-0.5135,46
18.339,354,6.6715,-0.3951,-9.1269,-0.0082,0.0275,0.9959,75,17.753,342,8.1937,8.4284,-12.4684,0.5169,0.2376,-1.3903,84,18.027,348,8.5493,-1.3465,-10.6108,-0.5186,-0.2975,-0.7782,75,85006.758,1643825,1.4067,-1.2668,-8.4424,-0.9312,2.4221,-0.7628,46
18.39,355,5.6651,-1.0179,-7.6584,-0.5715,0.5358,1.4002,75,17.805,343,7.5172,7.2435,-11.9755,0.2856,0.5649,-1.1503,84,18.078,349,8.8316,-2.203,-10.0254,0.1758,0.4612,-0.6168,75,85006.809,1643826,1.0687,-0.6683,-7.8842,-1.3575,2.4564,-0.9421,46
18.442,356,2.9519,-4.794,-6.8933,-0.991,1.0735,1.6979,75,17.857,344,5.541,6.0083,-11.856,0.2315,0.8676,-0.6044,84,18.13,350,10.2579,-3.633,-11.3159,0.8048,1.015,-0.3865,75,85006.861,1643827,0.8198,-0.2473,-7.4821,-1.6686,2.4814,-1.0706,46
18.494,357,1.9226,-6.8714,-6.7766,-0.7378,0.6401,1.6733,75,17.909,345,3.9924,5.965,-12.7689,0.443,1.0971,-0.0287,84,18.182,351,12.1721,-3.8691,-13.0889,1.2639,1.4191,-0.0875,75,85006.913,1643828,0.6179,0.0541,-7.1776,-1.8957,2.4997,-1.1617,46
18.546,358,2.4542,-8.363,-10.2372,-0.2808,-0.1596,1.8979,75,17.96,346,3.4179,6.1725,-13.2738,0.7111,1.1631,0.2436,84,18.234,352,12.3323,-2.2562,-15.916,1.599,1.7141,0.1962,75,85006.965,1643829,0.4622,0.263,-6.9468,-2.0615,2.5131,-1.2252,46
18.598,359,4.3755,-7.2566,-11.51,0.4694,0.0615,1.6575,75,18.012,347,3.353,6.2267,-13.0714,0.5083,1.2369,0.4247,84,18.285,353,8.7357,-1.4237,-18.5856,1.1846,1.2773,0.2996,75,85007.016,1643830,5.6957,2.1477,-12.9017,-1.2313,2.3589,-0.6264,46
18.649,360,3.1756,-5.2767,-12.7808,0.8657,-0.0016,1.2386,75,18.064,348,4.0,5.9203,-12.6179,0.3152,1.2401,0.4498,84,18.337,354,11.4823,-1.9004,-10.9806,1.0606,0.7794,0.0681,75,85007.068,1643831,5.1808,2.7116,-14.1065,-0.2248,2.0191,0.2185,46
18.701,361,1.8676,-0.4161,-16.3545,0.2856,0.3712,0.9923,75,18.116,349,5.0836,4.3758,-13.4609,0.572,1.4879,0.5101,84,18.389,355,4.7582,-1.8711,-16.019,1.4506,0.6628,-0.5847,75,85007.12,1643832,3.0597,2.0808,-12.0692,0.5098,1.7235,0.8352,46
18.753,362,3.0747,-5.3937,-14.7736,-0.1822,-0.3985,0.0728,75,18.168,350,6.7056,6.6604,-12.2981,1.0892,1.2664,0.3318,84,18.441,356,8.7385,-2.3087,-15.4178,1.0976,-0.0822,-0.3034,75,85007.172,1643833,1.5175,1.6888,-10.5756,1.046,1.4664,1.2853,46
18.805,363,7.3017,-9.1343,-14.5436,0.5414,-0.316,0.1941,75,18.22,351,6.7404,7.1542,-11.509,0.2488,0.9602,0.6461,84,18.492,357,9.7156,-1.5928,-14.0068,1.0456,-0.4703,-0.3304,75,85007.223,1643834,6.4659,1.779,-5.1551,1.1676,1.2763,0.262,46
18.857,364,8.9123,-3.6504,-11.5821,0.9525,-0.0919,0.8183,75,18.271,352,7.4509,6.4773,-11.146,0.597,0.9251,0.4963,84,18.544,358,9.2537,-0.2119,-13.7852,0.7076,-0.6121,-0.2929,75,85007.276,1643835,5.9677,2.2169,-5.1182,1.5261,1.6201,-0.4849,46
18.908,365,7.5134,-1.948,-9.3622,0.6199,-0.2862,0.7353,75,18.323,353,7.794,7.1377,-10.548,1.1075,1.1647,0.2372,84,18.596,359,9.7926,0.1004,-13.4426,0.7283,-0.7051,-0.3064,75,85007.327,1643836,5.5324,2.5666,-5.0711,1.7877,1.8711,-1.0299,46
18.96,366,5.9074,-2.3679,-7.4944,0.209,-0.3445,0.3487,75,18.375,354,6.9291,6.4237,-10.4788,1.4125,1.4833,-0.0933,84,18.648,360,10.2002,0.595,-13.0644,0.5798,-0.8169,-0.3543,75,85007.379,1643837,5.1925,2.8556,-5.0365,1.9786,2.0543,-1.4277,46
19.012,367,5.1828,-5.7227,-7.3028,0.1853,-0.6176,-0.1973,75,18.427,355,5.4399,5.7045,-10.4442,1.7023,1.5073,-0.1856,84,18.7,361,11.9821,0.9502,-11.4826,0.307,-1.2265,-0.6055,75,85007.431,1643838,4.917,3.0766,-5.0048,2.118,2.188,-1.7181,46
19.064,368,4.4559,-7.9327,-6.8839,0.219,-0.2859,-0.0089,75,18.479,356,4.6587,5.2956,-10.5263,1.9141,1.3611,-0.2,84,18.751,362,14.0108,0.2283,-11.7847,0.081,-1.5686,-1.0751,75,85007.482,1643839,4.6965,3.2597,-4.9634,2.2197,2.2855,-1.93,46
19.115,369,3.6507,-8.9873,-7.4982,0.2578,0.0911,0.4087,75,18.531,357,6.144,5.5829,-11.6851,1.6567,1.3376,0.162,84,18.803,363,10.9043,0.9222,-11.713,0.7356,-1.2932,-1.4587,75,85007.534,1643840,8.2609,4.5373,-4.9415,2.2939,2.3568,-2.0847,46
19.167,370,1.8385,-6.453,-11.2598,0.4702,0.7467,0.5771,75,18.582,358,7.8261,5.3907,-13.676,1.8348,1.3599,0.0451,84,18.855,364,10.0585,-2.7184,-11.3842,1.2134,-0.3894,-1.7386,75,85007.586,1643841,9.1736,5.5714,-5.0919,2.3481,2.4087,-1.5489,46
19.219,371,3.7977,-2.8036,-14.0175,1.0176,-0.1244,-0.1129,75,18.634,359,7.9044,6.712,-13.244,2.0108,1.2225,-0.0461,84,18.907,365,10.1475,-3.1365,-10.6207,1.5619,0.3942,-1.9429,75,85007.638,1643842,6.6496,3.7445,-5.8261,2.1962,2.4467,-0.4548,46
19.271,372,7.8293,0.4673,-18.2271,0.1477,-0.7601,0.3627,75,18.686,360,6.5564,6.9583,-12.7064,1.1855,1.0091,0.1428,84,18.959,366,10.3442,-4.9158,-11.1861,1.2486,0.966,-2.0415,75,85007.689,1643843,4.7878,2.4106,-6.3706,2.0991,2.4743,0.3438,46
19.322,373,10.7718,1.1996,-18.7973,-0.027,-0.1608,0.5663,75,18.738,361,5.9686,6.7822,-11.8075,1.1559,0.7261,0.2118,84,19.011,367,10.2051,-6.2975,-12.196,0.9069,1.3834,-0.9176,75,85007.741,1643844,3.3997,1.4076,-6.7617,2.0488,2.4946,0.9266,46
19.374,374,9.9942,-3.2294,-17.8344,-0.6971,-0.4276,0.995,75,18.79,362,6.2527,7.4988,-11.1746,1.0313,0.5301,0.3507,84,19.062,368,11.7827,-5.6743,-14.2736,1.3384,1.688,0.0081,75,85007.793,1643845,4.5869,3.2853,-5.2671,1.5377,1.7803,1.352,46
19.426,375,7.0919,-3.0613,-17.0645,0.1656,-0.5332,0.5078,75,18.841,363,6.6428,6.4166,-11.804,1.3099,0.4766,0.2746,84,19.114,369,10.5403,-3.4551,-18.26,0.8372,1.9104,0.544,75,85007.845,1643846,3.4258,2.4825,-6.5297,1.0739,1.3291,1.6624,46
19.478,376,4.6145,-3.1456,-15.9088,0.7952,-1.0585,-0.2891,75,18.893,364,6.2576,5.4744,-11.9407,1.6278,0.5467,-0.1555,84,19.166,370,12.9585,2.8302,-10.7429,1.2875,1.5737,-0.277,75,85007.896,1643847,2.58,1.8968,-7.4151,0.7369,1.0073,1.889,46
19.53,377,3.1741,-5.3627,-13.7947,1.2548,-1.4418,-0.6255,75,18.945,365,6.316,5.4633,-12.4425,1.7609,0.4669,-0.3556,84,19.218,371,13.6775,2.552,-10.233,0.666,0.6272,-0.0237,75,85007.948,1643848,1.9519,1.4701,-8.065,0.4927,0.7816,2.0544,46
19.581,378,2.2102,-5.1131,-11.3411,1.5902,-1.4759,-0.6908,75,18.997,366,6.8865,5.4173,-12.3098,1.2471,0.1022,-0.4054,84,19.269,372,12.6888,1.6848,-10.816,0.4503,0.0745,-0.0273,75,85008.0,1643849,1.5032,1.1742,-8.5401,0.3157,0.6247,2.1751,46
19.633,379,-0.1062,-2.3368,-9.6948,1.8349,-0.4046,-0.7946,75,19.049,367,7.3377,4.8004,-12.3496,0.6895,-0.1034,-0.4509,84,19.321,373,12.144,1.262,-11.0821,0.6651,-0.2815,-0.1616,75,85008.052,1643850,6.1854,-1.7825,-14.0611,0.1714,0.5148,2.2631,46
19.685,380,-0.5119,-1.661,-5.2292,1.0048,-0.9349,-0.6893,75,19.101,368,7.3743,3.9571,-12.2412,0.8772,0.0011,-0.6978,84,19.373,374,10.8787,0.9519,-11.7274,0.4406,-0.4825,-0.2328,75,85008.104,1643851,9.4296,-5.2098,-11.2071,0.5377,1.0644,2.3274,46
19.737,381,-1.1586,-1.7225,-5.8139,0.056,-1.297,-1.1782,75,19.152,369,6.3938,4.442,-11.9257,1.2673,0.2161,-0.9793,84,19.425,375,10.1176,1.333,-12.3031,0.3949,-0.5431,-0.2589,75,85008.155,1643852,6.9019,-3.7197,-9.9232,1.0663,1.4655,1.7345,46
19.789,382,4.212,-1.7407,-12.2398,-0.6365,-1.6139,-0.1833,75,19.204,370,5.5474,5.0418,-11.6867,1.1973,0.4132,-0.9658,84,19.477,376,10.0198,1.0427,-12.3989,0.251,-0.5858,-0.2964,75,85008.207,1643853,4.9894,-2.5104,-9.114,1.4521,1.7582,1.2981,46
19.84,383,6.2629,-6.1513,-10.6686,0.1605,-1.8256,-0.1724,75,19.256,371,4.9363,5.2697,-11.3413,1.273,0.4881,-0.7842,84,19.528,377,11.0031,1.0567,-11.9313,0.1114,-0.8157,-0.4508,75,85008.259,1643854,3.2889,-1.9375,-8.288,1.7149,1.9719,1.6231,46
19.892,384,7.218,-3.0897,-11.9588,0.7915,-0.9114,-0.801,75,19.308,372,5.4,6.8199,-10.5824,0.6652,0.4329,-0.3153,84,19.58,378,13.2963,-0.0331,-9.8915,-0.2964,-1.2687,-0.813,75,85008.311,1643855,2.1139,-1.8122,-8.207,1.9255,2.1278,1.8603,46
19.944,385,8.724,-4.2003,-13.2892,1.1875,-0.7486,-1.0903,75,19.36,373,6.5654,5.88,-10.9316,0.3291,0.5034,-0.0796,84,19.632,379,12.28,-1.2075,-10.9937,-0.0627,-1.5725,-1.2583,75,85008.362,1643856,1.2479,-1.7152,-8.1488,2.0792,2.2417,2.0334,46
19.996,386,7.7269,-5.8427,-13.2075,0.7185,-0.3449,-0.5872,75,19.411,374,8.5383,6.5765,-12.1965,0.5971,0.7448,-0.1386,84,19.684,380,10.2076,-2.3036,-10.2866,0.5786,-0.6754,-1.5477,75,85008.414,1643857,0.6198,-1.6471,-8.0992,2.1914,2.3247,2.1598,46
20.048,387,4.1468,-6.8766,-11.9108,0.9864,0.4307,-0.0216,75,19.463,375,8.4973,5.9819,-13.1397,1.0383,0.9323,-0.4009,84,19.735,381,8.6855,-2.3662,-9.9423,1.0988,0.1854,-1.6216,75,85008.466,1643858,0.1534,-1.59,-8.0545,2.2732,2.3854,2.252,46
20.099,388,0.5755,-7.5424,-12.7729,1.3926,-0.0362,0.0404,75,19.515,376,7.4042,5.9477,-13.1406,1.4295,0.705,-0.5186,84,19.787,382,7.9755,-3.0154,-10.4985,1.4785,0.8137,-1.3678,75,85008.517,1643859,-4.3039,-0.21,-7.4205,2.333,2.4296,2.3193,46
20.152,389,0.1405,-5.4395,-11.8889,1.6907,-0.2887,0.1282,75,19.567,377,6.6404,5.8936,-12.7171,1.3106,0.4172,-0.4302,84,19.839,383,8.2745,-3.3562,-11.6668,1.3372,1.2722,-0.5591,75,85008.569,1643860,-7.6108,4.543,-6.1712,2.3392,2.4619,1.9534,46
20.203,390,-2.3733,-4.3372,-14.2272,1.0282,-0.8483,-0.4059,75,19.619,378,5.689,4.9857,-12.4669,0.5646,0.236,-0.333,84,19.891,384,10.6737,-1.0852,-15.6428,1.4533,1.6069,0.2697,75,85008.621,1643861,-4.9024,2.2993,-5.2731,1.6191,2.4855,1.3165,46
20.255,391,3.3255,-6.6466,-9.9038,1.1968,-1.2885,-0.9714,75,19.67,379,4.916,3.9953,-12.13,0.2828,0.1957,-0.362,84,19.943,385,9.0845,-1.4796,-19.4217,1.7118,1.6213,0.2272,75,85008.673,1643862,-3.4515,1.6797,-6.1241,0.9653,2.5027,0.8225,46
20.307,392,0.8862,-5.4238,-12.3247,0.8111,-0.7539,-0.533,75,19.722,380,5.344,4.1874,-11.4779,0.1523,0.306,-0.3538,84,19.994,386,11.896,-1.9527,-11.5907,1.8465,1.2996,-0.1004,75,85008.724,1643863,2.8393,-4.032,-1.9062,1.062,2.4907,1.0734,46
20.358,393,4.0691,-5.7959,-10.8702,0.7142,-0.1517,0.0501,75,19.774,381,6.3849,3.9008,-11.6441,-0.1932,0.5672,-0.0993,84,20.046,387,8.8584,-0.5761,-11.2587,1.103,0.8912,0.0034,75,85008.776,1643864,1.991,-3.3213,-3.5454,1.2325,2.5059,1.4591,46
20.41,394,3.1704,-4.9697,-11.1238,1.1626,-0.0678,0.4804,75,19.826,382,9.0107,4.9342,-12.0381,0.4175,0.498,-0.059,84,20.098,388,9.6729,0.4765,-11.8044,0.9958,0.3194,-0.074,75,85008.828,1643865,1.2693,-2.7754,-5.0119,1.379,2.5172,1.7406,46
20.462,395,1.2916,-6.1424,-10.1739,1.2261,0.6145,0.7843,75,19.878,383,9.2562,5.5314,-11.7261,0.6986,0.4865,-0.165,84,20.15,389,9.9481,0.6685,-11.6164,0.7499,0.0566,-0.1956,75,85008.88,1643866,0.7103,-2.363,-6.0824,1.5134,2.5233,1.9461,46
20.514,396,1.0331,-5.5983,-9.214,1.4385,0.7906,0.9321,75,19.929,384,8.1482,4.9413,-11.0807,0.6699,0.5293,-0.1584,84,20.202,390,9.7131,0.7352,-11.6747,0.5233,-0.167,-0.2534,75,85008.932,1643867,0.2748,-2.061,-6.839,1.6338,2.5269,2.096,46
20.566,397,0.5906,-5.1875,-9.0737,1.1402,1.1945,0.9986,75,19.981,385,6.8541,4.7261,-10.3426,0.7672,0.7222,-0.2191,84,20.254,391,8.9565,0.7483,-12.0367,0.3051,-0.2836,-0.303,75,85008.983,1643868,1.22,-0.1711,-7.4165,1.675,2.5198,2.2055,46
20.617,398,-0.1006,-4.1903,-10.7345,0.265,0.9667,0.722,75,20.033,386,5.7494,4.6708,-10.0251,0.8571,0.9518,-0.3122,84,20.305,392,8.6937,0.7122,-12.3373,0.1708,-0.363,-0.3847,75,85009.035,1643869,6.2488,0.1953,-7.0439,1.4364,2.5278,2.0796,46
20.669,399,-1.0496,-5.4863,-9.5646,0.7598,0.9624,0.6638,75,20.085,387,4.675,5.0944,-9.9793,1.0283,1.0777,-0.4077,84,20.357,393,9.0146,1.2182,-12.1828,0.0352,-0.4762,-0.5523,75,85009.087,1643870,8.1462,2.8842,-5.9783,0.454,2.5335,0.8598,46
20.721,400,-4.7434,-2.8825,-9.6672,1.1885,0.1744,-0.1743,75,20.137,388,4.0406,6.6753,-9.8142,1.0202,0.8925,-0.3455,84,20.409,394,10.1326,0.8712,-11.9365,0.0662,-0.7482,-0.8878,75,85009.139,1643871,5.6421,3.1717,-5.5841,-0.3465,2.5377,-0.0486,46
20.773,401,1.5957,-1.1088,-9.0926,0.7659,-0.5421,-0.8023,75,20.188,389,5.3169,7.3171,-10.5096,0.2196,0.4634,-0.153,84,20.461,395,12.6609,1.0335,-10.4086,-0.1944,-1.1795,-1.2783,75,85009.19,1643872,3.7868,3.3103,-5.4148,-0.9308,2.5408,-0.7115,46
20.825,402,3.1893,1.7044,-14.5774,0.1727,-0.439,0.0724,75,20.24,390,6.5227,7.7644,-10.7962,-0.0413,0.1612,-0.2223,84,20.512,396,12.9936,-1.7341,-13.4536,-0.6642,-1.5342,-1.607,75,85009.242,1643873,2.4459,2.6941,-5.2129,-1.3572,2.5431,-0.6686,46
20.876,403,7.3853,-3.9538,-16.1641,0.5829,-0.9898,-0.0161,75,20.292,391,8.353,8.3536,-10.9034,-0.1657,-0.0906,-0.3554,84,20.564,397,12.7632,-4.9116,-12.0789,0.1918,-0.9413,-1.3837,75,85009.294,1643874,1.9185,2.254,-4.0249,-1.6684,2.5447,-0.6328,46
20.928,404,4.9606,-0.4174,-16.4619,1.0998,-0.8357,-0.6284,75,20.344,392,8.9168,6.8437,-11.6486,-0.2021,0.0714,-0.5745,84,20.616,398,11.1992,-4.1897,-11.1224,0.8165,-0.0345,-0.8248,75,85009.346,1643875,1.5315,1.9411,-3.11,-1.8956,2.5459,-0.603,46
20.98,405,4.3022,-0.119,-13.7969,1.0081,-1.1008,-0.0825,75,20.396,393,7.6188,5.8469,-11.9096,0.5242,0.2814,-1.0347,84,20.668,399,10.4248,-2.8461,-11.1011,1.0705,0.6531,-0.123,75,85009.397,1643876,1.2442,1.6993,-2.4448,-2.0613,2.5468,-0.5786,46
21.032,406,1.2674,-2.8567,-11.5337,1.4101,-0.9441,0.235,75,20.447,394,6.4168,5.6756,-11.6782,1.0107,0.2635,-0.9917,84,20.72,400,10.3764,-3.0135,-12.8837,1.289,1.155,0.5794,75,85009.449,1643877,1.0364,1.5283,-1.9358,-2.1823,2.5474,-0.5577,46
21.083,407,-0.2403,-1.1634,-8.5734,1.7035,-1.2813,0.0036,75,20.499,395,4.9365,5.3957,-11.6379,0.6955,0.1364,-0.8075,84,20.771,401,10.4455,0.4459,-15.6867,1.6173,1.5214,1.0094,75,85009.501,1643878,1.9306,0.2124,1.1506,-2.2706,2.5479,-0.7188,46
21.135,408,0.8056,0.9224,-5.8945,1.0953,-0.3956,0.1331,75,20.551,396,4.5105,5.68,-11.6426,0.1051,-0.0842,-0.8351,84,20.823,402,7.6532,5.6773,-19.4537,1.0003,0.6303,0.3685,75,85009.552,1643879,-2.1067,-1.476,-4.9858,-2.3351,2.1461,-0.567,46
21.187,409,2.0382,2.0609,-6.0962,0.122,-0.8558,-0.3836,75,20.603,397,4.6703,5.113,-12.2671,-0.373,0.1024,-0.8931,84,20.875,403,10.7872,5.8407,-15.6511,1.0467,-0.2134,0.0444,75,85009.604,1643880,-2.944,-1.7339,-6.5844,-2.1952,1.8689,0.2444,46
21.239,410,6.5452,1.6358,-12.4458,-0.5883,-1.294,-0.9551,75,20.655,398,5.2085,5.573,-13.0536,0.3849,0.2198,-1.0427,84,20.927,404,9.3674,4.4639,-15.6855,0.4239,-0.4591,-0.0522,75,85009.656,1643881,-2.0489,-1.2418,-7.3941,-1.6284,1.3553,0.8541,46
21.291,411,9.1102,-2.6714,-14.2193,-0.7836,-0.3241,-0.0738,75,20.707,399,6.7189,8.2042,-12.0574,0.8143,-0.0875,-0.6979,84,20.978,405,9.702,3.0914,-14.9505,0.4408,-0.3597,-0.2057,75,85009.708,1643882,-1.3565,-0.8904,-7.9276,-1.2163,0.9841,1.299,46
21.342,412,9.1684,-2.8418,-13.6911,-0.5426,0.4258,0.6228,75,20.758,400,6.5286,8.56,-11.3659,-0.0857,-0.432,0.0387,84,21.03,406,9.6436,1.9547,-14.3002,0.4141,-0.3617,-0.3568,75,85009.759,1643883,0.1885,-0.5673,-3.4988,-1.5655,0.8617,1.5646,46
21.394,413,7.0529,-2.7904,-13.0193,-0.6699,0.8021,1.1312,75,20.81,401,5.7863,6.5872,-10.7606,-0.3668,-0.1954,0.1765,84,21.082,407,9.6844,1.5075,-13.5135,0.2948,-0.5603,-0.4364,75,85009.811,1643884,1.1811,-0.302,-3.4095,-1.8205,0.8114,1.8176,46
21.446,414,4.2206,-4.4715,-11.3889,-0.8023,1.2678,1.229,75,20.862,402,4.2918,6.8344,-10.3997,0.254,0.2549,-0.018,84,21.134,408,11.327,1.0408,-12.8882,-0.3015,-1.0802,-0.4734,75,85009.863,1643885,1.9266,-0.1455,-3.3751,-2.0065,0.8175,2.0023,46
21.498,415,2.22,-6.2952,-9.3758,0.0526,0.8039,0.9398,75,20.914,403,2.6605,7.5692,-10.8729,0.3902,0.4278,-0.1387,84,21.186,409,13.5327,-1.975,-13.29,-0.8952,-1.4618,-0.6338,75,85009.915,1643886,2.4644,-0.036,-3.372,-2.1423,0.8587,2.137,46
21.55,416,1.6792,-5.231,-7.0563,0.7128,0.8813,0.4006,75,20.966,404,2.1181,9.9053,-12.494,0.2123,0.1568,-0.1543,84,21.237,410,11.8531,-1.7347,-13.9895,-1.2646,-1.5118,-0.3767,75,85009.967,1643887,4.3965,5.3048,-2.6523,-2.2414,0.8831,2.2354,46
21.601,417,1.0913,-2.3713,-6.9869,1.1946,1.1903,0.0248,75,21.017,405,1.991,10.3295,-13.671,-0.0186,-0.251,-0.3854,84,21.289,411,9.2617,-2.3343,-11.9549,-1.3736,-0.797,0.3969,75,85010.018,1643888,6.9995,9.2028,-3.9836,-2.0587,0.3301,2.3072,46
21.653,418,0.3434,1.5149,-10.5436,1.5308,1.3023,-0.2134,75,21.069,406,2.3397,9.7466,-13.7433,-0.2101,-0.783,-0.4652,84,21.341,412,8.8035,-2.607,-10.896,-0.5458,-0.1906,0.9674,75,85010.07,1643889,4.5921,7.6341,-5.1666,-0.8287,-0.2368,2.3596,46
21.705,419,1.7006,1.0771,-11.1523,1.2556,0.2811,-0.8308,75,21.121,407,2.3051,8.4499,-13.3276,-0.4741,-1.1036,-0.4251,84,21.393,413,9.7957,-1.39,-10.5812,0.2759,0.5392,1.3838,75,85010.122,1643890,2.7801,6.0424,-5.9669,0.0691,-0.6866,2.3978,46
21.757,420,6.2941,0.1384,-5.5483,0.2457,-0.4456,-0.8184,75,21.173,408,2.3434,7.2671,-13.1768,-0.8081,-1.2622,-0.2676,84,21.445,414,11.571,0.3289,-11.7515,0.0825,1.0719,1.6877,75,85010.174,1643891,-3.2025,0.474,-12.3805,0.6902,-0.9874,2.4257,46
21.809,421,8.5879,4.6897,-12.0459,-0.4981,-0.9946,-0.9714,75,21.225,409,3.4543,6.9906,-13.6273,-1.1062,-1.195,-0.0751,84,21.496,415,11.5754,2.7193,-15.9468,-0.615,1.4607,1.9095,75,85010.225,1643892,-2.3807,-0.0018,-11.5595,0.5676,-0.0841,2.4461,46
21.86,422,11.3001,0.0688,-12.0774,0.2663,-0.0434,-0.175,75,21.276,410,5.0015,7.2585,-13.8798,-1.1535,-0.9342,0.2892,84,21.548,416,10.5122,2.5092,-12.9491,-0.0674,0.5469,0.8757,75,85010.277,1643893,-1.6704,-0.2766,-11.0409,0.51,0.5897,2.461,46
21.912,423,11.543,1.904,-10.9689,0.3517,0.6507,0.503,75,21.328,411,5.9114,8.1316,-12.6858,-1.2254,-0.6167,0.5619,84,21.6,417,12.938,7.1832,-10.2095,0.5436,0.7393,-0.0349,75,85010.329,1643894,-1.1566,-0.503,-10.6416,0.507,1.0917,2.4718,46
21.964,424,10.4942,0.357,-10.6328,-0.4207,0.7014,0.9578,75,21.38,412,5.0964,6.5044,-12.1458,-0.5571,-0.4208,0.8159,84,21.652,418,13.216,3.5918,-11.1741,0.5061,0.2868,0.034,75,85010.381,1643895,-0.8046,-0.6959,-10.3302,0.5375,1.4679,2.4797,46
22.016,425,9.4603,-1.1655,-9.5457,-0.4661,1.1068,0.9768,75,21.432,413,5.481,9.3731,-11.889,0.1824,-0.2577,1.0854,84,21.704,419,12.2183,1.5893,-11.5314,0.0692,-0.0547,-0.042,75,85010.432,1643896,-0.5765,-0.8685,-10.0798,0.6013,1.7477,2.4855,46
22.068,426,7.1514,-2.226,-8.5419,-0.1691,1.4902,0.7289,75,21.484,414,5.2253,10.3337,-11.94,-0.0874,-0.3823,1.0879,84,21.756,420,11.7075,0.9163,-11.7675,0.0199,-0.2631,-0.051,75,85010.484,1643897,-0.4382,-1.0305,-9.8927,0.6825,1.955,2.4897,46
22.119,427,2.7496,-3.2537,-7.0062,-0.0625,1.745,0.6132,75,21.535,415,4.5886,9.5822,-11.9938,-0.1694,-0.5012,0.9009,84,21.807,421,10.4178,-1.1811,-12.1059,-0.2991,-0.3508,-0.091,75,85010.536,1643898,-0.4119,-1.1748,-9.7372,0.7844,2.1111,2.4928,46
22.171,428,0.4657,-2.823,-6.2697,0.5562,1.1281,0.4746,75,21.587,416,3.5245,8.4054,-11.834,0.0453,-0.6302,0.5291,84,21.859,422,9.6717,-1.3904,-12.5942,-0.4838,-0.4189,-0.1444,75,85010.588,1643899,-5.4407,4.4737,-15.1322,0.8885,2.0158,2.495,46
22.223,429,-2.8289,-1.3865,-1.9847,1.0803,0.3993,-0.037,75,21.639,417,2.7698,7.9363,-11.4042,0.0194,-0.8667,0.3248,84,21.911,423,8.9657,-2.1041,-13.0094,-0.5215,-0.5362,-0.2424,75,85010.64,1643900,-5.1402,4.3016,-14.2043,1.1026,0.8627,2.4223,46
22.275,430,-2.7658,-0.3547,-0.7347,0.323,-0.319,-0.7021,75,21.691,418,2.449,7.3082,-11.74,-0.5286,-1.0744,0.2909,84,21.963,424,8.8795,-1.9576,-13.3136,-0.3316,-0.7412,-0.3516,75,85010.691,1643901,-3.7268,3.1829,-12.6757,1.2649,-0.0335,2.1431,46
22.326,431,3.039,5.131,-7.2877,-0.3132,-0.9022,-1.1875,75,21.743,419,3.1537,7.264,-12.2348,-0.7266,-1.1403,0.0945,84,22.014,425,9.0579,-1.8303,-13.468,-0.2587,-0.9584,-0.4152,75,85010.743,1643902,2.6384,-2.9349,-6.6879,1.424,-0.4853,2.146,46
22.378,432,1.9839,3.9009,-11.145,-0.3935,-0.8868,-0.4191,75,21.794,420,4.4141,7.8606,-12.6138,-0.9248,-0.9477,-0.2898,84,22.066,426,10.2692,-1.1402,-13.6159,-0.5395,-1.3343,-0.2585,75,85010.795,1643903,2.0113,-2.3276,-6.3251,1.7132,0.3345,1.7969,46
22.43,433,5.0871,3.338,-14.6273,-0.9645,-0.8098,0.3701,75,21.846,421,5.2839,7.82,-12.6618,-0.6107,-0.6778,-0.5728,84,22.118,427,12.7607,-1.2143,-11.948,-1.069,-1.6252,0.0779,75,85010.846,1643904,1.4155,-1.779,-5.8152,1.9242,0.9328,1.5419,46
22.482,434,6.3112,1.6527,-12.7749,-0.5275,0.0302,0.929,75,21.898,422,5.8184,8.0455,-12.8673,-0.3338,-0.4829,-0.4851,84,22.17,428,13.3206,-0.9552,-15.1888,-1.4554,-1.8595,0.208,75,85010.898,1643905,0.9588,-1.3591,-5.4348,2.0783,1.3694,1.3524,46
22.534,435,5.0689,-0.6992,-10.6478,-0.8826,0.7045,1.3547,75,21.95,423,5.5873,8.2876,-13.202,-0.2751,-0.427,-0.1269,84,22.222,429,9.3846,-0.7076,-15.9572,-1.7358,-1.6301,0.5575,75,85010.95,1643906,0.6214,-1.0385,-5.1664,2.1907,1.6881,1.2112,46
22.585,436,3.9316,-1.2313,-9.2095,-0.4467,1.0791,1.612,75,22.002,424,4.6991,8.6089,-13.7149,-0.5131,-0.6657,0.3377,84,22.273,430,8.0263,0.3166,-13.4283,-1.107,-0.8264,0.9979,75,85011.002,1643907,0.3736,-0.8023,-4.9804,2.2727,1.9207,1.1044,46
22.637,437,2.3248,-0.8824,-8.5947,0.3484,1.2086,1.3521,75,22.054,425,3.8816,8.851,-14.2246,-0.8418,-1.0524,0.6257,84,22.325,431,7.343,1.1492,-11.8833,-0.2423,0.0752,1.406,75,85011.053,1643908,0.1884,-0.6226,-4.8569,2.3326,2.0905,1.0229,46
22.689,438,-0.0527,2.8976,-10.5212,0.9286,1.3885,0.7975,75,22.105,426,3.4135,8.4493,-14.489,-1.1505,-1.3908,0.5871,84,22.377,432,7.4761,0.9,-11.2167,0.4979,0.7332,1.7039,75,85011.105,1643909,5.4958,-5.7123,-2.9764,2.3181,2.2144,1.4223,46
22.741,439,0.0908,1.1839,-5.0877,1.3212,0.344,-0.0931,75,22.157,427,3.2071,7.3092,-14.3074,-1.1693,-1.5052,0.2794,84,22.429,433,9.3529,1.4563,-11.6091,0.4635,1.2135,1.8931,75,85011.157,1643910,5.2814,-5.5634,-5.2016,1.9059,2.3048,1.7137,46
22.793,440,-2.6613,1.978,-4.8845,0.9416,0.809,-0.3539,75,22.209,428,2.9888,6.02,-13.9693,-0.971,-1.3872,-0.056,84,22.481,434,11.5607,2.6817,-16.4777,-0.337,1.564,2.0448,75,85011.209,1643911,3.7656,-4.5933,-6.2528,1.6309,2.3708,1.9264,46
22.844,441,-1.1739,6.8335,-11.458,0.0098,-0.0789,-0.9334,75,22.261,429,3.3233,6.0349,-13.8285,-0.7645,-1.2001,-0.2179,84,22.532,435,9.1593,3.9653,-19.7775,-0.4977,1.3296,1.405,75,85011.26,1643912,-1.5797,-7.0922,-12.5891,1.8531,2.2179,2.0817,46
22.896,442,4.2009,9.2978,-5.8023,-0.6702,0.287,-1.1539,75,22.313,430,4.198,6.8916,-13.9963,-0.8407,-1.0372,-0.2401,84,22.584,436,11.9506,3.2089,-20.6557,0.2514,0.4595,0.6795,75,85011.312,1643913,-1.777,-5.4641,-11.9754,2.0263,2.2972,2.195,46
22.948,443,1.5225,5.5801,-7.4126,-1.0449,0.8859,-0.4597,75,22.364,431,4.5755,6.6543,-13.9972,-0.5911,-0.949,-0.1751,84,22.636,437,13.9878,0.9122,-18.1034,-0.3549,-0.338,0.6248,75,85011.364,1643914,-1.9188,-4.2487,-10.9704,2.1528,2.3342,2.2777,46
23.0,444,5.3884,-1.1251,-7.1402,-0.2171,1.1992,0.2755,75,22.416,432,6.3056,8.8408,-12.9722,-0.8499,-0.9857,0.2965,84,22.688,438,12.5968,-0.474,-16.9999,-0.4971,-0.5446,0.4539,75,85011.416,1643915,-2.0327,-3.3581,-10.2072,2.2451,2.3378,2.3381,46
23.052,445,3.8946,-3.4008,-6.7918,0.5159,1.5576,0.8715,75,22.468,433,5.911,7.0837,-12.4354,-1.3003,-0.9576,0.8818,84,22.74,439,11.8806,-0.5747,-15.624,-0.1694,-0.6616,0.2429,75,85011.467,1643916,-2.1419,-2.7003,-9.6279,2.3124,2.3096,2.3821,46
23.103,446,5.7206,-6.0099,-7.1887,1.0509,1.8193,1.3127,75,22.52,434,5.7938,6.8473,-11.1786,-0.6369,-0.4534,1.0398,84,22.791,440,11.0087,-1.6556,-14.724,-0.2155,-0.6032,0.156,75,85011.519,1643917,-2.246,-2.2141,-9.1918,2.3616,2.261,2.4143,46
23.155,447,4.8292,-5.0605,-7.7724,1.4414,1.9929,1.2232,75,22.572,435,5.437,7.4937,-11.1579,-0.5961,-0.07,1.2316,84,22.843,441,10.3979,-1.9916,-14.0748,-0.3274,-0.6108,0.106,75,85011.571,1643918,-2.4855,-0.4814,-9.3484,2.3975,2.1807,2.4377,46
23.207,448,2.9967,-0.8234,-10.543,1.7264,2.0566,0.2449,75,22.623,436,5.4183,7.9275,-11.9703,-0.5826,0.1627,1.0596,84,22.895,442,10.0993,-2.2866,-13.5777,-0.4451,-0.7118,0.0786,75,85011.623,1643919,-1.0009,4.0164,-13.8674,2.1098,1.5948,2.1157,46
23.259,449,2.5571,0.9936,-15.3724,1.9265,0.8317,-0.0987,75,22.675,437,5.0858,7.599,-12.5833,-0.4472,0.0751,0.6539,84,22.947,443,9.8397,-1.8926,-13.5414,-0.5298,-0.9383,0.1201,75,85011.674,1643920,-0.4688,6.621,-15.8808,2.184,0.6194,0.8681,46
23.311,450,5.6612,-0.3839,-12.2973,0.7287,0.0543,-0.5709,75,22.727,438,4.4824,7.1873,-12.1872,-0.3921,-0.197,0.2708,84,22.998,444,9.7981,-1.9294,-13.5764,-0.5457,-1.2211,0.1845,75,85011.726,1643921,0.1212,4.2876,-13.637,2.1297,-0.211,-0.0425,46
23.362,451,0.537,5.1098,-13.374,1.2062,-0.3905,-1.0874,75,22.779,439,4.106,7.0006,-11.5558,-0.8755,-0.427,0.0522,84,23.05,445,10.131,-1.3398,-13.4764,-0.9731,-1.369,0.3762,75,85011.778,1643922,0.623,2.5555,-12.0146,2.1192,-0.8171,-0.7071,46
23.414,452,5.4496,6.4658,-14.5862,0.5933,-0.9543,-1.4687,75,22.831,440,3.8772,6.9708,-10.811,-1.319,-0.5048,-0.1884,84,23.102,446,12.6598,-2.481,-12.8944,-1.3855,-1.6725,0.7461,75,85011.83,1643923,1.6429,2.0182,-11.7676,2.2206,0.0923,-1.1407,46
23.466,453,9.0349,3.019,-13.5664,-0.2443,-0.085,-0.3953,75,22.882,441,3.8231,6.5318,-10.7283,-0.8813,-0.5255,-0.2588,84,23.154,447,14.5054,-4.5125,-8.455,-1.6864,-1.753,0.4536,75,85011.881,1643924,1.8442,2.2968,-7.9129,2.2946,0.756,-1.5086,46
23.518,454,10.0382,0.5579,-10.5681,-0.8557,0.6047,0.1097,75,22.934,442,6.3171,9.2003,-11.8371,-0.7901,-0.6807,-0.0364,84,23.206,448,12.143,-2.345,-6.9966,-1.906,-0.911,1.0068,75,85011.933,1643925,1.9487,2.5135,-5.1028,2.3486,1.2405,-1.7771,46
23.57,455,8.0365,-0.3948,-9.6649,-1.3019,1.1238,0.4235,75,22.986,443,6.411,8.4536,-12.7176,-0.9944,-0.9173,-0.1049,84,23.257,449,10.9942,-1.1613,-6.795,-1.121,0.0134,1.4125,75,85011.985,1643926,1.9986,2.6888,-3.0701,2.388,1.594,-1.9731,46
23.621,456,6.1773,-2.1942,-8.8976,-1.6276,1.3351,0.6898,75,23.038,444,5.632,7.7653,-12.553,-0.6516,-1.3421,-0.1075,84,23.309,450,11.7733,0.7223,-6.9518,-0.2417,0.6882,1.7086,75,85012.037,1643927,2.0253,2.8218,-1.6145,2.4167,1.852,-2.1161,46
23.673,457,5.4942,-3.386,-8.3773,-1.3195,1.3,0.6479,75,23.09,445,4.9254,7.9714,-12.5482,-1.0596,-1.6522,0.2217,84,23.361,451,13.3176,5.8791,-10.7385,-0.7568,1.1806,1.8822,75,85012.088,1643928,2.0429,2.9088,-0.59,2.4377,2.0404,-2.2205,46
23.725,458,6.3609,-3.8115,-7.7554,-0.9437,1.6312,0.0866,75,23.141,446,4.039,7.6039,-13.1947,-1.4534,-1.8785,0.0342,84,23.413,452,10.2102,-0.9462,-15.8423,0.1242,1.5376,1.4324,75,85012.14,1643929,2.7236,-2.8648,-2.443,2.453,2.1778,-2.2929,46
23.777,459,4.4033,-3.9632,-7.6405,-1.1857,1.873,-0.2655,75,23.193,447,5.1304,7.3686,-13.8844,-1.7407,-1.8573,-0.0886,84,23.465,453,6.2855,1.7596,-15.0423,-0.5846,0.7304,1.2523,75,85012.192,1643930,3.0698,-4.428,0.7804,1.9844,2.2781,-2.2102,46
23.828,460,-1.3323,-1.3906,-10.2116,-0.6808,2.0488,-0.109,75,23.245,448,5.9871,7.5571,-15.2311,-1.2016,-1.6651,-0.4503,84,23.516,454,6.8276,3.3579,-15.8504,-0.2653,0.4562,1.0411,75,85012.244,1643931,4.5215,-8.4896,2.0675,0.7704,2.3513,-2.056,46
23.88,461,-4.4973,0.6651,-12.383,0.1689,0.8337,-0.7546,75,23.297,449,6.4234,7.5865,-15.4723,-0.5047,-1.6347,-0.7207,84,23.568,455,7.6254,0.9992,-14.8787,-0.3475,0.2375,0.8289,75,85012.296,1643932,3.201,-5.8648,0.6966,-0.1156,2.259,-1.8239,46
23.932,462,-0.16,5.8754,-9.4743,-0.2162,-0.0609,-0.8498,75,23.349,450,6.2213,7.6132,-14.654,-0.9042,-1.8653,-0.4773,84,23.62,456,7.8192,-0.5984,-14.1962,-0.7027,0.1463,0.6287,75,85012.347,1643933,2.255,-3.9243,-0.3255,-0.7622,2.1666,-1.6534,46
23.984,463,4.9357,8.4059,-6.9315,-0.8349,-0.7137,-1.2953,75,23.401,451,5.9046,6.3277,-14.3664,-1.3399,-2.0331,-0.1328,84,23.672,457,7.9603,-0.7842,-13.3602,-1.0086,-0.0231,0.5226,75,85012.399,1643934,1.7365,-2.2191,-8.0028,-1.2342,2.0959,-1.3705,46
24.036,464,8.6599,6.9089,-13.0554,-1.2867,-1.1903,-0.2687,75,23.453,452,5.9131,5.6484,-13.5501,-1.5035,-2.0516,0.0758,84,23.724,458,7.9692,-1.3598,-13.3267,-0.8724,-0.3135,0.3947,75,85012.451,1643935,1.2891,-1.4197,-7.0314,-1.5786,2.1982,-1.1498,46
24.087,465,7.8256,-0.1553,-14.3656,-0.273,-1.0945,0.4805,75,23.505,453,5.8474,4.7641,-12.8813,-1.5519,-1.8245,0.1282,84,23.775,459,8.9327,-0.9458,-13.112,-0.7595,-0.6626,0.4137,75,85012.503,1643936,0.9608,-0.8383,-6.4099,-1.83,2.2669,-0.9878,46
24.139,466,8.4747,-2.4131,-15.324,0.4752,-0.1164,0.4116,75,23.556,454,5.739,4.8034,-12.1807,-1.0857,-1.3749,0.2897,84,23.827,460,11.0319,-0.0176,-12.3156,-1.0316,-1.1446,0.7001,75,85012.554,1643937,0.7255,-0.4223,-5.9535,-2.0135,2.3112,-0.8681,46
24.191,467,7.5771,-1.1833,-11.2005,1.0212,0.5975,0.5369,75,23.608,455,5.9435,6.6551,-12.4714,-0.6376,-1.0448,0.7773,84,23.879,461,13.3173,-0.1612,-12.0625,-1.4281,-1.5088,1.0666,75,85012.606,1643938,0.5683,-0.1352,-5.5915,-2.1474,2.3341,-0.7804,46
24.243,468,6.7983,-1.641,-8.2874,0.9208,1.1185,0.5923,75,23.66,456,6.0522,9.3233,-12.9589,-1.1018,-1.0227,1.0653,84,23.931,462,12.0691,-1.4654,-13.1105,-1.7175,-1.7746,1.1484,75,85012.658,1643939,0.4383,0.0585,-5.3378,-2.2452,2.3415,-0.7155,46
24.295,469,4.4913,-0.6067,-6.0914,1.0752,1.4987,0.4648,75,23.712,457,5.8382,8.0341,-13.5294,-1.4841,-1.3775,0.9793,84,23.983,463,9.6955,-2.1126,-10.0789,-1.9259,-0.8603,1.4088,75,85012.71,1643940,0.3377,0.1978,-5.1551,-2.3165,2.3346,-0.6669,46
24.346,470,2.5655,-0.727,-5.8487,0.5607,1.7763,-0.0821,75,23.764,458,4.832,8.0209,-12.7187,-0.6964,-1.2302,0.3817,84,24.034,464,8.8969,-0.6724,-8.7506,-1.7322,0.0505,1.706,75,85012.761,1643941,0.5785,2.2579,-6.9023,-2.3685,2.2766,-0.6592,46
24.398,471,1.2202,-0.913,-5.751,0.2182,1.9757,-0.2737,75,23.815,459,3.6039,8.2389,-12.2318,-0.6134,-1.3475,0.2326,84,24.086,465,9.4467,0.5317,-8.4756,-1.3817,0.7152,1.9228,75,85012.813,1643942,2.959,6.1387,-11.1318,-1.7167,1.6598,-0.8207,46
24.45,472,0.6328,-0.3665,-5.1533,0.1577,1.5629,-0.4486,75,23.867,460,3.1411,8.1102,-11.9835,-1.1252,-1.5351,0.216,84,24.138,466,10.7584,1.6094,-9.2235,-0.8209,1.2003,2.0757,75,85012.865,1643943,2.7542,5.4285,-11.6332,-0.5954,1.3111,-0.283,46
24.502,473,-0.4515,1.9887,-7.7512,0.2047,1.7393,-0.7267,75,23.919,461,4.1569,7.9151,-12.5295,-1.5012,-1.4409,0.2441,84,24.189,467,13.0185,2.8614,-11.4686,-0.9484,1.5544,2.0268,75,85012.916,1643944,1.9213,3.8801,-10.8556,0.2393,1.0484,0.1608,46
24.554,474,-0.78,1.0198,-10.1222,-0.528,0.6484,-1.2055,75,23.971,462,5.0442,6.6205,-13.0246,-1.6462,-0.9389,0.0322,84,24.241,468,12.6617,1.5902,-15.9996,-1.1297,1.8128,1.7942,75,85012.968,1643945,-3.8293,-2.426,-5.3595,-0.1772,1.0433,0.0909,46
24.606,475,0.7888,-4.299,-15.3841,0.0013,-0.1961,-1.5549,75,24.023,463,5.0712,5.6901,-12.9207,-0.7495,-0.527,-0.3009,84,24.293,469,9.9758,5.1574,-18.65,-0.8453,1.0965,1.3879,75,85013.02,1643946,-2.892,-1.4977,-3.165,-0.8072,1.4501,0.067,46
24.657,476,5.6333,1.188,-12.5897,0.6753,-0.8125,-1.81,75,24.074,464,5.0443,5.6792,-12.3289,-0.0266,-0.2514,-0.3696,84,24.345,470,9.1935,1.0355,-13.694,-0.4,0.3144,0.6823,75,85013.072,1643947,-1.9376,-0.9133,-2.5925,-1.267,1.747,0.0197,46
24.709,477,8.5316,-0.2163,-16.035,-0.1845,-1.2623,-0.6444,75,24.126,465,5.4808,6.3104,-11.6792,-0.1117,-0.1333,-0.0383,84,24.397,471,9.0318,-0.9624,-11.9523,-0.332,-0.4439,0.2503,75,85013.123,1643948,-1.2467,-0.4806,-2.1774,-1.6026,1.9637,-0.0496,46
24.761,478,11.2844,-5.3555,-18.4387,0.1693,-1.1667,0.2064,75,24.178,466,6.7777,5.9244,-11.479,-0.69,-0.2325,0.5294,84,24.448,472,9.1695,-1.4664,-12.6884,-0.498,-0.7499,0.2317,75,85013.175,1643949,-0.7186,-0.153,-1.894,-1.8475,2.1219,-0.093,46
24.813,479,9.6049,-4.5373,-16.6399,0.7979,-0.1691,0.3886,75,24.23,467,8.0829,5.675,-11.9893,-0.7713,-0.2825,0.9188,84,24.5,473,9.8544,-1.4488,-12.9051,-0.535,-0.9782,0.1018,75,85013.227,1643950,-0.3139,0.103,-1.6909,-2.0263,2.2373,-0.1199,46
24.864,480,2.0103,-3.2973,-12.9055,0.715,0.559,0.8567,75,24.282,468,8.7694,7.6484,-12.3827,-0.0309,-0.458,0.7965,84,24.552,474,9.4929,-2.1145,-12.884,-0.6931,-0.6748,-0.0662,75,85013.279,1643951,-0.0083,0.2981,-1.5397,-2.1567,2.3215,-0.1353,46
24.916,481,-0.0852,-3.6889,-9.7327,1.1962,-0.2613,0.8181,75,24.333,469,6.7966,7.52,-11.51,0.3977,-0.4523,0.3615,84,24.604,475,9.5712,-2.7404,-12.1165,-0.4888,-0.7029,-0.3377,75,85013.331,1643952,0.2229,0.4483,-1.4131,-2.2519,2.383,-0.1426,46
24.968,482,-2.7935,2.6976,-9.4851,1.5474,-0.4568,0.7184,75,24.385,470,4.6719,6.7293,-10.9085,0.962,-0.1866,-0.2168,84,24.656,476,9.3088,-2.1608,-11.986,-0.5922,-0.9047,-0.42,75,85013.382,1643953,0.3962,0.5616,-1.2993,-2.3214,2.4279,-0.1436,46
25.02,483,-6.6344,2.6992,-7.7174,1.3438,0.1872,0.4406,75,24.437,471,2.6033,7.1764,-10.6846,1.3738,0.0964,-0.7449,84,24.707,477,9.2716,-1.7318,-12.285,-0.684,-1.2562,-0.4835,75,85013.434,1643954,0.5213,0.6409,-1.2016,-2.3722,2.4607,-0.1412,46
25.072,484,0.2155,-1.0366,-4.502,0.3034,-0.5327,-0.2498,75,24.489,472,2.0567,8.1507,-11.1379,1.5273,0.0094,-1.1172,84,24.759,478,11.0075,0.2105,-10.6815,-1.0792,-1.5902,-0.4588,75,85013.486,1643955,1.6842,-0.0191,-5.2523,-2.4092,2.212,0.0249,46
25.123,485,5.2149,-2.3349,-11.2822,-0.4559,-1.0581,0.4944,75,24.541,473,2.8773,8.6632,-11.1728,1.118,-0.493,-1.343,84,24.811,479,13.2995,-3.3166,-13.65,-1.4623,-1.834,-0.8046,75,85013.538,1643956,1.425,0.1491,-6.0806,-2.3878,0.963,0.5015,46
25.175,486,8.8637,-6.9018,-8.3821,-0.6864,-1.4411,1.0374,75,24.592,474,5.6688,8.6007,-12.0134,0.1391,-0.8075,-0.977,84,24.863,480,10.8275,-3.817,-13.5999,-0.7055,-1.6873,-1.2504,75,85013.59,1643957,1.2797,0.2626,-6.6668,-2.3791,0.0558,0.8498,46
25.227,487,8.1079,-6.5138,-8.0932,0.1734,-0.6854,0.4777,75,24.644,475,8.2621,7.5223,-13.8444,-0.3735,-0.4177,-0.5698,84,24.915,481,8.6594,-1.9989,-11.8678,-0.1926,-0.9095,-1.5008,75,85013.641,1643958,3.5108,-1.6933,-5.0568,-2.3395,0.6931,1.2959,46
25.279,488,5.5153,-7.4895,-9.4004,0.6441,0.1822,0.3122,75,24.696,476,7.8537,6.4097,-13.5444,0.1044,0.1342,-0.4119,84,24.966,482,8.1674,-1.7432,-10.6878,-0.2839,0.0146,-1.5185,75,85013.693,1643959,2.9688,-1.46,-6.1058,-2.3236,1.1914,1.6215,46
25.33,489,3.6058,-9.4773,-7.5431,1.0787,0.8154,0.6703,75,24.748,477,6.6231,6.1788,-13.6755,0.2502,0.5993,0.1123,84,25.018,483,8.9297,-2.9158,-10.8257,-0.6643,0.689,-0.9471,75,85013.745,1643960,2.5445,-1.3204,-6.7717,-2.2957,1.5581,1.8591,46
25.382,490,3.0564,-8.6663,-9.6356,1.3186,1.1781,0.8614,75,24.8,478,5.3853,7.067,-14.4386,0.4511,0.802,0.4198,84,25.07,484,9.9189,-3.0807,-11.4819,0.0987,1.1812,-0.1687,75,85013.797,1643961,2.2117,-1.2239,-7.2427,-2.2604,1.8258,2.0326,46
25.434,491,2.8236,-4.3151,-14.554,1.5642,0.2658,0.5988,75,24.852,479,4.2953,7.3001,-14.3886,0.2715,0.6726,0.5,84,25.122,485,11.4468,-2.0304,-12.8154,0.7486,1.5405,0.4366,75,85013.848,1643962,6.9726,4.4378,-13.3116,-2.2297,2.0212,2.1592,46
25.486,492,2.6449,0.186,-16.1697,1.5699,-0.4012,0.1989,75,24.903,480,3.7229,7.1967,-14.3769,0.0276,0.5649,0.3943,84,25.174,486,11.5026,-0.5886,-15.8435,1.2229,1.8026,0.6503,75,85013.9,1643963,10.4472,8.57,-17.0121,-1.5238,1.4647,1.9662,46
25.537,493,-2.0142,2.6146,-14.2626,0.5689,-0.9621,-0.2232,75,24.955,481,3.2962,7.1718,-13.9473,0.1235,0.6082,-0.0318,84,25.225,487,7.7928,1.1846,-19.5682,1.569,1.4144,0.3895,75,85013.952,1643964,8.3525,7.9736,-17.2973,-0.5407,0.7483,1.6582,46
25.589,494,3.5876,0.6359,-13.2028,-0.2622,-1.3715,-0.643,75,25.007,482,2.7718,7.6391,-12.912,-0.1582,0.7104,-0.4399,84,25.277,488,10.9533,0.6161,-22.2866,0.9917,0.3589,0.1138,75,85014.004,1643965,6.099,5.8267,-14.9205,0.2791,0.041,1.3186,46
25.641,495,7.676,-4.6562,-15.6575,-0.8687,-1.4326,0.2074,75,25.059,483,2.663,7.8034,-11.6473,-0.133,0.3443,-0.5023,84,25.329,489,8.0744,0.7624,-19.7881,0.7922,0.2252,0.2234,75,85014.055,1643966,-0.7803,-1.0053,-8.3262,-0.1695,0.5637,0.6745,46
25.693,496,6.7326,-4.1149,-14.5082,0.0403,-1.0436,-0.3328,75,25.111,484,6.8634,9.3195,-11.1815,-0.7216,0.2073,-0.2384,84,25.381,490,9.1434,0.6331,-17.9586,0.7382,-0.2442,0.2624,75,85014.107,1643967,-1.0622,-1.3872,-5.2899,0.5501,1.1,1.168,46
25.745,497,4.7789,-3.6336,-14.2535,0.6743,-0.5879,-0.9176,75,25.162,485,7.7836,7.0782,-11.2566,-0.585,0.4289,-0.0238,84,25.432,491,10.0813,1.5811,-16.2395,0.3794,-0.4591,0.0401,75,85014.159,1643968,-1.0853,-1.7504,-4.2341,1.0754,1.4915,1.5281,46
25.796,498,2.9712,-5.2714,-13.0496,0.9631,-0.4441,-0.9085,75,25.214,486,7.2203,7.5823,-10.166,0.2156,0.6701,0.1559,84,25.484,492,9.902,0.2687,-15.0988,0.2962,-0.3889,-0.0887,75,85014.21,1643969,-1.1195,-1.9743,-3.4811,1.4588,1.7772,1.791,46
25.848,499,0.9025,-6.9085,-13.9601,1.3773,-0.9495,-0.2338,75,25.266,487,5.351,7.0826,-9.7401,0.4242,0.7801,0.2158,84,25.536,493,8.9806,0.4682,-14.6121,0.1017,-0.4925,-0.08,75,85014.262,1643970,-1.1601,-2.1261,-2.9413,1.7385,1.9858,1.9828,46
25.9,500,-1.1863,-5.9191,-14.6052,1.6796,-0.9552,0.4968,75,25.318,488,3.505,7.196,-9.3976,0.4469,0.9157,-0.0635,84,25.588,494,8.6976,0.036,-14.1403,-0.0129,-0.7152,-0.0952,75,85014.314,1643971,-1.1971,-2.221,-2.5658,1.9427,2.138,2.1229,46
25.952,501,-2.3768,-3.4524,-14.4932,1.9002,-1.2293,0.2465,75,25.37,489,2.615,6.759,-9.6827,0.3834,1.0189,-0.4901,84,25.639,495,9.1431,0.5947,-13.6806,0.0313,-1.0193,-0.2295,75,85014.366,1643972,-1.2142,-2.2738,-2.2431,2.0918,2.2491,2.225,46
26.004,502,-4.9229,-2.1278,-7.9866,2.0612,-1.5666,-0.3036,75,25.421,490,1.5684,6.2095,-10.1804,0.8408,1.1526,-1.0441,84,25.691,496,11.526,0.8052,-12.3381,-0.2187,-1.417,-0.3882,75,85014.417,1643973,4.4722,-1.7179,-3.761,1.8198,1.8377,2.2996,46
26.055,503,1.4647,-4.8697,-8.9383,2.1787,-1.8127,-0.8967,75,25.473,491,0.9791,6.9998,-10.1169,1.1561,1.036,-1.4484,84,25.743,497,13.678,0.5843,-15.2316,-0.7274,-1.7076,-0.866,75,85014.469,1643974,3.6304,-0.9728,-5.6393,1.5635,0.7619,2.3541,46
26.107,504,1.317,-5.9016,-4.7411,1.3764,-1.4485,-0.3247,75,25.525,492,2.1203,8.5907,-10.7772,0.8463,0.644,-1.4052,84,25.795,498,11.7534,-0.845,-14.4084,0.0888,-1.5513,-1.3038,75,85014.521,1643975,2.6406,-0.2548,-6.6878,1.3544,-0.0372,2.3938,46
26.159,505,0.813,-4.752,-6.3982,1.4566,-0.3747,0.2498,75,25.577,493,6.352,10.9123,-11.9573,0.4519,0.5297,-0.8137,84,25.847,499,9.4473,-1.7051,-13.0012,0.7413,-0.4722,-1.6256,75,85014.573,1643976,0.5717,5.0114,-2.3177,1.2433,-0.6903,1.4686,46
26.211,506,5.651,-7.0638,-6.3268,0.3857,0.2335,0.859,75,25.629,494,7.6745,10.7017,-11.6071,-0.0114,0.84,-0.2985,84,25.899,500,8.5872,-1.8256,-12.612,0.7456,0.3337,-1.8604,75,85014.624,1643977,0.6607,3.1563,-2.223,1.3816,-1.1669,0.3958,46
26.263,507,5.7188,-9.2671,-7.9551,0.5164,0.3006,1.3036,75,25.68,495,7.0108,9.328,-11.1403,0.3484,1.1993,0.3081,84,25.95,501,9.2724,-4.1579,-13.1142,0.5717,0.9219,-1.8227,75,85014.676,1643978,0.7502,1.7429,-2.5278,1.5108,-1.5147,-0.3872,46
