right_hand_timestamp,right_hand_index,right_hand_accel_x,right_hand_accel_y,right_hand_accel_z,right_hand_gyro_x,right_hand_gyro_y,right_hand_gyro_z,right_hand_battery_percentage,left_hand_timestamp,left_hand_index,left_hand_accel_x,left_hand_accel_y,left_hand_accel_z,left_hand_gyro_x,left_hand_gyro_y,left_hand_gyro_z,left_hand_battery_percentage,right_leg_timestamp,right_leg_index,right_leg_accel_x,right_leg_accel_y,right_leg_accel_z,right_leg_gyro_x,right_leg_gyro_y,right_leg_gyro_z,right_leg_battery_percentage,left_leg_timestamp,left_leg_index,left_leg_accel_x,left_leg_accel_y,left_leg_accel_z,left_leg_gyro_x,left_leg_gyro_y,left_leg_gyro_z,left_leg_battery_percentage,ball_timestamp,ball_index,ball_accel_x,ball_accel_y,ball_accel_z,ball_gyro_x,ball_gyro_y,ball_gyro_z,ball_battery_percentage
0.265,5,-0.9668,2.1502,-12.0254,1.5857,1.3292,0.1503,75,0.571,11,-3.9271,8.9692,-7.7355,-0.1154,-0.8824,0.0132,86,0.042,0,9.6176,0.3731,-10.977,1.3788,-0.5789,-0.1704,71,0.462,8,8.8921,0.9726,-11.2383,-0.036,-0.0659,-0.136,40,82082.073,1587276,-6.0144,0.289,-6.172,-0.694,1.574,-1.5195,47
0.317,6,0.6592,3.3841,-16.7732,1.7941,1.6525,0.3168,75,0.623,12,-3.9528,8.8831,-7.5974,-0.1893,-0.6934,0.0541,86,0.094,1,9.7488,0.358,-11.1609,0.6858,-0.7558,-0.0562,71,0.514,9,8.8335,0.8551,-11.3041,0.0476,-0.0887,-0.1262,40,82082.124,1587277,-4.4375,0.2505,-6.7038,-0.6542,1.8374,-1.5415,47
0.369,7,1.5871,3.997,-15.3091,1.7785,1.3041,0.4979,75,0.675,13,-4.133,8.4821,-7.3789,-0.2059,-0.4995,0.1126,86,0.145,2,10.5138,-0.3122,-11.1638,0.3763,-1.1148,0.1326,71,0.566,10,8.7675,1.0628,-11.3245,0.3088,-0.098,-0.1481,40,82082.176,1587278,-3.1642,0.2735,-7.2015,-0.6508,2.0297,-1.539,47
0.42,8,2.565,1.2214,-18.9102,0.6206,0.2824,0.3261,75,0.727,14,-4.3504,8.2512,-7.3494,-0.1073,-0.2816,0.1631,86,0.197,3,10.7528,-1.3652,-11.7552,-0.1497,-1.3659,0.3703,71,0.618,11,8.6598,1.1492,-11.3594,0.3392,-0.1151,-0.1199,40,82082.228,1587279,-0.1752,0.4908,-6.7246,-0.7416,2.1592,-1.4576,47
0.472,9,1.7112,0.8369,-19.7259,-0.0404,-0.4632,0.1884,75,0.443,8,0.1203,8.9872,-7.2918,-0.5262,-0.3577,-0.423,86,0.249,4,10.7528,-2.1601,-11.1242,0.4163,-1.383,0.401,71,0.669,12,8.7048,1.1034,-11.532,0.2247,-0.1694,-0.0362,40,82082.28,1587280,1.0283,0.6419,-6.2897,-0.8363,2.1225,-1.2768,47
0.524,10,0.9566,0.3068,-19.7843,0.302,-0.9928,-0.0561,75,0.495,9,0.1185,8.3724,-7.2667,-0.464,-0.6324,-0.345,86,0.301,5,10.4883,-0.3442,-10.1619,0.9803,-0.9122,0.2669,71,0.721,13,8.7156,1.238,-11.6524,0.2138,-0.2148,0.0243,40,82082.331,1587281,0.732,0.4468,-7.2204,-0.7287,1.9455,-1.1417,47
0.576,11,-0.2333,1.1455,-19.0375,0.617,-1.3892,-0.2038,75,0.547,10,1.0617,9.8573,-6.5169,0.1632,-0.7847,-0.1931,86,0.353,6,10.3502,0.2424,-9.9305,0.8768,-0.1079,0.0564,71,0.773,14,8.7016,1.2828,-11.7725,0.2174,-0.2674,0.0764,40,82082.383,1587282,0.499,0.3278,-7.9503,-0.6499,1.8139,-1.042,47
0.835,16,-1.7019,1.7754,-7.3666,-0.4253,0.6426,0.8977,75,0.806,15,2.4563,8.2721,-6.2926,-0.3273,-0.2387,-0.4549,86,0.612,11,8.4313,-1.8345,-17.3928,-0.525,1.5138,-0.3391,71,1.032,19,8.5512,0.302,-12.6143,0.3643,-0.5471,0.2365,40,82082.642,1587287,1.8277,-0.4343,-10.2422,-0.7331,-0.0205,0.8734,47
0.886,17,-0.3236,2.4021,-6.1164,-0.2139,1.1514,0.9103,75,0.858,16,1.7725,7.9555,-6.1508,-0.3571,-0.1557,-0.3762,86,0.664,12,6.8792,-1.3369,-16.8906,-0.042,0.7311,-0.3005,71,1.084,20,8.7553,0.3356,-12.7645,0.3256,-0.7693,0.3737,40,82082.693,1587288,1.3804,-0.282,-10.125,-0.7473,-0.2003,1.0715,47
0.938,18,2.4155,1.7025,-12.4605,0.4632,1.5228,0.945,75,0.91,17,1.3664,7.9582,-6.0202,-0.39,-0.0818,-0.2936,86,0.715,13,7.9524,-0.0217,-13.5959,-0.129,0.0048,-0.0368,71,1.135,21,9.3417,-0.0252,-13.0012,0.2539,-1.116,0.5353,40,82082.745,1587289,1.0515,-0.1735,-10.0506,-0.7585,-0.3311,1.2166,47
0.99,19,5.0889,6.4785,-17.0908,-0.0026,0.8279,0.9623,75,0.962,18,0.9724,7.7275,-5.6733,-0.3911,0.0064,-0.216,86,0.767,14,7.9853,0.1344,-12.7241,-0.3853,-0.1307,0.1613,71,1.187,22,10.5369,-0.07,-13.0243,0.2938,-1.4798,0.695,40,82082.797,1587290,0.5304,-0.6964,-8.686,-0.077,-0.8309,0.4835,47
1.042,20,7.8614,2.8456,-18.1762,-0.517,-0.0651,0.8093,75,1.013,19,0.4612,7.3596,-5.5582,-0.3363,0.0761,-0.1554,86,0.819,15,8.1725,-0.5558,-11.8102,-0.3344,-0.3428,0.2574,71,1.239,23,12.1448,-0.1358,-12.4472,0.8062,-1.7468,0.8808,40,82082.849,1587291,2.6418,-0.1916,-4.9078,0.5705,-0.8756,-0.0054,47
1.093,21,7.2889,2.8469,-17.7911,-0.3814,-0.7168,0.2876,75,1.065,20,-0.0965,7.1485,-5.3996,-0.3289,0.0817,-0.0741,86,0.871,16,8.4189,-1.2997,-11.6093,-0.2291,-0.5342,0.2509,71,1.291,24,11.5761,-0.4913,-12.7645,1.2519,-1.7894,0.9056,40,82082.9,1587292,4.8258,3.0934,-4.8625,0.9909,-0.6627,-0.2162,47
1.145,22,5.8166,3.2003,-16.6971,-0.1154,-1.149,-0.3327,75,1.117,21,-0.0874,8.445,-4.4239,-0.0683,0.0946,0.0778,86,0.922,17,8.8621,-1.2141,-11.574,-0.2168,-0.5904,0.2832,71,1.342,25,8.5904,0.063,-13.9513,0.8814,-1.1155,0.8199,40,82082.952,1587293,3.5712,2.2568,-6.0759,1.397,-0.5798,-0.5515,47
1.197,23,3.6672,2.9785,-15.9553,0.0949,-0.918,-0.7904,75,1.169,22,0.1071,9.3799,-3.7076,-0.0635,0.3233,0.0716,86,0.974,18,8.8133,-1.8531,-11.7548,-0.2212,-0.5867,0.3162,71,1.394,26,7.0442,0.0185,-13.3257,0.6978,-0.1305,0.453,40,82083.004,1587294,2.457,1.5498,-7.0517,1.6934,-0.5186,-0.7961,47
1.249,24,1.1522,2.3157,-16.236,-0.1581,-0.6279,-0.9933,75,1.221,23,-0.0476,9.1993,-4.1464,-0.3193,0.1996,0.1414,86,1.026,19,8.7943,-2.309,-11.7805,-0.2144,-0.5641,0.2797,71,1.446,27,6.7182,0.3909,-13.2182,0.8142,0.5898,-0.1874,40,82083.056,1587295,0.896,0.4914,-5.4344,0.5581,0.3101,-0.1113,47
1.301,25,0.3741,1.0108,-15.1613,-0.1531,-0.4774,-0.9242,75,1.272,24,0.2906,9.6027,-4.582,0.0786,0.1083,0.1142,86,1.078,20,9.0041,-2.5145,-11.8299,-0.1487,-0.573,0.2392,71,1.498,28,8.3544,0.6447,-13.6963,0.2823,1.1154,-0.8082,40,82083.108,1587296,0.9105,0.2653,-5.8165,-0.2706,0.915,0.3877,47
1.353,26,0.6829,-1.2498,-11.8564,0.0225,0.1479,-0.5442,75,1.324,25,0.6991,9.626,-4.7664,-0.2812,0.0193,-0.14,86,1.13,21,9.0265,-2.5564,-11.9436,-0.1246,-0.5689,0.2328,71,1.55,29,9.5222,0.4569,-14.5438,-0.4602,1.499,-1.261,40,82083.159,1587297,0.9406,0.1113,-6.1207,-0.8753,1.3565,0.7517,47
1.404,27,0.3068,-1.1401,-13.456,-0.4779,0.0902,-0.3131,75,1.376,26,0.6138,8.7294,-5.328,-0.406,0.1204,-0.3294,86,1.181,22,8.6527,-2.7529,-12.1894,-0.1872,-0.5226,0.2344,71,1.601,30,10.6004,0.2054,-14.9009,-1.0129,1.779,-1.5575,40,82083.211,1587298,0.9474,-0.0019,-6.3267,-1.3167,1.6787,1.0166,47
1.456,28,0.6355,1.3866,-11.7537,-0.5967,0.7482,0.1618,75,1.428,27,0.2714,7.7416,-5.5975,-0.3214,0.1155,-0.4727,86,1.233,23,8.9125,-2.9652,-12.2988,-0.18,-0.5575,0.2089,71,1.653,31,11.2541,-0.3943,-15.2544,-1.2361,1.9834,-1.7553,40,82083.263,1587299,0.9617,-0.0865,-6.4915,-1.6389,1.9138,1.2096,47
1.508,29,2.0832,1.4299,-16.5749,0.2388,1.2285,0.4354,75,1.48,28,0.6593,7.8434,-5.7621,-0.4758,0.0309,-0.4204,86,1.285,24,9.1549,-2.9356,-12.3222,-0.1479,-0.7538,0.247,71,1.705,32,9.9953,-0.8137,-16.5393,-0.7959,2.1325,-1.9165,40,82083.315,1587300,0.9783,-0.1537,-6.6192,-1.874,2.0855,1.3509,47
1.56,30,6.578,6.4335,-20.0936,-0.5031,0.3304,0.6044,75,1.531,29,1.2245,8.1007,-5.2656,-0.0741,0.1136,-0.3056,86,1.337,25,9.5135,-2.8477,-12.8432,-0.1809,-1.0571,0.3505,71,1.757,33,8.3142,-2.1315,-18.1361,-0.3433,1.5011,-1.4944,40,82083.366,1587301,0.4469,-2.1558,-6.6518,-1.1966,1.7781,0.6944,47
1.612,31,9.8585,4.0847,-18.1764,-0.9902,-0.4282,0.5378,75,1.583,30,1.2195,7.7577,-5.1324,-0.2007,0.2389,-0.239,86,1.389,26,11.4085,-2.8148,-12.9334,-0.1745,-1.4428,0.4373,71,1.809,34,9.1295,0.4977,-15.0037,0.0298,0.4288,-0.6911,40,82083.418,1587302,-1.1291,-5.6854,-3.0325,-0.3628,1.3254,-0.0861,47
1.663,32,9.88,2.5325,-16.4446,-0.7618,-0.6142,0.3061,75,1.635,31,0.6116,6.9812,-5.2827,-0.1597,0.3046,-0.0351,86,1.44,27,11.5032,-3.1917,-13.2581,-0.2859,-1.6709,0.5308,71,1.86,35,11.325,-3.2821,-8.703,-0.6553,-0.3538,-0.2152,40,82083.47,1587303,-1.4383,-4.701,-2.5084,0.1899,1.2093,-0.2827,47
1.715,33,7.2848,1.7862,-16.1704,-0.3684,0.2042,0.0637,75,1.687,32,-0.013,7.4491,-4.4407,-0.0791,0.1645,0.3108,86,1.492,28,10.1347,-3.0075,-13.2627,-0.2172,-1.658,0.4458,71,1.912,36,13.1811,-0.8898,-7.9517,-0.4287,-0.2648,-0.0155,40,82083.522,1587304,-0.9564,-3.3444,-4.409,0.6847,1.1426,-0.3993,47
1.767,34,0.9004,2.8118,-19.4487,0.0788,0.8315,0.1324,75,1.739,33,0.0813,8.7476,-3.3742,0.1289,0.3948,0.4668,86,1.544,29,8.9529,-3.5062,-12.7477,-0.5478,-1.3096,0.3301,71,1.964,37,13.4396,0.4178,-8.8421,-0.2699,-0.631,0.2138,40,82083.573,1587305,-0.5761,-2.2585,-5.8995,1.0424,1.0938,-0.4862,47
1.819,35,-0.8681,1.9044,-20.0536,-0.1787,-0.0625,-0.4367,75,1.79,34,-0.3414,8.448,-3.7238,0.0382,0.6049,0.4866,86,1.596,30,8.3763,-3.0979,-11.8724,-1.0737,-0.5892,0.4573,71,2.016,38,12.2563,0.5848,-9.8238,-0.5435,-0.6998,0.3717,40,82083.625,1587306,1.0218,-1.0689,-9.101,0.0829,1.2951,0.2142,47
1.871,36,-0.3736,1.9266,-19.384,0.544,-0.7149,-0.9649,75,1.842,35,-0.7559,8.5271,-3.8187,0.1767,0.5016,0.4605,86,1.648,31,8.6987,-2.3794,-12.0212,-1.3046,0.2482,0.6419,71,2.068,39,10.9151,0.5093,-10.4379,-0.7589,-0.6555,0.3971,40,82083.677,1587307,1.2317,-0.6753,-7.7785,-0.6174,1.4566,0.7241,47
1.922,37,1.8761,2.4436,-16.359,0.2373,-1.1911,-1.0428,75,1.894,36,-0.8712,8.5327,-3.884,-0.0171,0.3788,0.3046,86,1.699,32,9.8427,-0.1964,-12.7526,-1.2587,0.8595,0.5565,71,2.119,40,10.8492,-0.8874,-10.6336,-0.6996,-0.5469,0.3026,40,82083.729,1587308,1.4079,-0.3997,-6.7935,-1.1285,1.5838,1.0952,47
1.974,38,3.2283,-3.2853,-11.0265,0.4478,-0.1869,-0.3902,75,1.946,37,-0.9846,8.2909,-3.9519,-0.063,0.3502,0.2317,86,1.751,33,10.3606,0.5321,-13.5415,-1.2291,1.3057,0.2662,71,2.171,41,10.3892,-0.5029,-10.9444,-0.6016,-0.4584,0.2068,40,82083.78,1587309,1.564,-0.2003,-6.0748,-1.5015,1.6869,1.3645,47
2.026,39,0.7094,-0.3132,-9.6011,-0.0999,0.4269,-0.432,75,1.998,38,-1.2341,7.7797,-4.0333,0.2219,0.3769,0.1963,86,1.803,34,10.4646,0.4275,-14.3217,-0.8758,1.6313,0.0071,71,2.223,42,10.0193,0.1208,-11.0413,-0.219,-0.3631,0.1264,40,82083.832,1587310,1.6498,-0.0648,-5.5302,-1.7737,1.7736,1.5594,47
2.078,40,2.3854,0.0874,-15.0038,0.407,0.994,-0.3202,75,2.049,39,-1.4197,7.4056,-4.1077,0.2431,0.3322,0.0912,86,1.855,35,10.1092,-1.5797,-16.4084,-0.0705,1.8615,-0.2778,71,2.275,43,9.5467,0.5828,-11.1348,0.0163,-0.3291,0.1476,40,82083.884,1587311,1.7126,0.016,-5.1124,-1.9724,1.8465,1.7011,47
2.129,41,6.7986,4.0198,-16.5629,-0.3803,0.6071,0.4424,75,2.101,40,-1.5725,7.0906,-4.0586,0.1037,0.3264,-0.0422,86,1.907,36,7.6067,-3.981,-19.9805,0.6251,1.5723,-0.4104,71,2.326,44,9.2173,0.8566,-11.2436,0.2656,-0.3952,0.2286,40,82083.936,1587312,1.7707,0.0746,-4.8272,-2.1174,1.9113,1.8036,47
2.181,42,7.5701,4.0764,-20.0849,-0.3191,-0.2262,0.5134,75,2.153,41,-1.7329,6.8964,-3.9097,-0.0662,0.3657,-0.0847,86,1.958,37,8.3636,2.4464,-16.2432,0.4054,1.2952,0.0027,71,2.378,45,9.0587,0.8538,-11.3099,0.3366,-0.5301,0.4264,40,82083.987,1587313,0.0649,5.3855,-11.5486,-1.137,1.1908,1.1358,47
2.233,43,6.1911,2.285,-20.3897,-0.0997,-0.8345,0.1674,75,2.205,42,-1.8179,6.6722,-3.8365,-0.1419,0.4221,-0.0362,86,2.01,38,10.4723,0.0683,-14.7077,0.4779,0.5725,0.2918,71,2.43,46,10.3416,1.3337,-11.5818,0.5032,-0.8673,0.7514,40,82084.039,1587314,-1.6326,5.8102,-15.7011,-0.3653,0.5688,0.3819,47
2.285,44,3.2737,3.5701,-19.4806,0.5315,-1.2784,0.0098,75,2.257,43,-1.9685,6.7281,-3.8285,-0.2184,0.4141,0.192,86,2.062,39,10.338,-0.9524,-14.3468,0.3593,0.1647,0.3703,71,2.482,47,12.1374,1.4651,-11.9763,0.9248,-1.2997,0.9432,40,82084.091,1587315,-0.8242,4.1762,-13.602,0.4073,-0.0828,-0.3973,47
2.337,45,2.0193,3.9741,-18.1455,0.8316,-1.6023,-0.215,75,2.308,44,-1.7618,7.8423,-3.5761,0.146,0.333,0.6243,86,2.114,40,10.2434,-1.1135,-14.0508,0.1247,-0.0147,0.4437,71,2.534,48,12.666,2.8852,-12.1073,1.3497,-1.6079,1.1479,40,82084.143,1587316,-0.1793,2.9866,-11.9739,0.9711,-0.5436,-0.9661,47
2.388,46,-0.5722,4.9406,-16.4892,0.5265,-1.8387,-0.4851,75,2.36,45,-0.9456,9.9717,-2.3944,0.5032,0.3383,0.6343,86,2.166,41,9.7427,-1.6412,-13.635,-0.0966,-0.1249,0.454,71,2.585,49,11.2995,3.0471,-11.0242,1.3139,-1.6355,0.8228,40,82084.194,1587317,3.6418,1.0951,-6.1757,0.1248,0.0135,-0.468,47
2.44,47,-2.2602,3.3748,-14.6854,0.1226,-2.0113,-0.857,75,2.412,46,-0.0319,9.581,-2.955,-0.0192,0.256,0.2351,86,2.217,42,9.668,-2.0985,-13.4287,-0.2157,-0.2543,0.3454,71,2.637,50,10.5462,3.4414,-9.1229,0.2819,-0.955,-0.0535,40,82084.246,1587318,3.5938,0.4868,-5.1449,-0.5868,0.6985,0.3179,47
2.492,48,-3.2391,1.6469,-13.1266,0.1863,-1.7804,-1.0439,75,2.464,47,0.5328,8.9837,-3.5145,0.0198,0.1289,0.035,86,2.269,43,8.9916,-2.3058,-13.4227,-0.223,-0.2853,0.2349,71,2.689,51,10.8469,1.1842,-8.5548,0.3059,-0.012,-0.7105,40,82084.298,1587319,3.5954,0.0267,-4.4712,-1.1061,1.1985,0.9077,47
2.544,49,-2.1504,0.9839,-12.2531,0.2201,-1.2506,-0.8216,75,2.516,48,0.872,8.7884,-3.5121,-0.0293,0.0723,-0.1054,86,2.321,44,9.1885,-2.1759,-13.3447,-0.2213,-0.3047,0.1462,71,2.741,52,11.5637,1.2446,-8.8719,0.6655,0.6762,-1.1899,40,82084.35,1587320,3.5993,-0.3365,-3.9895,-1.4852,1.5634,1.3382,47
2.595,50,0.5379,1.0895,-10.1382,0.1158,-0.2491,-0.4236,75,2.567,49,0.5729,7.9136,-3.7701,-0.26,0.2003,-0.2525,86,2.373,45,9.1063,-2.2635,-13.1295,-0.2109,-0.502,0.0875,71,2.792,53,12.5896,0.6758,-10.1948,-0.19,1.1785,-1.5399,40,82084.401,1587321,3.5725,-0.622,-3.6631,-1.7618,1.8297,1.6524,47
2.647,51,5.4502,-0.8661,-15.3958,0.103,0.0812,-0.368,75,2.619,50,0.0625,6.8684,-4.3817,-0.3704,0.3232,-0.312,86,2.424,46,9.7528,-2.0088,-13.2728,-0.1598,-0.9347,0.0753,71,2.844,54,11.5186,-1.0919,-13.7222,-0.5066,1.5451,-1.7195,40,82084.453,1587322,3.5404,-0.8387,-3.4517,-1.9637,2.024,1.8817,47
2.699,52,4.813,-3.5814,-19.2331,-0.55,0.7417,-0.2387,75,2.671,51,-0.271,6.5548,-4.9647,-0.4374,0.3334,-0.1614,86,2.476,47,11.7341,-2.6214,-13.2128,-0.1784,-1.3556,0.1574,71,2.896,55,9.2415,-5.2804,-17.9962,-0.3602,1.2926,-1.457,40,82084.505,1587323,3.5045,-1.0033,-3.3096,-2.1111,2.1659,2.049,47
2.751,53,8.5704,-0.6019,-22.0337,0.2007,1.2237,-0.6018,75,2.723,52,-0.1417,6.943,-5.0784,-0.2138,0.2953,0.1589,86,2.528,48,13.7829,-2.659,-12.8139,-0.385,-1.6628,0.4087,71,2.948,56,11.8621,-8.1996,-21.1156,-0.8286,0.533,-0.3858,40,82084.557,1587324,3.4648,-1.1184,-3.2115,-2.2186,2.2694,2.1712,47
2.803,54,6.9689,-2.308,-24.0776,-0.238,0.2238,-0.3441,75,2.775,53,-0.1935,7.2683,-4.8496,-0.1146,0.2768,0.4354,86,2.58,49,12.0818,-3.2134,-13.6796,-0.6534,-1.6965,0.4106,71,3.0,57,13.7748,-7.3817,-16.0732,-0.872,-0.2778,0.1272,40,82084.609,1587325,1.5042,-1.5922,-4.4707,-2.2956,1.9959,2.0119,47
2.855,55,6.6671,-0.8189,-22.6078,-0.6985,-0.506,-0.16,75,2.826,54,-0.536,7.2761,-4.5411,-0.0999,0.2688,0.6508,86,2.632,50,10.1171,-2.625,-12.7773,-0.1914,-1.3035,0.1216,71,3.052,58,13.2817,-3.9268,-15.169,-0.3639,-0.8695,0.3159,40,82084.66,1587326,-0.8472,-2.5159,-0.7648,-2.1346,1.3988,1.722,47
2.906,56,3.3344,-0.5507,-20.8718,-0.6512,-0.7319,-0.2327,75,2.878,55,-0.9392,7.3708,-4.1962,-0.2698,0.1953,0.8677,86,2.683,51,8.8028,-1.4322,-12.6522,0.044,-0.6124,-0.2736,71,3.103,59,13.0993,-3.334,-14.1709,-0.5534,-1.0334,0.4517,40,82084.712,1587327,-0.5304,-1.7717,-3.2359,-1.7538,0.759,1.3994,47
2.958,57,0.186,-0.85,-19.6477,-0.2727,-1.2035,-0.5632,75,2.93,56,-1.2671,7.6538,-4.0524,0.0634,0.2045,1.0049,86,2.735,52,8.2883,-1.1012,-12.6109,-0.1668,0.2308,-0.5655,71,3.155,60,11.4024,-1.3706,-13.6484,-0.3864,-0.8552,0.488,40,82084.764,1587328,-0.319,-1.1469,-5.0724,-1.4765,0.2928,1.1619,47
3.01,58,-1.3818,-1.4221,-18.4629,0.179,-1.5477,-0.8759,75,2.982,57,-1.1515,8.0347,-3.3736,0.3333,0.2324,0.9355,86,2.787,53,8.8293,-1.5189,-13.1892,0.1651,0.8468,-0.7775,71,3.207,61,9.9635,-0.8559,-13.6077,-0.2252,-0.676,0.4514,40,82084.815,1587329,-0.1848,-0.4349,-6.6155,-1.2768,-0.0488,0.9857,47
3.062,59,-2.0016,-0.9801,-16.5281,0.5538,-1.7989,-0.9586,75,3.034,58,-0.1464,8.4335,-2.7943,0.2119,0.3878,0.7265,86,2.839,54,9.5633,-1.6559,-13.4107,0.6343,1.2964,-0.9617,71,3.259,62,9.1872,-0.3596,-13.1878,-0.2473,-0.4703,0.4155,40,82084.867,1587330,-0.3649,-1.0499,-7.6925,-1.5937,0.6531,1.3951,47
3.114,60,-2.1348,-0.2479,-15.0445,0.4079,-1.8987,-0.8341,75,3.086,59,-0.2663,7.5186,-2.9938,0.2749,0.3147,0.5175,86,2.891,55,10.3443,-2.3247,-13.7898,0.957,1.6245,-1.1213,71,3.311,63,9.4535,-0.2549,-12.5249,-0.1554,-0.4331,0.3817,40,82084.919,1587331,0.1009,-1.1172,-7.6729,-1.8023,1.1653,1.6939,47
3.165,61,-1.2119,-1.3974,-13.1903,0.0614,-1.3322,-0.5124,75,3.137,60,-0.1939,7.2202,-3.0129,0.114,0.062,0.2825,86,2.942,56,10.9788,-3.7668,-15.1765,1.375,1.864,-1.3814,71,3.362,64,9.2032,0.2082,-12.5243,0.0813,-0.4848,0.3851,40,82084.971,1587332,0.4473,-1.1658,-7.6509,-1.9339,1.5391,1.912,47
3.217,62,-2.2867,-0.3853,-12.8602,-0.0592,-0.2899,0.0293,75,3.189,61,0.1072,7.3273,-2.8937,-0.0885,0.0912,0.1289,86,2.994,57,10.2002,-4.4079,-17.0921,1.5938,2.0388,-1.4378,71,3.414,65,8.9172,-0.0131,-12.6097,0.1522,-0.531,0.4281,40,82085.022,1587333,0.7016,-1.2302,-7.6416,-2.0103,1.812,2.0711,47
3.269,63,-1.3347,-5.4789,-17.3825,0.3006,0.4709,0.2733,75,3.241,62,0.1169,7.1651,-3.0123,-0.0006,0.3271,0.0851,86,3.046,58,7.4834,-6.6059,-20.4753,1.4284,0.919,-0.7657,71,3.466,66,8.5705,0.0321,-12.7827,0.2772,-0.5193,0.4518,40,82085.074,1587334,0.8819,-1.2851,-7.6316,-2.0402,2.0111,2.1873,47
3.321,64,-0.7935,0.0194,-15.4776,-0.4333,0.4327,-0.1705,75,3.293,63,-0.4113,6.7295,-3.1948,0.0134,0.4267,0.0734,86,3.098,59,8.42,-3.759,-21.2155,1.1589,-0.0027,-0.1906,71,3.518,67,8.7541,0.2848,-12.7471,0.2158,-0.6001,0.6016,40,82085.126,1587335,0.9887,-1.3227,-7.5606,-2.0408,2.1565,2.2721,47
3.373,65,1.6294,0.5371,-16.115,-0.8534,0.9982,-0.7554,75,3.344,64,-0.9579,6.4461,-3.2661,-0.0616,0.4213,0.0564,86,3.15,60,9.7261,-2.3468,-19.2417,1.0385,-0.5876,0.1874,71,3.569,68,9.9892,0.6107,-12.9727,0.4034,-0.9066,0.8123,40,82085.178,1587336,1.0719,-1.3749,-7.5473,-2.0151,2.2626,2.3339,47
3.424,66,6.093,-1.1794,-19.7579,-0.4845,1.411,-1.1571,75,3.396,65,-1.1876,6.3922,-3.2322,-0.1324,0.4199,0.053,86,3.202,61,10.0698,-2.3427,-17.3266,0.8393,-0.7009,0.4304,71,3.621,69,11.6525,0.6941,-12.9833,0.6828,-1.3285,0.9878,40,82085.229,1587337,2.3269,4.3276,-13.5339,-1.8591,2.34,2.3791,47
3.476,67,4.5089,0.8535,-21.3105,-0.4694,0.5823,-0.1866,75,3.448,66,-1.1105,6.4107,-3.222,-0.184,0.451,0.0987,86,3.253,62,9.6478,-2.3497,-16.2584,0.4154,-0.6032,0.5427,71,3.673,70,11.7623,1.2538,-12.7774,1.1654,-1.5492,1.0287,40,82085.281,1587338,0.1994,5.7634,-15.5254,-1.6116,2.0237,1.8753,47
3.528,68,1.6266,-1.5973,-23.2186,-0.5262,-0.2443,0.068,75,3.5,67,-0.6904,6.9427,-3.0469,-0.0918,0.4825,0.2831,86,3.305,63,9.7151,-2.4494,-14.9913,0.3369,-0.5679,0.489,71,3.725,71,9.44,0.9064,-13.0167,1.2727,-1.3705,0.6959,40,82085.333,1587339,-1.178,6.0847,-15.933,-1.8034,0.8834,0.7167,47
3.58,69,0.3908,1.3443,-22.7614,0.2903,-0.8477,-0.0047,75,3.552,68,-0.1122,7.803,-3.2749,0.2937,0.5677,0.5042,86,3.357,64,9.6617,-2.1816,-14.1382,0.2622,-0.5552,0.468,71,3.777,72,8.0274,0.8824,-11.7919,0.8844,-0.9334,0.0986,40,82085.385,1587340,-0.9594,3.9788,-13.7444,-1.8127,-0.0183,-0.153,47
3.632,70,0.2575,2.9803,-21.2045,0.5618,-1.288,-0.1962,75,3.604,69,0.4081,8.6058,-2.9005,0.3213,0.4484,0.5562,86,3.409,65,9.5005,-2.035,-13.7746,0.1022,-0.5225,0.4862,71,3.828,73,7.8694,0.6666,-10.8214,0.6508,-0.342,-0.5992,40,82085.437,1587341,-0.7247,2.4054,-12.1461,-1.7928,-0.6765,-0.7877,47
3.683,71,0.0412,3.587,-18.6239,0.2123,-1.6094,-0.4361,75,3.655,70,0.972,8.7531,-2.3191,0.0678,0.4819,0.465,86,3.46,66,9.2732,-2.1693,-13.3266,0.0142,-0.5837,0.503,71,3.88,74,8.7812,0.2791,-10.3645,0.6073,0.4345,-1.1087,40,82085.488,1587342,-0.7543,6.1845,-9.0963,-1.251,-0.4605,0.1008,47
3.735,72,-1.4213,2.6287,-15.7003,-0.2693,-1.7882,-0.6446,75,3.707,71,0.6677,7.7114,-2.7288,-0.146,0.5308,0.4185,86,3.512,67,9.0136,-2.324,-13.1886,-0.0537,-0.6839,0.5243,71,3.932,75,9.7656,0.2909,-10.6121,0.675,1.0021,-1.4806,40,82085.54,1587343,-0.0812,4.5373,-9.3185,-1.32,-0.1946,0.7492,47
3.787,73,-2.2113,1.2187,-14.5159,-0.4535,-1.2947,-0.6365,75,3.759,72,0.3341,7.2892,-3.2222,-0.1142,0.47,0.4358,86,3.564,68,8.9692,-2.4122,-13.331,-0.0998,-0.8069,0.5411,71,3.984,76,11.0895,-0.255,-11.074,0.6387,1.4163,-1.752,40,82085.592,1587344,0.3256,3.3392,-9.3802,-1.3658,0.0205,1.2225,47
3.839,74,-2.3526,1.5005,-14.1661,-0.2927,-0.7219,-0.3271,75,3.811,73,0.5455,7.6569,-3.2102,-0.0421,0.516,0.4251,86,3.616,69,9.1886,-2.5696,-13.5347,-0.203,-0.9957,0.592,71,4.035,77,12.1835,-1.8315,-11.6645,0.9596,1.7186,-1.9501,40,82085.644,1587345,0.6097,2.4398,-9.4311,-1.393,0.2021,1.5679,47
3.89,75,-1.679,6.485,-7.7479,-0.347,-0.9616,0.1538,75,3.863,74,0.7545,7.5835,-3.2985,-0.0632,0.7465,0.3851,86,3.668,70,10.2837,-2.4572,-13.7341,-0.4031,-1.3462,0.7346,71,4.087,78,9.9851,-1.4536,-13.8154,0.9978,1.9358,-1.8473,40,82085.695,1587346,0.807,1.7652,-9.4632,-1.4069,0.3543,1.82,47
3.942,76,-1.0621,6.3402,-6.9828,-0.6424,-0.0453,0.3906,75,3.914,75,0.7622,7.0181,-3.6863,-0.1396,0.9862,0.4534,86,3.719,71,12.5812,-2.5582,-13.7635,-0.4459,-1.6559,0.8453,71,4.139,79,9.0347,-3.3791,-15.2235,0.7252,1.0161,-0.9465,40,82085.747,1587347,0.9362,1.2703,-9.5039,-1.4096,0.4889,2.004,47
3.994,77,1.1438,6.342,-13.0929,-0.1267,0.6493,-0.0689,75,3.966,76,0.8451,6.7243,-3.6956,-0.1546,1.2076,0.5887,86,3.771,72,11.0541,-3.2383,-14.6256,-0.7255,-1.882,0.8257,71,4.191,80,9.5004,-7.763,-16.1869,-0.1478,0.7695,-0.0105,40,82085.799,1587348,1.0154,0.8936,-9.5399,-1.4044,0.6064,2.1383,47
4.046,78,5.7471,3.5744,-17.5523,0.5819,1.1563,-0.7254,75,4.018,77,0.8568,6.5098,-3.7343,-0.1271,1.4423,0.8605,86,3.823,73,8.5074,-4.0452,-14.0083,-0.4062,-1.521,0.3325,71,4.242,81,8.3268,-4.9291,-15.8354,-0.0007,0.2516,0.3549,40,82085.85,1587349,4.4039,0.5477,-7.6906,-1.3742,0.7174,2.2363,47
4.098,79,2.8892,0.3204,-20.8069,0.0261,0.2964,-0.2482,75,4.07,78,0.4882,6.5339,-3.5537,0.0662,1.59,1.1393,86,3.875,74,7.9126,-3.3366,-12.916,-0.2458,-0.896,-0.2105,71,4.294,82,8.465,-3.0918,-14.727,-0.1728,0.0944,0.4973,40,82085.902,1587350,4.7994,3.8953,-5.581,-0.7183,0.1161,2.1115,47
4.15,80,2.5517,-0.0528,-21.4077,-0.3702,-0.453,0.0099,75,4.121,79,0.0577,6.5976,-3.2822,-0.0608,1.5251,1.3892,86,3.927,75,7.7237,-2.5535,-12.3299,-0.3896,0.0129,-0.6878,71,4.346,83,8.3897,-1.4798,-13.7342,-0.0577,-0.001,0.5256,40,82085.954,1587351,8.4499,6.7524,-4.1888,0.1471,-0.223,1.5623,47
4.201,81,1.7238,0.4962,-20.1914,-0.3882,-0.9999,-0.392,75,4.173,80,-0.4212,6.7904,-3.1862,-0.1338,1.429,1.6436,86,3.978,76,8.3742,-2.5664,-12.4272,-0.1675,0.6877,-1.119,71,4.398,84,8.4721,-0.4417,-13.0503,-0.2867,-0.0599,0.5934,40,82086.006,1587352,6.4078,4.9132,-5.1525,0.7812,-0.5991,0.4642,47
4.253,82,-0.5299,0.6226,-18.3978,-0.4259,-1.3014,-0.949,75,4.225,81,-1.1634,6.9965,-3.186,-0.0967,1.4318,1.7467,86,4.03,77,9.0722,-3.188,-12.9753,0.5393,1.1803,-1.4659,71,4.45,85,8.5933,-0.1156,-12.6809,-0.0246,-0.1067,0.5475,40,82086.058,1587353,4.8658,3.5139,-5.947,1.2441,-0.8632,-0.3373,47
4.305,83,-3.9064,1.2589,-18.4016,-0.087,-1.442,-1.3678,75,4.277,82,-1.836,7.228,-3.0262,-0.1055,1.4046,1.7481,86,4.082,78,9.3443,-5.0791,-14.5927,1.0701,1.5398,-1.7439,71,4.501,86,8.4604,0.4428,-12.522,0.104,-0.0804,0.4874,40,82086.109,1587354,3.614,2.4409,-6.5074,1.5324,-0.7256,-0.8917,47
4.357,84,-4.4433,3.7837,-17.492,-0.0967,-1.7218,-1.6734,75,4.329,83,-1.366,8.0675,-2.148,-0.1032,1.5096,1.5816,86,4.134,79,8.4203,-7.7485,-17.3726,1.4576,1.7068,-1.698,71,4.554,87,8.2878,0.3295,-12.4747,0.1785,-0.0157,0.4434,40,82086.161,1587355,2.5207,2.0414,-5.4565,0.4406,0.1591,-1.3173,47
4.409,85,-3.3802,5.0095,-16.9586,-0.7447,-1.926,-1.8964,75,4.38,84,-1.1416,7.3647,-2.7856,-0.1305,1.5134,1.4398,86,4.186,80,11.4113,-0.3033,-13.6141,0.6911,0.5723,-0.5615,71,4.605,88,8.5074,0.52,-11.9511,0.2433,-0.1209,0.4733,40,82086.213,1587356,1.492,1.8664,-5.2331,-0.3563,0.8048,-1.6375,47
4.46,86,-1.1053,4.3508,-16.4309,-0.9444,-1.3581,-2.0592,75,4.432,85,-0.9448,7.4161,-3.0028,0.0595,1.2543,1.3753,86,4.237,81,13.5942,-5.4584,-9.6608,0.2432,-0.2557,0.2555,71,4.657,89,8.4024,0.8509,-11.5452,0.6768,-0.4281,0.6598,40,82086.265,1587357,0.7548,1.7272,-5.0956,-0.9379,1.276,-1.8712,47
4.512,87,-1.363,2.5884,-15.6697,-1.3649,-0.6343,-1.5919,75,4.484,86,-0.9651,7.5302,-2.6496,-0.0388,1.1244,1.2541,86,4.289,82,12.9265,-3.7945,-10.3638,0.4796,-0.6279,0.2303,71,4.709,90,9.773,2.0866,-12.3649,1.1662,-0.9755,0.6488,40,82086.316,1587358,0.2017,1.6262,-5.0013,-1.3624,1.62,-2.0417,47
4.564,88,-6.5271,-2.5527,-19.4329,-1.3159,-0.5789,-0.6183,75,4.536,87,-1.1575,6.8123,-2.8549,-0.2294,1.1196,1.1347,86,4.341,83,12.0364,-3.3543,-11.229,0.4883,-0.6337,0.2386,71,4.761,91,9.2638,3.0224,-10.7829,1.5258,-1.1643,-0.0066,40,82086.368,1587359,-0.1923,1.555,-4.9405,-1.6722,1.871,-2.1662,47
4.616,89,-4.5394,-2.8609,-11.6269,-0.5022,0.1446,-0.4618,75,4.588,88,-1.0233,6.2577,-3.4315,-0.226,1.1184,1.1204,86,4.393,84,11.4927,-2.3306,-11.8693,0.4158,-0.6452,0.3183,71,4.813,92,9.5647,4.1315,-8.662,1.7883,-0.6543,-0.6763,40,82086.42,1587360,-0.475,1.5072,-4.9086,-1.8983,2.0536,-2.257,47
4.667,90,0.8163,1.149,-15.5888,0.3078,0.788,-1.0121,75,4.639,89,-0.2318,6.682,-3.3798,-0.1955,0.9827,1.1794,86,4.445,85,10.8306,-2.1791,-12.5303,0.3561,-0.7581,0.3745,71,4.864,93,10.3478,3.6286,-7.9916,1.8249,0.0307,-1.165,40,82086.472,1587361,-0.6912,1.4802,-4.8908,-2.0634,2.1829,-2.3233,47
4.719,91,1.014,0.5366,-19.3739,0.899,1.2575,-1.277,75,4.691,90,0.5781,7.0433,-3.055,-0.1421,0.9105,1.233,86,4.496,86,10.6884,-2.4462,-12.8105,0.2556,-0.9668,0.3764,71,4.916,94,10.5882,0.8009,-9.5034,2.0065,0.7073,-1.5216,40,82086.523,1587362,-0.8646,1.4527,-4.8679,-2.1838,2.2647,-2.3717,47
4.771,92,4.1916,-0.1112,-22.1364,-0.0212,0.2485,-0.4921,75,4.743,91,0.5973,6.915,-2.7528,-0.1981,0.8278,1.3101,86,4.548,87,13.0666,-2.0798,-13.3053,0.0255,-1.379,0.4991,71,4.968,95,9.5379,-3.1063,-11.8967,2.1391,0.6972,-1.7788,40,82086.575,1587363,-1.142,-2.4474,-7.2309,-1.784,1.7224,-2.2857,47
4.823,93,4.582,-1.5496,-21.4612,-0.6317,-0.2422,-0.9997,75,4.795,92,0.0371,6.7304,-2.5964,-0.5229,0.9167,1.3761,86,4.6,88,14.1055,-1.3141,-12.1738,0.1398,-1.6799,0.2428,71,5.02,96,9.7322,3.025,-13.1171,1.7154,0.2909,-1.1198,40,82086.627,1587364,-1.4718,-1.6665,-6.3244,-0.7168,1.0697,-1.8462,47
4.875,94,-0.1516,-3.054,-23.1004,0.2134,0.5057,-1.1163,75,4.847,93,-0.8997,6.6699,-3.1577,0.1897,1.1047,1.5231,86,4.652,89,10.2341,-3.1,-12.3364,0.7781,-1.6221,-0.4941,71,5.071,97,5.2627,-1.147,-12.4148,1.1227,0.6076,-0.4267,40,82086.679,1587365,-1.0861,-1.0737,-6.263,0.1507,0.6221,-1.1849,47
4.926,95,-3.1385,0.8848,-22.2964,-0.0477,-0.3003,-1.1831,75,4.898,94,-1.2922,7.4661,-3.0382,0.8101,0.9805,1.5439,86,4.704,90,9.823,-0.4733,-9.2705,1.2444,-1.0481,-1.0346,71,5.123,98,5.1679,-1.3527,-12.7982,0.8882,0.5237,-0.0691,40,82086.73,1587366,-0.7671,-0.5933,-6.3759,0.7839,0.2861,-0.7054,47
4.978,96,-2.8972,1.8689,-19.6054,0.287,-0.8885,-1.5056,75,4.95,95,-1.2713,8.588,-1.7605,0.9935,0.8457,1.2922,86,4.756,91,10.5712,-1.8913,-8.7854,0.921,-0.1054,-1.4291,71,5.175,99,5.8807,-1.1268,-13.2621,0.3048,0.5097,0.1781,40,82086.782,1587367,-5.7914,-5.6909,-12.679,1.2095,0.1382,-0.3288,47
5.03,97,-0.8678,6.2177,-19.153,0.8838,-1.3178,-1.7561,75,5.002,96,-0.9198,8.3351,-1.6425,0.6301,0.7708,0.8465,86,4.807,92,10.8662,-4.1213,-9.6644,0.8171,0.6014,-1.7171,71,5.227,100,6.7157,-0.33,-12.9661,0.255,0.3781,0.3027,40,82086.834,1587368,-4.3535,-4.0313,-10.4191,0.2049,0.6961,0.112,47
5.082,98,3.4501,5.559,-19.4625,-0.0323,-1.2773,-1.8,75,5.054,97,-0.9444,7.3128,-2.0913,0.2198,0.4416,0.4405,86,4.859,93,11.0987,-4.6214,-10.0445,1.2729,1.1173,-1.9272,71,5.278,101,7.3553,-0.9392,-12.1687,0.1748,0.2295,0.3468,40,82086.885,1587369,-2.9205,-2.9265,-9.591,-0.5283,1.1034,0.4314,47
5.134,99,3.286,3.7872,-18.4802,-0.2537,-0.8123,-1.8825,75,5.106,98,-0.5244,6.8535,-1.983,-0.0618,0.2904,0.2191,86,4.911,94,11.7948,-4.7294,-10.1913,1.6055,1.4938,-2.0806,71,5.33,102,7.6864,-0.5587,-13.0876,0.5279,-0.1815,0.4939,40,82086.937,1587370,-1.8609,-2.1229,-8.9689,-1.0635,1.4039,0.6638,47
5.185,100,1.6129,1.3425,-14.9415,-0.8626,0.0516,-1.7082,75,5.158,99,-0.4523,6.234,-2.0373,-0.0191,0.4915,0.1756,86,4.963,95,8.7194,-7.0833,-13.3346,1.5609,1.7683,-1.5958,71,5.382,103,8.1557,-0.0211,-12.9626,0.6472,-0.4243,0.6059,40,82086.989,1587371,-1.0701,-1.5187,-8.5032,-1.454,1.6277,0.8328,47
5.237,101,2.0171,-3.2772,-15.6948,-0.417,0.7201,-0.9476,75,5.209,100,-0.6517,5.7322,-2.3182,0.1137,0.7356,0.2105,86,5.015,96,11.6295,-1.857,-7.1481,1.4778,1.1031,-1.5008,71,5.434,104,8.2728,0.2043,-13.0818,0.7809,-0.6768,0.7535,40,82087.041,1587372,-0.4935,-1.077,-8.1615,-1.7391,1.7945,0.9558,47
5.289,102,1.4889,-2.7844,-18.7315,-0.9817,1.208,-1.3633,75,5.261,101,-0.8931,5.4817,-2.6348,-0.0171,0.7964,0.2768,86,5.066,97,13.7535,-2.8818,-8.3546,1.61,0.1317,-0.4266,71,5.486,105,10.2048,0.4883,-13.9599,0.9922,-1.0674,0.8249,40,82087.092,1587373,-0.0844,-0.7554,-7.9016,-1.9471,1.9207,1.0447,47
5.341,103,2.616,-0.5521,-21.6675,-0.1025,1.564,-1.4991,75,5.313,102,-1.3766,5.1989,-2.7898,-0.2003,0.6903,0.4592,86,5.118,98,10.2367,-3.9478,-9.7651,1.4674,0.023,-0.2309,71,5.537,106,8.8894,0.612,-14.6703,1.2885,-1.0922,0.7137,40,82087.144,1587374,0.2177,-0.5254,-7.6952,-2.099,2.0173,1.1093,47
5.393,104,4.757,-1.6836,-23.8104,0.5907,0.4722,-1.1607,75,5.365,103,-1.8072,5.0602,-2.7522,-0.3487,0.5573,0.6803,86,5.17,99,10.5557,-3.6453,-10.4154,1.1601,-0.2146,0.0013,71,5.589,107,7.946,-0.2045,-14.3524,1.6151,-0.9987,0.4212,40,82087.196,1587375,0.39,3.2456,-4.0996,-2.1475,1.9748,0.6164,47
5.444,105,4.4713,-0.1329,-22.2187,-0.1714,-0.3247,-0.5441,75,5.417,104,-1.8018,5.046,-2.745,-0.5692,0.5397,0.9398,86,5.222,100,10.2523,-2.8452,-11.1545,0.793,-0.19,0.1823,71,5.641,108,8.8307,-1.519,-13.7744,1.704,-0.8336,0.2399,40,82087.248,1587376,-4.2922,0.6626,-9.3474,-1.6473,1.4865,-0.2005,47
5.496,106,2.6272,1.5906,-19.6744,0.2678,-0.7353,-0.6938,75,5.468,105,-1.5739,5.36,-3.0773,-0.4535,0.6374,1.2573,86,5.274,101,9.6852,-2.5821,-11.7051,0.5044,-0.1107,0.3054,71,5.693,109,9.4236,-2.0048,-13.4813,1.7874,-0.7125,0.1874,40,82087.3,1587377,-2.8262,0.2093,-9.2849,-0.6614,0.6007,-0.8221,47
5.548,107,-1.0506,2.0009,-18.0414,-0.0009,-0.8024,-1.1814,75,5.52,106,-1.9483,6.0917,-2.7912,-0.1617,0.6766,1.5761,86,5.325,102,9.4874,-2.4605,-11.9143,0.3476,0.0143,0.2649,71,5.744,110,8.6352,-1.8729,-13.7408,1.5384,-0.5375,0.1417,40,82087.351,1587378,-1.7003,0.1211,-9.1385,0.1398,-0.0464,-1.2761,47
5.6,108,-3.9091,-0.1286,-17.3823,0.4616,-1.2027,-1.4118,75,5.572,107,-1.7494,6.8472,-2.1346,-0.2051,0.5158,1.6463,86,5.377,103,9.2088,-2.3877,-11.9517,0.3531,0.0994,0.1397,71,5.796,111,8.3725,0.0146,-13.1112,1.3166,-0.5831,-0.1645,40,82087.403,1587379,4.1174,5.4195,-4.1063,-0.2413,-0.4607,-0.5284,47
5.652,109,-6.4101,-1.1437,-16.8026,0.6928,-1.5471,-1.389,75,5.624,108,-0.8006,7.9202,-1.341,0.0866,0.4194,1.4672,86,5.429,104,9.0537,-2.145,-12.1693,0.3599,0.0861,0.1054,71,5.848,112,8.4743,0.6207,-11.8366,0.9787,-0.3636,-0.717,40,82087.455,1587380,3.905,4.4127,-5.8846,-0.854,-0.6539,0.2901,47
5.704,110,-7.6889,-1.0889,-15.4164,0.4241,-1.7985,-1.1394,75,5.675,109,-0.3046,8.1842,-0.9751,0.1111,0.3871,0.9524,86,5.481,105,9.1078,-1.6721,-12.2057,0.4842,-0.0175,0.1166,71,5.9,113,8.6544,1.0573,-10.775,1.0911,0.0423,-1.1947,40,82087.507,1587381,3.7134,3.6688,-6.5726,-1.3011,-0.7521,0.8874,47
5.755,111,-6.8053,-0.7337,-12.512,0.1772,-1.729,-0.4345,75,5.727,110,0.468,7.8627,-1.2038,0.1953,0.3703,0.4549,86,5.532,106,8.9548,-1.5267,-12.1717,0.214,-0.1034,0.1915,71,5.952,114,9.2613,1.6752,-10.1081,0.9467,0.4419,-1.5433,40,82087.558,1587382,3.5589,3.0788,-7.1003,-1.6275,-0.7733,1.3234,47
5.807,112,-1.2465,1.4599,-11.4076,0.6093,-1.2678,0.3595,75,5.779,111,1.2249,7.2676,-1.0626,0.2769,0.3547,0.1042,86,5.584,107,9.2636,-1.4389,-12.2062,0.0341,-0.2238,0.2224,71,6.003,115,10.057,1.8493,-9.9708,0.5854,0.8972,-1.7978,40,82087.61,1587383,3.443,2.6174,-7.4893,-1.8657,-0.7466,1.6415,47
5.859,113,0.7962,2.2841,-16.3222,0.7812,-0.2429,0.4573,75,5.831,112,1.5644,6.2473,-1.3381,0.1137,0.5079,-0.0816,86,5.636,108,9.2962,-2.2378,-13.2731,-0.0159,-0.6739,0.3511,71,6.055,116,10.6661,1.7826,-10.4699,0.4668,1.3277,-1.9835,40,82087.662,1587384,3.3568,2.2254,-7.7724,-2.0395,-0.6772,1.8738,47
5.911,114,1.6423,0.5792,-19.2657,0.3309,0.5051,0.3527,75,5.882,113,1.6449,5.2317,-1.9293,0.0421,0.7195,-0.0579,86,5.688,109,9.027,-3.0012,-13.7793,-0.1218,-1.0958,0.4867,71,6.107,117,10.2368,1.1679,-11.3792,0.3837,1.4932,-2.1191,40,82087.714,1587385,3.2778,1.9071,-7.9974,-2.1664,-0.5846,2.0432,47
5.962,115,4.0275,1.522,-20.0275,0.9159,1.0511,-0.3932,75,5.934,114,1.3167,4.7502,-2.5665,0.0572,0.8857,0.1555,86,5.74,110,11.854,-2.8174,-14.9553,-0.4114,-1.4732,0.7398,71,6.159,118,8.527,-2.2656,-12.4632,0.5804,1.3433,-2.0095,40,82087.765,1587386,3.2165,1.6431,-8.1655,-2.259,-0.4666,2.1669,47
6.014,116,1.9175,0.0137,-22.6134,1.2249,0.5376,0.0138,75,5.986,115,0.968,4.9921,-2.8481,-0.0631,0.9831,0.4058,86,5.791,111,13.9173,-2.8982,-13.8105,-0.5751,-1.7486,0.8677,71,6.211,119,7.0627,3.6386,-15.6924,1.0307,0.3582,-1.3862,40,82087.817,1587387,7.7059,3.8481,-3.3962,-2.3256,-0.2515,2.2572,47
6.066,117,-1.2703,0.7786,-24.5008,0.8374,-0.277,-0.0364,75,6.038,116,0.093,5.3348,-2.8141,0.0801,0.9567,0.8534,86,5.843,112,12.5516,-3.8843,-11.67,-0.4059,-1.7928,0.3323,71,6.262,120,5.7595,-0.2397,-12.3588,0.2845,0.759,-0.3314,40,82087.869,1587388,7.7099,8.0491,0.0847,-1.0926,-0.194,2.2285,47
6.118,118,-1.4545,2.056,-23.558,0.37,-0.8715,-0.5918,75,6.089,117,-1.2739,5.9473,-2.3052,0.588,0.749,1.1824,86,5.895,113,12.8178,-1.0677,-6.7033,0.3781,-1.3117,-0.3645,71,6.314,121,4.9398,-0.5788,-14.1877,0.2427,0.2799,0.124,40,82087.921,1587389,5.6848,5.9021,-2.0706,-0.1235,-0.0073,1.2425,47
6.17,119,-1.2429,3.3099,-21.0175,-0.0612,-1.3054,-1.1071,75,6.141,118,-1.7648,7.0037,-1.8702,0.8677,0.5392,1.1352,86,5.947,114,12.0001,-2.1918,-7.1086,-0.0025,-0.279,-0.94,71,6.366,122,4.7591,0.6229,-14.0624,-0.3999,0.1625,0.4996,40,82087.972,1587390,4.2664,4.3922,-3.5102,0.5837,0.1299,0.5218,47
6.221,120,-0.3068,2.542,-19.1585,-0.722,-1.6211,-1.4831,75,6.193,119,-1.347,7.5833,-0.9502,0.6171,0.4365,0.8052,86,5.999,115,11.9752,-3.1128,-7.7117,-0.3495,0.4748,-1.3601,71,6.418,123,5.2992,0.509,-14.0547,-0.1558,0.0677,0.6675,40,82088.024,1587391,3.1441,3.2431,-4.5814,1.0999,0.2301,-0.0045,47
6.273,121,-0.0708,-0.4341,-18.0981,-0.3549,-1.6108,-1.7574,75,6.245,120,-0.6065,6.8474,-0.964,0.0321,0.5826,0.47,86,6.05,116,12.9817,-6.242,-11.4612,0.4214,1.0249,-1.5639,71,6.469,124,6.3009,0.0499,-13.7866,-0.149,-0.0148,0.6045,40,82088.076,1587392,1.2831,2.7051,-6.5165,0.1249,0.8304,-0.332,47
6.325,122,0.7499,-1.715,-17.7305,0.1596,-1.6507,-1.2717,75,6.297,121,-1.0186,5.5212,-2.0755,-0.0961,0.5398,0.3952,86,6.102,117,12.268,-7.9942,-15.6363,0.9841,1.4263,-1.8154,71,6.521,125,6.2907,0.5591,-13.8422,0.3969,-0.0935,0.4231,40,82088.128,1587393,0.899,2.1732,-6.169,-0.5867,1.2947,-0.5772,47
6.377,123,0.9758,-1.2698,-17.1292,0.0988,-1.4237,-0.3632,75,6.348,122,-1.4629,5.3132,-2.6211,-0.1006,0.4104,0.4201,86,6.154,118,8.4754,-8.8326,-18.1614,1.3948,1.1614,-1.1349,71,6.573,126,6.8181,1.2384,-13.367,0.5468,-0.1751,0.4431,40,82088.179,1587394,0.6075,1.7967,-5.9165,-1.1061,1.6336,-0.7543,47
6.429,124,0.8215,1.1714,-15.0131,-0.5797,-0.3947,0.3134,75,6.4,123,-1.5447,6.3802,-2.4809,0.1138,0.4757,0.4365,86,6.206,119,11.3539,-3.108,-18.641,1.6945,1.188,-0.7125,71,6.625,127,9.4924,1.7268,-13.0714,0.9371,-0.7158,0.5564,40,82088.231,1587395,0.4081,1.5212,-5.7305,-1.4851,1.881,-0.8822,47
6.48,125,1.9108,4.1173,-9.8018,-0.5548,-0.0596,0.3116,75,6.453,124,-1.6849,7.0287,-2.3575,0.32,0.7151,0.416,86,6.258,120,13.5523,-1.9884,-16.2178,0.6583,0.1937,0.0336,71,6.677,128,12.0453,3.6104,-13.6924,1.3586,-1.1892,0.3375,40,82088.283,1587396,0.2626,1.3248,-5.5999,-1.7618,2.0615,-0.9743,47
6.532,126,0.248,2.6791,-11.9673,-0.9765,0.6389,-0.3032,75,6.504,125,-2.0482,6.7501,-2.3042,0.2846,0.862,0.3579,86,6.309,121,14.1996,-1.4263,-15.3934,0.599,-0.5278,0.2251,71,6.728,129,6.898,2.3523,-12.4709,1.6663,-0.9996,-0.2512,40,82088.335,1587397,0.1531,1.1882,-5.4957,-1.9637,2.1932,-1.0402,47
6.584,127,2.9145,-2.5227,-16.7307,-0.0449,1.1487,-0.7983,75,6.556,126,-2.0489,6.7091,-2.2895,0.1688,0.8786,0.3978,86,6.361,122,12.6703,-1.6387,-14.4434,0.2421,-0.3268,0.2149,71,6.78,130,6.6934,1.5236,-10.6628,1.2283,-0.5585,-0.8547,40,82088.386,1587398,0.0764,1.1024,-5.418,-2.1111,2.2894,-1.0877,47
6.635,128,7.1847,3.3685,-20.2073,-0.3794,0.169,-0.3809,75,6.608,127,-1.8045,7.1031,-2.1377,0.4035,0.886,0.4141,86,6.413,123,11.672,-1.1938,-13.6284,0.1811,-0.1695,0.1874,71,6.832,131,7.598,-0.109,-10.1169,0.8203,0.2706,-1.2952,40,82088.438,1587399,-0.9867,-1.4234,-6.5204,-1.0598,1.5929,-1.0936,47
6.687,129,6.8418,-0.9777,-21.813,-0.1163,-0.546,-0.0971,75,6.66,128,-1.1507,7.1277,-2.3794,0.1605,0.8518,0.2627,86,6.465,124,10.953,-1.1132,-13.0953,0.1443,-0.1974,0.1823,71,6.884,132,8.6915,-1.222,-10.4443,1.1123,0.8825,-1.6167,40,82088.49,1587400,-3.2142,-3.7653,-6.6997,-0.0996,0.8344,-0.4372,47
6.739,130,3.7761,0.044,-18.8799,-0.1883,-0.8796,0.0148,75,6.711,129,-0.8062,6.7927,-2.9908,-0.1136,0.9062,0.2713,86,6.517,125,10.3153,-1.4722,-12.5973,0.1179,-0.2607,0.1959,71,6.936,133,10.3201,-0.8118,-11.1805,0.3939,1.329,-1.8514,40,82088.542,1587401,-5.8277,-3.9332,-2.5606,0.6012,0.8505,0.3513,47
6.791,131,-2.7764,1.798,-20.9932,0.2407,-0.7705,-0.3066,75,6.763,130,-0.9706,6.627,-3.8475,-0.2126,0.9502,0.4633,86,6.568,126,9.8791,-1.3841,-13.1141,0.1986,-0.3906,0.1889,71,6.987,134,10.4788,-1.8862,-12.0683,0.1113,1.655,-1.6619,40,82088.593,1587402,-4.4852,-2.761,-3.8856,1.1126,0.867,0.9321,47
6.843,132,-2.8747,2.8777,-18.8601,0.5086,-1.2317,-0.8989,75,6.815,131,-1.4318,6.7219,-4.1329,-0.1992,0.8277,0.7397,86,6.62,127,9.9251,-1.5533,-12.9137,0.0661,-0.4655,0.1598,71,7.039,135,9.4021,-0.6306,-12.8039,0.2853,1.4065,-1.2805,40,82088.645,1587403,-3.4652,-1.8784,-4.9165,1.4859,0.8603,1.356,47
6.894,133,-4.7133,4.516,-18.182,0.5238,-1.4518,-1.2808,75,6.867,132,-1.619,7.2429,-3.4408,-0.2406,0.759,0.7726,86,6.672,128,9.8478,-1.6121,-12.6949,0.0534,-0.6415,0.1171,71,7.091,136,8.8168,0.3654,-12.0755,0.7599,0.9602,-0.894,40,82088.697,1587404,-5.9947,0.2856,-3.3172,0.9329,1.3165,0.5056,47
6.946,134,-4.3926,4.7088,-16.8103,-0.1759,-1.5223,-1.6099,75,6.919,133,-1.7033,7.7629,-3.0734,-0.4684,0.7535,0.8042,86,6.724,129,11.4613,-1.7522,-12.4725,-0.0005,-1.1237,0.1013,71,7.143,137,8.3517,0.5619,-13.3126,0.3864,0.4463,-0.4856,40,82088.749,1587405,-4.2362,0.5975,-3.466,0.4826,1.6495,-0.1224,47
6.998,135,-3.2996,4.9228,-16.4051,-0.137,-1.4521,-1.7007,75,6.97,134,-2.0907,7.9032,-3.5402,-0.3591,0.8723,0.8479,86,6.775,130,13.0994,-1.633,-12.2762,-0.098,-1.4935,0.2398,71,7.194,138,10.8974,0.4902,-8.0184,-0.3951,-0.2555,0.0666,40,82088.8,1587406,-2.9726,0.8006,-3.6159,0.1321,1.8926,-0.5757,47
7.05,136,-0.3688,3.0505,-16.8272,-0.4016,-1.2772,-1.742,75,7.022,135,-3.0067,7.8295,-3.6258,0.1635,0.7394,0.8067,86,6.827,131,13.865,-2.2321,-10.976,-0.199,-1.7634,0.214,71,7.246,139,11.7646,0.3696,-8.5683,-0.5928,-0.6791,0.3544,40,82088.852,1587407,-2.051,0.9513,-3.7238,-0.1414,2.0699,-0.9016,47
7.102,137,4.7884,4.3533,-12.4524,-0.2917,-0.6663,-1.0012,75,7.074,136,-3.2025,7.9648,-2.8016,0.4399,0.2113,0.5916,86,6.879,132,11.9476,-2.7772,-11.4397,0.4473,-1.6828,-0.0299,71,7.298,140,11.0118,0.5716,-9.7026,-0.4687,-0.8024,0.4017,40,82088.904,1587408,-1.3912,1.0504,-3.7853,-0.3625,2.1994,-1.134,47
7.153,138,4.2347,-1.652,-9.5959,-0.8902,-1.1533,-0.2407,75,7.126,137,-2.8325,7.7556,-2.1218,0.3501,0.0768,0.1342,86,6.931,133,12.5648,-1.6962,-7.9889,1.003,-0.806,-0.6384,71,7.35,141,10.9649,0.9125,-10.4615,0.1841,-0.886,0.2819,40,82088.955,1587409,-0.9133,1.121,-3.8186,-0.5417,2.2939,-1.2996,47
7.205,139,4.5514,1.0942,-15.0,-0.3744,-0.1593,-0.0031,75,7.178,138,-2.4399,6.8777,-2.3886,0.192,0.2307,-0.1294,86,6.983,134,13.1742,-1.4685,-7.8954,0.8498,0.0901,-1.1399,71,7.402,142,10.4954,1.3796,-11.2487,0.3802,-0.8863,0.2993,40,82089.008,1587410,-0.588,1.1683,-3.85,-0.6941,2.3628,-1.4152,47
7.257,140,3.2788,0.2927,-17.3893,0.3919,0.5662,-0.4762,75,7.229,139,-2.3905,6.225,-2.7666,0.3151,0.3523,-0.1447,86,7.034,135,13.5222,-3.8757,-11.3857,1.1229,0.7441,-1.4797,71,7.454,143,9.5022,1.0118,-11.9956,0.5474,-0.7817,0.2895,40,82089.059,1587411,-0.0102,-0.637,-8.331,-0.786,2.4132,-1.3637,47
7.309,141,2.7212,-3.1299,-20.688,-0.1085,0.1557,-0.3394,75,7.281,140,-2.5752,5.7507,-3.1671,0.1674,0.2597,-0.0349,86,7.086,136,11.4301,-5.9067,-16.3147,1.4961,1.2179,-1.754,71,7.505,144,7.6484,0.8234,-12.4974,0.7634,-0.6187,0.2236,40,82089.111,1587412,3.8111,0.7326,-12.0423,-0.6972,2.296,-1.0711,47
7.361,142,2.5367,-2.5884,-22.8879,-0.3514,-0.5557,0.148,75,7.333,141,-2.8644,5.7852,-3.2147,0.1214,0.0987,0.1485,86,7.138,137,7.0499,-9.4899,-17.0941,1.6492,0.7128,-1.1955,71,7.557,145,10.6994,2.1843,-11.75,0.475,-0.5738,0.3109,40,82089.163,1587413,5.5755,-0.3442,-16.8145,0.0575,1.7698,-0.7555,47
7.412,143,3.6094,0.4086,-20.8913,-0.2928,-1.0749,-0.0132,75,7.385,142,-3.151,6.1658,-3.2984,0.1645,-0.0471,0.2476,86,7.19,138,0.6845,-1.5742,-13.2101,1.4378,1.1986,-0.3427,71,7.609,146,12.9262,2.6254,-12.1406,0.8881,-1.0856,0.5131,40,82089.215,1587414,4.0187,-0.1414,-14.5504,0.6961,0.6286,-0.3998,47
7.464,144,0.9969,1.2074,-18.4703,-0.2936,-0.2114,-0.1678,75,7.437,143,-3.0606,7.7044,-3.2108,0.2141,-0.2782,0.3295,86,7.242,139,5.7653,1.5906,-14.7209,0.9619,0.2014,-0.1879,71,7.661,147,14.5514,4.0411,-13.4971,1.3229,-1.4591,0.517,40,82089.266,1587415,2.9083,0.0307,-12.7276,1.1636,-0.2043,-0.1402,47
7.516,145,-4.8047,0.5815,-18.8232,-0.4053,-0.6475,-0.6222,75,7.488,144,-2.1513,9.3349,-2.2907,0.194,-0.1979,0.1071,86,7.293,140,7.3833,0.5673,-14.4042,0.826,-0.3888,-0.1158,71,7.713,148,11.3741,2.8501,-12.2353,1.6402,-1.7177,0.2,40,82089.318,1587416,2.13,0.3476,-11.1802,1.4996,-0.8122,0.0479,47
7.568,146,-6.5169,-1.1638,-17.6694,-0.1177,-1.0611,-0.9974,75,7.54,145,-1.5659,8.4726,-3.1355,-0.3684,-0.1381,-0.1961,86,7.345,141,8.6655,0.1769,-13.4102,0.7351,-0.5257,-0.1005,71,7.764,149,10.6756,2.421,-9.6377,0.7142,-1.005,-0.3187,40,82089.37,1587417,1.711,0.6115,-8.6527,0.4178,0.0959,-0.5464,47
7.62,147,-6.4183,-0.7082,-16.9019,0.2015,-1.4438,-1.0016,75,7.592,146,-1.3731,7.9193,-4.1825,-0.2865,-0.2257,-0.2324,86,7.397,142,9.0232,0.2454,-12.8428,0.6487,-0.5034,-0.049,71,7.816,150,10.5437,-0.1777,-8.1255,0.2863,-0.0485,-0.7361,40,82089.422,1587418,1.1459,0.8494,-7.5643,-0.3729,0.7587,-1.0154,47
7.671,148,-3.3733,0.273,-15.0651,0.7048,-1.7205,-0.7024,75,7.643,147,-0.9923,8.428,-4.4579,-0.1488,-0.3737,-0.2232,86,7.449,143,9.1109,0.0851,-12.2781,0.2763,-0.4766,0.0254,71,7.868,151,10.6297,-0.5298,-7.9734,0.3958,0.6495,-1.1,40,82089.473,1587419,0.7169,1.0271,-6.7379,-0.95,1.2424,-1.3542,47
7.723,149,0.0891,1.9112,-14.2711,0.582,-0.5733,-0.3576,75,7.695,148,-1.1266,8.5425,-4.3261,-0.1443,-0.3339,-0.2915,86,7.501,144,9.1824,-0.2388,-12.3092,0.328,-0.6013,0.0195,71,7.92,152,11.9827,-0.3754,-9.3359,-0.327,1.159,-1.3875,40,82089.525,1587420,0.3995,1.1487,-6.1344,-1.3713,1.5954,-1.5979,47
7.775,150,-5.4673,-3.8029,-7.8245,-0.0107,0.2637,0.0518,75,7.747,149,-1.4914,8.0894,-4.5594,-0.0725,-0.1897,-0.3767,86,7.552,145,9.3997,-0.5305,-12.4021,0.1821,-0.9286,-0.0114,71,7.971,153,11.9568,-0.8477,-13.1263,-0.6833,1.5309,-1.4584,40,82089.577,1587421,0.1753,1.2215,-5.7171,-1.6787,1.8531,-1.7709,47
7.827,151,-0.9284,-1.4001,-13.7072,0.4325,0.8749,0.0251,75,7.799,150,-1.8909,7.6766,-4.8834,-0.006,-0.1926,-0.5207,86,7.604,146,11.2825,-1.3408,-12.2866,-0.0899,-1.3511,-0.0608,71,8.023,154,9.8905,-2.8899,-17.2036,-0.6254,1.7562,-1.5603,40,82089.629,1587422,0.0144,1.2727,-5.4109,-1.903,2.0411,-1.893,47
7.878,152,0.0867,-3.0283,-18.0006,0.99,1.3209,-0.1264,75,7.851,151,-1.8408,7.6685,-4.8255,0.0235,-0.2964,-0.654,86,7.656,147,12.1137,-0.8384,-12.2928,-0.4268,-1.6595,0.0979,71,8.075,155,12.3358,1.9084,-20.5289,-0.4982,0.615,-0.8947,40,82089.68,1587423,-0.1069,1.2984,-5.2009,-2.0668,2.1784,-1.977,47
7.93,153,3.9758,-2.0591,-21.1342,0.0452,0.2947,0.5714,75,7.903,152,-1.8905,7.3577,-4.7507,0.0062,-0.2969,-0.719,86,7.708,148,12.612,-1.1566,-12.5336,-0.6227,-1.8846,0.2349,71,8.127,156,5.9061,1.6848,-19.5646,-0.3466,0.8537,-0.3248,40,82089.732,1587424,1.2798,2.3474,-6.2558,-1.6708,1.6533,-1.796,47
7.982,154,3.9212,-1.8471,-21.4663,0.5213,-0.4475,0.4566,75,7.955,153,-2.2768,6.8286,-4.7962,-0.0034,-0.3091,-0.6643,86,7.76,149,10.8707,-0.9892,-13.9012,-0.7645,-1.5892,0.2694,71,8.179,157,6.5654,1.6989,-17.5966,-0.168,0.8711,-0.0933,40,82089.784,1587425,1.3488,3.7069,-2.0023,-0.9534,0.8186,-1.5302,47
8.034,155,3.4855,-0.9377,-20.2808,0.2741,-0.996,0.4344,75,8.006,154,-2.8859,6.4057,-5.0142,0.0925,-0.4172,-0.4746,86,7.811,150,10.3689,-1.8149,-13.3414,0.1186,-1.462,0.0523,71,8.231,158,7.6785,-0.6361,-15.861,-0.4446,0.3868,-0.0028,40,82089.836,1587426,2.3845,4.3381,-4.0758,-0.4879,0.2975,-1.2555,47
8.086,156,1.7561,-1.0469,-18.6055,0.0912,-0.6014,0.1805,75,8.058,155,-3.2784,7.0821,-4.7483,0.4328,-0.6676,-0.1377,86,7.863,151,10.0253,0.8966,-12.4786,0.6678,-0.8858,-0.0312,71,8.282,159,8.2379,0.3888,-14.696,-0.1708,0.0146,-0.0077,40,82089.887,1587427,1.7788,3.1533,-5.7108,-0.0802,-0.1321,-1.0589,47
8.137,157,-3.1258,-1.4676,-19.0752,0.5237,-0.2499,0.0788,75,8.11,156,-3.1776,8.6423,-3.1097,0.5619,-0.6907,-0.0558,86,7.915,152,9.9748,0.9631,-12.8232,-0.1879,0.0319,-0.023,71,8.334,160,8.6,0.0659,-13.9649,-0.0709,-0.1899,0.0262,40,82089.939,1587428,1.3282,2.2913,-7.0232,0.2192,-0.4496,-0.9157,47
8.189,158,-2.8781,-1.4421,-18.3028,0.805,-0.8517,-0.0764,75,8.162,157,-1.8172,9.1718,-2.8956,0.2226,-0.5212,-0.2763,86,7.967,153,9.6615,-0.2471,-13.0471,0.1789,0.7016,-0.0209,71,8.386,161,8.4895,-0.0132,-13.6343,-0.0788,-0.2515,0.0542,40,82089.991,1587429,0.0473,0.9987,-9.6491,-0.4601,0.2877,-0.428,47
8.241,159,-1.9541,-0.1808,-17.1527,0.7135,-1.2909,-0.1573,75,8.213,158,-1.408,8.0643,-3.6574,0.0758,-0.4994,-0.4385,86,8.019,154,10.1912,0.4283,-13.3687,0.6886,1.1904,-0.2389,71,8.438,162,8.1668,-0.0858,-13.4169,0.0292,-0.274,0.0054,40,82090.043,1587430,0.1781,0.6968,-9.3639,-1.0137,0.8503,-0.0756,47
8.293,160,-0.2887,-0.0037,-15.3857,0.4648,-1.1511,-0.1396,75,8.265,159,-1.2795,7.8372,-3.9479,-0.0682,-0.6032,-0.4178,86,8.07,155,11.0668,0.0903,-13.8968,0.6934,1.5472,-0.4996,71,8.49,163,8.1375,0.4404,-13.2812,0.2746,-0.3106,-0.0436,40,82090.094,1587431,0.2656,0.4977,-9.1726,-1.4177,1.2614,0.1826,47
8.344,161,0.0327,-1.0585,-11.907,-0.3326,-0.1758,0.1195,75,8.317,160,-1.2462,7.9276,-3.6188,-0.1673,-0.5293,-0.3883,86,8.122,156,11.1771,-0.2645,-15.3463,0.333,1.8076,-0.6471,71,8.541,164,8.1004,0.2131,-13.2387,0.3354,-0.3426,-0.0476,40,82090.146,1587432,0.325,0.3483,-9.0369,-1.7126,1.5617,0.3712,47
8.396,162,-2.8131,0.2389,-10.6132,0.2389,0.5541,0.4111,75,8.369,161,-1.5815,7.3954,-3.6893,-0.2342,-0.3185,-0.3547,86,8.174,157,9.5771,-1.1462,-18.0354,-0.3946,1.9755,-0.5805,71,8.593,165,8.141,0.6443,-13.1463,0.2742,-0.42,-0.0051,40,82090.198,1587433,0.366,0.2325,-8.9326,-1.9278,1.7799,0.5089,47
8.448,163,-1.4585,0.0767,-12.2766,-0.0783,1.0869,0.6554,75,8.42,162,-2.124,6.8655,-3.8082,-0.1985,-0.2355,-0.2744,86,8.226,158,12.0784,-1.2552,-12.2613,-0.3781,1.633,-0.1619,71,8.645,166,8.1232,0.3141,-13.1367,0.271,-0.4517,0.0233,40,82090.25,1587434,0.4083,0.145,-8.8727,-2.0849,1.9402,0.6099,47
8.5,164,1.1591,0.3989,-16.9565,-0.1649,1.4757,0.46,75,8.472,163,-2.541,6.8452,-3.6588,-0.0928,-0.346,-0.211,86,8.277,159,11.0299,-0.8507,-13.0674,0.3804,0.9294,-0.1359,71,8.697,167,8.8327,0.3135,-13.0277,0.2082,-0.5877,0.1608,40,82090.302,1587435,0.4427,0.0841,-8.8205,-2.1995,2.0585,0.6836,47
8.552,165,4.6043,3.2672,-20.3721,0.0233,0.4441,0.7587,75,8.524,164,-2.7266,7.1013,-3.3869,-0.0403,-0.4428,-0.258,86,8.329,160,11.2696,-1.1997,-12.0014,0.1311,0.3417,0.0988,71,8.749,168,9.8482,0.7058,-12.9506,0.2161,-0.9456,0.4371,40,82090.353,1587436,-2.2854,-1.4061,-9.3152,-1.4723,1.0691,-0.0729,47
8.604,166,5.2673,0.7379,-21.4407,-0.5443,-0.3452,1.0292,75,8.576,165,-2.6225,7.1589,-3.3889,-0.1999,-0.4842,-0.3899,86,8.381,161,10.9401,-1.0632,-11.4239,0.0668,-0.0108,0.2503,71,8.8,169,11.2619,0.3924,-12.5226,0.4148,-1.3569,0.7057,40,82090.405,1587437,-3.8081,-4.1693,-4.2353,-1.2444,0.3859,-0.0925,47
8.655,167,4.53,2.0709,-20.5237,-0.292,-0.9213,0.9269,75,8.627,166,-2.5408,6.9808,-3.6882,-0.1885,-0.4756,-0.4799,86,8.433,162,10.4058,-1.9133,-11.4084,0.0202,-0.3186,0.2641,71,8.852,170,11.8709,0.036,-13.2189,0.8265,-1.6571,0.9283,40,82090.457,1587438,0.2385,-2.1368,-3.4308,-0.9294,-0.3789,0.1737,47
8.707,168,2.467,1.2833,-18.8612,-0.2719,-1.3366,0.634,75,8.679,167,-2.8609,7.7421,-3.3028,-0.106,-0.6183,-0.4472,86,8.485,163,10.0883,-1.7925,-11.3909,-0.0033,-0.462,0.2313,71,8.904,171,9.8619,1.6153,-12.7827,0.8984,-1.39,0.8634,40,82090.508,1587439,0.3018,-1.3956,-4.8453,-0.5961,-0.9396,0.3012,47
8.759,169,0.7666,1.071,-17.6535,0.2491,-1.5482,0.3703,75,8.731,168,-2.3689,9.3597,-1.9554,0.1416,-0.4569,-0.5098,86,8.537,164,9.9115,-1.9098,-11.3341,-0.1098,-0.4583,0.2285,71,8.956,172,8.8497,1.3733,-11.5932,0.7925,-0.5089,0.499,40,82090.56,1587440,0.3396,-0.8212,-5.9438,-0.3583,-1.3489,0.3936,47
8.811,170,-0.8577,0.9892,-16.6698,0.333,-1.662,0.2548,75,8.783,169,-1.6951,8.6137,-2.3407,-0.3327,-0.2065,-0.7389,86,8.588,165,9.8211,-1.9544,-11.3932,-0.0845,-0.5039,0.2096,71,9.008,173,8.168,1.9245,-11.3513,0.5554,0.3135,0.0082,40,82090.612,1587441,0.179,-0.5795,-2.9988,-0.9259,-0.322,0.3568,47
8.862,171,-0.9207,1.8069,-15.3036,0.4525,-1.6432,0.2983,75,8.835,170,-1.6226,7.3929,-3.6368,-0.5324,-0.1496,-0.744,86,8.64,166,9.7328,-1.8889,-11.3684,-0.0939,-0.5627,0.2152,71,9.059,174,8.582,1.9262,-11.5373,-0.266,0.9138,-0.4371,40,82090.664,1587442,0.2259,-0.3912,-4.5725,-1.3536,0.4368,0.3259,47
8.914,172,-0.1021,1.2071,-14.4405,0.2292,-0.9986,0.2258,75,8.886,171,-1.9008,7.2601,-4.2259,-0.3502,-0.2441,-0.5695,86,8.692,167,9.487,-2.1408,-11.554,-0.1784,-0.5975,0.2443,71,9.111,175,9.8738,1.6399,-12.195,-0.8712,1.3519,-0.813,40,82090.716,1587443,0.279,-0.246,-5.6112,-1.6658,0.9931,0.3038,47
8.966,173,-0.563,-0.697,-12.905,0.1334,-0.0464,0.3879,75,8.938,172,-2.1738,7.6969,-4.1782,-0.1261,-0.2916,-0.4177,86,8.744,168,9.1627,-2.2708,-11.7319,-0.2761,-0.6625,0.2777,71,9.163,176,11.2033,1.8644,-14.3818,-1.3129,1.6716,-1.1495,40,82090.767,1587444,0.3239,-0.1243,-6.369,-1.8936,1.3978,0.2874,47
9.018,174,-2.6849,4.8812,-10.2328,0.7718,0.6106,0.9598,75,8.99,173,-2.6085,7.457,-4.2602,-0.0235,-0.2545,-0.4248,86,8.796,169,9.2741,-2.4312,-12.123,-0.3135,-0.9086,0.2746,71,9.215,177,11.4239,0.8801,-17.4074,-1.6353,1.905,-1.2602,40,82090.819,1587445,0.3546,-0.0451,-6.9095,-2.0599,1.6913,0.2754,47
9.07,175,-1.2542,0.7716,-13.128,-0.1141,1.128,0.5791,75,9.042,174,-3.1078,6.9701,-4.4603,0.085,-0.303,-0.4544,86,8.847,170,10.2898,-2.6268,-12.4854,-0.4601,-1.2027,0.3725,71,9.267,178,8.7995,-1.2552,-19.2963,-0.9298,1.1821,-0.9903,40,82090.871,1587446,0.3744,0.0215,-7.3067,-2.1813,1.9028,0.2667,47
9.121,176,-0.2359,3.7745,-17.5672,-0.1014,1.5057,0.4327,75,9.094,175,-3.4072,6.8808,-4.4407,0.2398,-0.4407,-0.4919,86,8.899,171,11.7487,-3.0508,-12.6215,-0.6835,-1.5511,0.5634,71,9.318,179,10.2332,3.6659,-11.6803,-0.3554,0.2568,-0.7355,40,82090.923,1587447,0.3971,0.0565,-7.5787,-2.2699,2.0579,0.2604,47
9.173,177,3.4351,2.8562,-20.8178,0.6003,0.4296,0.6252,75,9.145,176,-3.2936,7.2633,-4.019,0.2774,-0.5568,-0.5566,86,8.951,172,12.1033,-3.0782,-12.4281,-1.1454,-1.7904,0.8609,71,9.37,180,10.95,2.4927,-14.127,-0.825,-0.395,-0.2782,40,82090.974,1587448,-0.04,-3.4638,-12.0999,-1.351,1.8337,0.4965,47
9.225,178,4.173,-0.3795,-20.9505,-0.2392,-0.3558,1.1194,75,9.197,177,-3.1748,7.3022,-3.6897,0.2173,-0.5306,-0.6091,86,9.003,173,10.4912,-3.2902,-13.3428,-1.3849,-1.5766,0.8951,71,9.422,181,9.1613,2.0287,-13.7548,-0.3325,-0.9046,-0.1517,40,82091.026,1587449,-1.0877,-7.7859,-13.8431,-0.6035,1.2251,0.2136,47
9.277,179,4.9794,0.7128,-19.4657,0.3401,-0.929,1.2322,75,10.403,178,-2.4721,7.1982,-2.9549,0.0146,-0.6743,-0.8239,86,9.055,174,8.8763,-4.0056,-15.5513,-0.6803,-1.1892,0.5962,71,9.474,182,8.745,0.6273,-12.7548,-0.2217,-0.9168,-0.1259,40,82091.078,1587450,-0.8975,-4.6439,-11.5139,0.2334,0.231,0.5821,47
9.328,180,3.6268,1.2885,-17.9801,0.2512,-0.8612,1.2601,75,10.455,179,-1.9983,6.8212,-2.8297,-0.3269,-0.5645,-0.811,86,9.107,175,7.9291,-1.7105,-13.8462,0.1019,-0.4061,0.2442,71,9.526,183,8.8261,0.661,-12.3208,-0.2274,-0.8258,-0.0881,40,82091.13,1587451,-0.6594,-3.0692,-10.3729,0.8442,-0.4945,0.8818,47
9.38,181,1.2666,1.016,-17.888,0.0693,-0.3134,1.2352,75,10.507,180,-2.1268,6.4973,-3.5174,0.183,-0.3665,-0.6085,86,9.158,176,8.0289,0.0594,-13.8811,-0.1972,0.3811,-0.0574,71,9.577,184,8.974,0.3502,-12.2275,-0.2855,-0.7599,0.0053,40,82091.181,1587452,-0.4716,-1.8602,-9.6402,1.29,-1.024,1.0994,47
9.432,182,-2.7602,0.0974,-18.1522,-0.1161,-0.7369,0.9506,75,10.559,181,-2.6004,6.4164,-3.8153,0.3562,-0.5548,-0.4579,86,9.21,177,8.6987,-0.5867,-13.8236,-0.6777,0.9565,-0.0567,71,9.629,185,8.9143,0.5207,-12.1589,-0.2881,-0.6402,0.0372,40,82091.233,1587453,1.2577,-0.831,-9.8965,0.2637,-0.0625,1.0859,47
9.484,183,-3.6188,0.1134,-17.6763,0.1176,-1.2039,0.4449,75,10.61,182,-2.8654,7.7924,-2.8947,0.461,-0.7469,-0.4475,86,9.262,178,9.9862,0.0289,-14.2476,-0.1722,1.3765,-0.163,71,9.681,186,8.9225,0.5844,-11.8485,-0.2161,-0.6026,0.0311,40,82091.285,1587454,1.1547,-0.6334,-9.0509,-0.4854,0.643,1.0829,47
9.536,184,-3.7515,-0.7373,-17.3789,0.3745,-1.4723,0.0158,75,10.662,183,-2.4989,8.0432,-2.6851,0.2586,-0.5934,-0.6415,86,9.314,179,11.4151,0.3751,-15.0206,-0.2522,1.683,-0.3932,71,9.733,187,8.8151,0.8871,-11.8577,-0.2045,-0.5878,0.0994,40,82091.337,1587455,1.0831,-0.5157,-8.4174,-1.0322,1.158,1.0814,47
9.587,185,-2.6672,-1.5571,-16.3166,0.5826,-1.4714,-0.0126,75,10.714,184,-2.3319,7.3977,-3.2682,0.1104,-0.6069,-0.8087,86,9.366,180,11.1949,-0.0528,-16.2994,-0.4426,1.9066,-0.6285,71,9.784,188,8.8687,0.7679,-11.9443,-0.2256,-0.5724,0.1748,40,82091.388,1587456,1.033,-0.4308,-7.9373,-1.4312,1.5338,1.0814,47
9.639,186,-0.3715,-5.4713,-19.3926,0.9542,-0.5892,-0.0158,75,10.766,185,-2.4477,7.4707,-3.6264,0.1281,-0.6493,-0.839,86,9.417,181,8.6387,-1.2229,-18.366,-0.9983,1.955,-0.6148,71,9.836,189,8.8036,0.4888,-12.1044,-0.087,-0.4895,0.1872,40,82091.44,1587457,0.9833,-0.3823,-7.5979,-1.7224,1.8081,1.0831,47
9.691,187,-0.3719,-0.2229,-13.1406,0.2028,-0.2275,0.0069,75,10.818,186,-2.3671,7.9512,-3.5874,0.2695,-0.6943,-0.9096,86,9.469,182,10.2587,-1.9783,-13.3981,-1.4038,0.9295,-0.2596,71,9.888,190,8.6423,0.6607,-12.1161,-0.0168,-0.5054,0.2397,40,82091.492,1587458,0.9362,-0.3362,-7.3437,-1.935,2.0083,1.0852,47
9.743,188,1.123,-0.9417,-10.7138,-0.5294,0.5164,-0.2684,75,10.869,187,-2.1544,8.095,-3.6694,0.1489,-0.7159,-0.9707,86,9.521,183,11.2858,-5.3897,-11.943,-0.4829,0.2433,-0.2048,71,9.94,191,8.5842,0.7371,-12.1791,0.0651,-0.6364,0.391,40,82091.544,1587459,0.8994,-0.318,-7.1676,-2.0901,2.1544,1.0887,47
9.795,189,5.8772,0.6454,-15.8159,-0.7668,1.0593,-0.5376,75,10.921,188,-2.2488,7.6404,-3.6501,0.2823,-0.8331,-0.9788,86,9.573,184,10.9306,-1.4163,-11.7085,-0.3422,-0.1933,0.0414,71,9.992,192,9.3313,0.6013,-12.5129,0.3035,-0.945,0.6039,40,82091.595,1587460,4.5023,-0.0127,-11.8829,-2.2033,2.261,1.1239,47
9.846,190,4.5799,0.5998,-18.9888,-0.6329,0.4794,0.0041,75,10.973,189,-2.39,7.1857,-3.4047,0.0814,-0.9619,-1.0828,86,9.625,185,9.8221,-2.1959,-11.8377,-0.5111,-0.5036,0.2171,71,10.043,193,11.3331,0.8252,-12.5401,0.4315,-1.3565,0.942,40,82091.647,1587461,5.7708,1.2911,-16.5588,-1.9682,2.1023,0.7236,47
9.898,191,3.9246,-1.6907,-19.8831,-0.7098,-0.3194,0.6714,75,11.025,190,-2.6485,6.4365,-3.8052,-0.0479,-0.9087,-1.1817,86,9.676,186,9.592,-2.2641,-11.7698,-0.45,-0.6141,0.2382,71,10.095,194,13.352,0.731,-12.4604,0.7226,-1.6568,1.3011,40,82091.699,1587462,6.1099,1.2648,-18.5499,-1.4721,1.5195,0.14,47
9.95,192,1.8907,-2.23,-19.8387,-0.6398,-0.6367,1.1231,75,11.076,191,-3.0088,5.7131,-4.5397,-0.0933,-0.869,-1.1278,86,9.728,187,9.4067,-2.3166,-11.5415,-0.3285,-0.6018,0.1512,71,10.147,195,11.0943,0.8489,-12.7871,0.5608,-1.5249,1.5287,40,82091.751,1587463,4.4971,0.8303,-15.949,-0.9609,0.4676,-0.297,47
10.002,193,-1.2237,-1.4125,-20.1876,0.0044,-1.1341,1.1697,75,11.128,192,-3.5538,6.5541,-4.4907,0.1362,-0.9793,-0.7382,86,9.78,188,9.3257,-1.9947,-11.307,-0.4106,-0.5387,0.1394,71,10.199,196,10.1913,1.8481,-11.3732,-0.0132,-0.7636,1.312,40,82091.802,1587464,3.2954,0.4984,-14.0197,-0.5856,-0.3011,-0.6165,47
10.054,194,-1.6285,0.1191,-20.0564,0.6606,-1.497,0.9449,75,11.18,193,-3.2401,8.4732,-3.0711,0.6812,-0.8048,-0.4614,86,9.832,189,9.2582,-2.0463,-11.0183,-0.4134,-0.5616,0.1281,71,10.251,197,9.1918,2.3055,-10.9885,-0.3752,0.1276,0.8828,40,82091.854,1587465,2.4499,0.231,-12.4841,-0.3091,-0.8619,-0.8502,47
10.105,195,-1.1349,1.0947,-18.9634,0.6724,-1.7619,0.6754,75,11.232,194,-2.7153,7.2351,-3.8562,-0.0269,-0.8086,-0.5965,86,9.883,190,9.2284,-2.0222,-11.07,-0.244,-0.6574,0.1126,71,10.303,198,9.1703,2.452,-11.343,-0.9398,0.7781,0.4378,40,82091.906,1587466,2.2267,-0.172,-16.3364,-0.4381,-0.2634,-0.591,47
10.157,196,0.3105,2.0509,-17.9036,0.6717,-1.9553,0.5197,75,11.284,195,-2.6697,6.6851,-4.3437,-0.0626,-0.9031,-0.3616,86,9.935,191,9.2437,-1.9926,-11.4616,-0.3053,-0.7353,0.168,71,10.354,199,10.0695,2.365,-12.1815,-1.363,1.2529,0.064,40,82091.958,1587467,1.7896,-0.3347,-13.5519,-0.8495,0.4964,-0.3315,47
10.209,197,0.4734,2.2353,-17.02,0.103,-1.4011,0.3044,75,11.335,196,-2.4943,8.5596,-4.0429,0.6241,-0.8019,-0.0656,86,9.987,192,9.1102,-2.1432,-11.589,-0.3516,-0.8101,0.2552,71,10.406,200,11.475,2.1189,-13.7028,-1.6718,1.5994,-0.237,40,82092.009,1587468,1.4658,-0.4535,-11.4922,-1.202,1.051,0.1439,47
10.261,198,-0.5077,0.5494,-15.8521,-0.2062,-0.5487,0.1921,75,11.387,197,-2.3921,9.3676,-3.5764,0.6155,-0.7681,-0.2693,86,10.039,193,8.956,-2.581,-11.8745,-0.3964,-1.0322,0.2834,71,10.458,201,11.0524,2.8528,-16.2676,-1.8972,1.8523,-0.539,40,82092.061,1587469,1.2279,-0.5416,-9.9838,-1.4529,1.4557,0.5211,47
10.313,199,-0.0987,-3.0302,-11.0963,-0.6585,0.2819,0.7499,75,11.439,198,-2.1936,8.6458,-3.5883,0.3551,-0.7667,-0.5685,86,10.091,194,10.3302,-2.5335,-12.3353,-0.4349,-1.4265,0.3026,71,10.51,202,8.9833,-0.3224,-19.571,-1.4167,1.9027,-0.8143,40,82092.113,1587470,1.0443,-0.6085,-8.8964,-1.6246,1.7511,0.798,47
10.364,200,-0.0341,-5.2287,-5.5074,-0.858,0.8782,0.9618,75,11.491,199,-2.0677,8.1074,-3.3605,0.5174,-0.6942,-0.6333,86,10.142,195,12.774,-3.1273,-12.6737,-0.5752,-1.7145,0.4906,71,10.561,203,8.6975,1.3219,-12.7968,-0.5127,0.7727,-0.4998,40,82092.165,1587471,0.9004,-0.6545,-8.1248,-1.741,1.9667,0.9998,47
10.416,201,2.1302,-7.1987,-6.4406,-0.4569,1.3233,1.2857,75,11.543,200,-1.7998,8.1796,-2.9353,0.4878,-0.5989,-0.5906,86,10.194,196,12.5158,-3.632,-12.2561,-1.095,-1.7676,0.953,71,10.613,204,9.2916,1.3222,-15.3529,-0.8228,-0.1029,-0.0832,40,82092.216,1587472,0.7889,-0.6744,-7.5869,-1.8135,2.1241,1.1482,47
10.468,202,6.6123,-7.5468,-12.6971,0.3409,1.6483,0.5218,75,11.594,201,-1.4236,7.9275,-2.8618,0.2866,-0.4466,-0.6001,86,10.246,197,10.6195,-3.7093,-13.056,-1.2071,-1.3804,1.1505,71,10.665,205,10.1799,2.0759,-15.0195,-0.4162,-0.7419,-0.0711,40,82092.268,1587473,0.7216,-0.693,-7.2027,-1.8562,2.2389,1.2572,47
10.519,203,6.4702,-6.5353,-17.2634,-0.4286,0.5336,1.0575,75,11.646,202,-1.2967,7.3326,-3.2495,-0.0298,-0.3498,-0.5438,86,10.297,198,9.2259,-2.8409,-12.7881,-0.2341,-0.8709,0.9171,71,10.717,206,10.139,1.4907,-14.386,-0.4368,-0.9187,-0.0302,40,82092.32,1587474,5.885,-3.791,-2.6934,-1.3255,2.1884,0.6485,47
10.571,204,8.3611,-6.0483,-17.3098,-0.9551,-0.2799,1.2369,75,11.698,203,-1.434,6.8933,-3.6233,-0.0985,-0.3066,-0.3633,86,10.35,199,8.8863,-0.7186,-12.7761,-0.1445,-0.1225,0.6235,71,10.769,207,9.9106,0.2508,-13.5153,-0.3405,-0.8294,-0.0303,40,82092.372,1587475,6.8302,-2.7569,-1.242,-0.8495,1.821,-0.0745,47
10.623,205,5.9653,-4.3763,-16.5931,-0.6652,-0.8736,0.984,75,11.75,204,-1.6031,7.0425,-3.2916,-0.113,-0.2886,-0.1502,86,10.401,200,9.2198,-0.0002,-13.4917,-0.1159,0.5541,0.2308,71,10.82,208,9.7638,0.1313,-12.9046,-0.2956,-0.7243,-0.0997,40,82092.423,1587476,5.3957,-1.8461,-3.4969,0.0359,1.5486,-0.7305,47
10.675,206,3.2513,-2.2505,-14.8108,-0.3725,-1.1189,0.6661,75,11.802,205,-1.6968,7.3855,-2.5464,-0.2114,-0.1242,-0.0233,86,10.453,201,9.3082,0.7225,-13.6417,0.1664,1.0828,-0.2536,71,10.872,209,9.5601,0.5484,-12.5983,-0.2049,-0.6317,-0.1539,40,82092.475,1587477,4.1987,-1.2129,-5.1635,0.6843,1.3494,-1.2092,47
10.727,207,1.8739,-0.8182,-13.1191,-0.1792,-1.1316,0.3062,75,11.854,206,-2.1345,6.8628,-2.8594,-0.2852,-0.1055,0.0767,86,10.505,202,8.9812,0.189,-14.8187,0.1029,1.4686,-0.5789,71,10.924,210,9.3454,0.7819,-12.5413,-0.2746,-0.5009,-0.117,40,82092.527,1587478,3.3024,-0.7861,-6.5604,1.1528,1.2113,-1.5586,47
10.778,208,1.9256,-1.6666,-11.5923,-0.5678,-0.6038,0.0402,75,11.905,207,-2.6351,6.9345,-2.869,-0.1771,-0.2424,0.1537,86,10.557,203,7.8402,-0.7559,-16.565,-0.2479,1.7502,-0.7756,71,10.976,211,9.2228,0.8369,-12.3776,-0.2065,-0.3974,-0.1269,40,82092.579,1587479,3.6942,-0.7524,-9.3238,0.6404,1.2413,-0.7973,47
10.83,209,2.3105,-3.4485,-10.5744,0.0155,0.2417,0.252,75,11.957,208,-2.878,7.5521,-2.5102,-0.0884,-0.2275,0.1019,86,10.609,204,5.9615,-5.5343,-19.5018,-0.4912,1.3363,-0.821,71,11.027,212,8.7812,0.8879,-12.1991,-0.082,-0.3601,-0.0773,40,82092.631,1587480,2.7947,-0.5847,-9.4703,0.2726,1.2832,-0.2373,47
10.882,210,4.6861,-6.1927,-15.7142,-0.3956,0.5277,-0.2239,75,12.009,209,-2.8888,7.6183,-2.7307,-0.2328,-0.0317,-0.0695,86,10.661,205,9.6167,1.3127,-17.2415,-0.3084,1.4064,-0.5767,71,11.079,213,9.0468,1.5511,-11.4404,0.0566,-0.6264,0.1485,40,82092.682,1587481,2.1264,-0.471,-9.5532,0.0072,1.3135,0.1718,47
10.934,211,2.8306,-7.4956,-14.9232,-0.9661,0.9121,0.2706,75,12.061,210,-2.7616,7.3323,-3.5499,-0.2489,0.0759,-0.1746,86,10.712,206,12.2845,1.3489,-15.2486,-0.2373,0.6212,-0.3632,71,11.131,214,11.2638,2.3971,-12.1732,0.452,-1.124,0.433,40,82092.734,1587482,1.6313,-0.3952,-9.6186,-0.1839,1.336,0.4707,47
10.986,212,7.1235,-2.0386,-14.9471,-1.3825,1.3469,0.7416,75,12.113,211,-2.7708,7.2452,-4.0798,-0.2188,-0.0439,-0.2001,86,10.764,207,11.4854,0.0984,-14.5881,-0.1299,0.5093,-0.1752,71,11.183,215,13.3381,1.9521,-11.4003,0.8614,-1.4871,0.6939,40,82092.786,1587483,1.2833,-0.3417,-9.6598,-0.3198,1.3531,0.6891,47
11.037,213,10.2567,0.949,-18.9056,-0.3346,0.3137,0.2182,75,12.164,212,-2.8768,7.3885,-3.9951,-0.2063,-0.1535,-0.171,86,10.816,208,10.5441,-0.928,-13.5666,-0.3716,0.4596,-0.0497,71,11.234,216,9.9701,1.7052,-12.9219,1.0172,-1.3052,0.9695,40,82092.837,1587484,6.2949,5.0817,-4.4868,0.2263,1.0032,0.895,47
11.089,214,8.5222,-2.3563,-21.7946,-0.9216,-0.4404,-0.0903,75,12.216,213,-3.0767,7.2111,-3.9869,-0.1459,-0.1645,-0.1467,86,10.868,209,10.2972,-0.6796,-12.6289,-0.3099,0.2445,0.0517,71,11.286,217,8.356,1.589,-11.1706,0.3413,-0.3931,1.0073,40,82092.889,1587485,3.3232,5.2699,-0.7112,0.839,0.632,0.8402,47
11.141,215,9.0783,1.0424,-21.2762,0.0018,-0.9907,0.1012,75,12.268,214,-3.2898,6.8329,-4.294,-0.0808,-0.2139,-0.1431,86,10.919,210,10.1709,-0.6691,-12.1929,-0.3579,0.0898,0.2436,71,11.338,218,6.9941,1.8297,-10.2073,-0.2594,0.3981,0.8443,40,82092.941,1587486,2.3826,8.7541,-0.4233,1.2862,0.4029,0.8082,47
11.193,216,8.7198,1.5491,-19.6617,0.6389,-1.3924,0.3281,75,12.32,215,-3.5546,6.6637,-4.4994,0.1236,-0.3277,-0.0947,86,10.971,211,10.0646,-1.195,-12.1906,-0.3605,-0.2549,0.4271,71,11.39,219,6.8317,2.6667,-11.313,-0.8664,0.9755,0.5646,40,82092.993,1587487,1.7393,6.5261,-0.8531,1.6126,0.2143,0.7712,47
11.244,217,8.1114,3.6347,-16.6689,0.9184,-1.6734,0.4915,75,12.371,216,-3.5465,7.7264,-3.8005,0.2923,-0.4028,-0.0496,86,11.023,212,10.0396,-1.6754,-12.6303,-0.4631,-0.5134,0.5344,71,11.442,220,9.6331,3.8315,-15.7663,-1.3094,1.3969,0.6736,40,82093.044,1587488,1.2351,4.7928,-1.1226,1.8509,0.0597,0.7443,47
11.296,218,5.9397,3.6789,-14.8163,0.7013,-1.0669,0.554,75,12.423,217,-3.1023,8.3603,-3.0391,0.1179,-0.3566,-0.1991,86,11.075,213,10.3388,-1.5516,-12.9653,-0.4337,-0.6835,0.535,71,11.493,221,7.2578,0.8092,-19.4882,-1.557,1.1943,0.456,40,82093.096,1587489,1.0585,3.6558,-0.9435,0.8449,-0.0558,0.7114,47
11.348,219,2.2187,3.227,-13.2304,0.4428,-0.0963,0.5185,75,12.475,218,-3.1396,7.4272,-3.513,-0.2074,-0.4481,-0.2558,86,11.127,214,10.3145,-1.5157,-13.1141,-0.5657,-0.8234,0.622,71,11.545,222,7.4396,-1.6463,-19.4379,-0.4617,1.1938,0.1237,40,82093.148,1587490,0.8893,2.6415,-3.3238,0.1129,-0.1471,0.6878,47
11.4,220,-1.6201,-0.1934,-13.5649,0.1706,0.45,0.1668,75,12.527,219,-3.2908,8.1387,-3.378,0.1439,-0.6156,-0.1074,86,11.178,215,10.397,-1.6209,-13.4912,-0.6297,-0.9558,0.6781,71,11.597,223,8.6579,-5.2701,-17.6968,-0.6865,0.5466,0.0896,40,82093.2,1587491,0.7394,1.9027,-4.9895,-0.4211,-0.2119,0.6716,47
11.452,221,2.5167,-0.1483,-7.3091,0.1071,0.6842,0.7984,75,12.579,220,-3.0898,9.1562,-2.9138,0.3435,-0.6537,-0.3051,86,11.23,216,10.8665,-1.8638,-13.277,-0.8091,-0.8865,0.9119,71,11.649,224,8.6752,-3.5759,-15.9732,-0.7492,0.2082,0.0539,40,82093.251,1587492,0.6188,1.3725,-6.2007,-0.8092,-0.258,0.6611,47
11.504,222,0.8447,5.2817,-13.331,-0.2626,1.1818,1.0579,75,12.63,221,-2.2989,8.4397,-3.4518,-0.1199,-0.6901,-0.7648,86,11.282,217,9.4161,-3.8611,-14.3041,-1.2657,-0.4186,1.2804,71,11.701,225,8.0531,-2.3528,-15.52,-0.7031,-0.0322,0.0059,40,82093.303,1587493,0.5211,0.9848,-7.0958,-1.0917,-0.2909,0.654,47
11.555,223,4.9863,-1.3429,-17.7261,-0.688,1.5449,0.8655,75,12.682,222,-1.7129,7.5651,-3.9343,-0.2063,-0.5718,-0.9124,86,11.333,218,8.9273,-1.6204,-10.4853,-1.599,0.3729,1.521,71,11.752,226,9.164,-2.5524,-14.2741,-0.4693,-0.1989,-0.0395,40,82093.355,1587494,0.447,0.703,-7.7591,-1.2974,-0.3139,0.65,47
11.607,224,6.9484,-2.4361,-20.9338,-1.1788,0.4582,1.0938,75,12.734,223,-1.5675,7.4773,-4.1016,0.0842,-0.4831,-0.7392,86,11.385,219,8.9892,0.8506,-10.3218,-1.8422,0.9505,1.3849,71,11.804,227,9.1965,-2.1498,-14.0948,-0.3158,-0.3668,-0.069,40,82093.407,1587495,0.4039,0.4936,-8.2429,-1.4465,-0.33,0.6472,47
11.659,225,8.1865,-4.1428,-22.8151,-1.1157,-0.3349,1.4065,75,12.786,224,-1.7442,7.4699,-3.9737,0.2469,-0.5129,-0.6614,86,11.437,220,9.7013,0.0934,-13.3552,-2.0198,1.3721,0.9471,71,11.856,228,8.6907,-1.396,-13.9964,-0.24,-0.4049,-0.0823,40,82093.459,1587496,-2.5114,3.0431,-6.0192,-0.9842,0.04,-0.2028,47
11.711,226,6.2386,-3.3509,-22.5164,-0.3337,-0.9138,1.5446,75,12.838,225,-1.921,7.1632,-3.7368,0.0293,-0.5559,-0.6652,86,11.489,221,8.5206,3.2105,-17.7521,-1.8185,0.7083,0.8298,71,11.908,229,8.3684,-0.1587,-13.9685,-0.0871,-0.4229,-0.0331,40,82093.51,1587497,-4.6759,6.2758,-4.6218,-1.0152,0.7179,-0.8241,47
11.763,227,3.6674,-0.7727,-20.9962,0.43,-1.3362,1.4559,75,12.889,226,-2.0575,6.8147,-3.5654,-0.0422,-0.4906,-0.5931,86,11.541,222,7.755,-2.8939,-16.6974,-0.9946,0.0507,0.775,71,11.959,230,8.5308,-0.2002,-13.624,-0.0869,-0.5197,0.1466,40,82093.562,1587498,-3.4634,5.4066,-5.4787,-1.0971,1.2126,-1.2775,47
11.814,228,2.7053,2.6014,-18.5942,0.6929,-1.6446,1.0228,75,12.941,227,-2.3228,6.7068,-3.3706,0.1735,-0.3645,-0.4413,86,11.592,223,8.359,-6.2322,-15.9933,-0.5962,-0.1003,0.5287,71,12.011,231,10.7101,0.2695,-12.9333,0.1512,-0.906,0.3647,40,82093.614,1587499,-2.5042,4.7596,-6.1367,-1.1924,1.5737,-1.6085,47
11.866,229,1.1251,2.5843,-16.671,0.2001,-1.1827,0.4684,75,12.993,228,-2.7727,6.866,-2.8563,0.22,-0.2869,-0.3274,86,11.644,224,9.6989,-3.2582,-14.7122,-0.3504,-0.1895,0.4326,71,12.063,232,11.4792,0.1539,-12.7448,0.5361,-1.328,0.6898,40,82093.666,1587500,-1.2059,3.1054,-7.9714,-1.2398,0.5298,-1.2364,47
11.918,230,-0.2757,2.2364,-15.6312,-0.1532,-0.8669,0.1348,75,13.045,229,-3.112,6.3753,-2.8991,0.0919,-0.2097,-0.2573,86,11.696,225,9.5159,-3.5438,-14.0019,-0.5037,-0.098,0.3901,71,12.115,233,9.6553,-0.2234,-12.8644,0.3837,-1.2618,0.932,40,82093.717,1587501,-0.7775,2.274,-8.347,-1.2729,-0.2311,-0.9624,47
11.97,231,-0.9824,0.3211,-15.5999,-0.2529,-0.2418,-0.0241,75,13.097,230,-3.377,6.7501,-2.8042,0.0776,-0.1496,-0.0645,86,11.748,226,9.3212,-3.2741,-13.386,-0.5018,-0.0276,0.2603,71,12.167,234,8.9624,-0.2345,-11.3855,0.3129,-0.5866,0.9261,40,82093.769,1587502,-0.4901,1.6572,-8.5868,-1.2958,-0.7859,-0.7626,47
12.022,232,2.002,-1.233,-19.382,-0.5827,0.4478,-0.5484,75,13.149,231,-3.2798,7.9285,-2.725,0.2899,0.1014,0.1381,86,11.8,227,9.174,-2.983,-12.9319,-0.4225,0.0019,0.1333,71,12.218,235,8.1441,0.4122,-11.3404,-0.0431,0.2569,0.6475,40,82093.821,1587503,-0.2887,1.2066,-8.7587,-1.3108,-1.1899,-0.6169,47
12.073,233,3.1106,0.7404,-13.2392,0.0274,0.6659,-0.6386,75,13.2,232,-2.849,8.6802,-2.9561,0.3531,0.2846,0.1369,86,11.852,228,9.1624,-2.8209,-12.4952,-0.3608,-0.0547,0.0438,71,12.27,236,8.3124,0.001,-11.85,-0.7001,0.8724,0.3058,40,82093.872,1587504,-0.136,0.8723,-8.8991,-1.3196,-1.4861,-0.5103,47
12.125,234,2.2753,-1.8744,-17.659,0.5392,1.1685,-0.3865,75,13.252,233,-2.4295,8.7453,-3.4949,0.2822,0.386,-0.0063,86,11.904,229,9.0064,-2.423,-12.4407,-0.2758,-0.1126,-0.0348,71,12.322,237,8.8266,0.076,-12.8025,-0.9815,1.3217,-0.0992,40,82093.924,1587505,-0.031,0.6208,-8.9988,-1.3237,-1.7013,-0.4325,47
12.177,235,2.0838,1.1149,-18.3907,0.713,0.9974,-0.0017,75,13.304,234,-2.0188,8.678,-3.9981,0.2799,0.2705,-0.1054,86,11.955,230,9.3137,-2.4757,-11.8881,-0.1489,-0.1877,-0.1077,71,12.374,238,9.6163,0.2782,-13.588,-1.3934,1.6496,-0.2885,40,82093.976,1587506,-5.2542,0.6561,-4.0043,-1.3732,-1.8053,-0.3722,47
12.229,236,3.764,-1.6273,-21.4189,0.1933,0.0586,0.1083,75,13.356,235,-1.9378,8.4074,-4.2755,0.202,0.0266,-0.2031,86,12.007,231,9.2731,-2.4618,-11.7122,-0.0653,-0.3269,-0.1368,71,12.426,239,9.4716,-0.1095,-14.6336,-1.6941,1.8889,-0.3024,40,82094.028,1587507,-2.8784,0.4597,-2.2092,-1.0416,-1.0295,-0.4927,47
12.28,237,2.9662,-0.4403,-20.7879,-0.2127,-0.6266,0.3481,75,13.408,236,-2.0491,7.8418,-4.5421,-0.0187,-0.2328,-0.3288,86,12.059,232,9.4009,-2.2536,-12.0172,0.0792,-0.498,-0.1851,71,12.477,240,9.2769,-1.4105,-15.8519,-1.2699,1.6485,-0.4089,40,82094.079,1587508,-4.6013,0.201,0.7158,-0.9495,-0.232,-0.617,47
12.332,238,2.6116,0.5557,-19.8255,0.0442,-0.6473,0.4239,75,13.459,237,-2.2289,7.4176,-4.5961,-0.2273,-0.3912,-0.3869,86,12.11,233,9.6472,-2.0204,-11.8525,0.0446,-0.6693,-0.1942,71,12.529,241,8.825,-1.3634,-16.2638,-0.5165,0.818,-0.2638,40,82094.131,1587509,-3.1997,0.2811,-1.9219,-0.9706,0.5194,-0.7491,47
12.384,239,-0.7436,0.316,-20.1352,0.1543,0.0034,0.3383,75,13.511,238,-2.5519,7.0111,-4.5818,-0.3424,-0.4133,-0.3914,86,12.162,234,10.13,-1.7884,-12.2804,-0.0502,-1.0733,-0.2086,71,12.581,242,10.1595,2.628,-12.8783,0.007,-0.0697,-0.2766,40,82094.183,1587510,-2.2289,0.3639,-3.6645,-0.9921,1.0677,-0.8452,47
12.436,240,-3.1386,1.2804,-20.9295,0.3709,-0.6668,0.1352,75,13.563,239,-2.9905,6.8017,-4.5292,-0.4142,-0.394,-0.336,86,12.214,235,12.0863,-2.3337,-11.9441,-0.3187,-1.4567,-0.0675,71,12.633,243,9.8829,-0.3674,-15.6873,0.0315,-0.228,-0.1528,40,82094.235,1587511,-1.4748,0.4748,-4.971,-1.0165,1.4679,-0.915,47
12.488,241,-3.6325,1.0818,-20.2558,0.5019,-1.156,-0.3828,75,13.615,240,-3.1902,7.2565,-4.1066,-0.3392,-0.4021,-0.2315,86,12.266,236,11.906,-3.5203,-10.675,-0.9078,-1.5898,0.3512,71,12.684,244,10.2797,-1.117,-14.5439,-0.0534,-0.5917,-0.2055,40,82094.286,1587512,-3.2827,2.4165,-9.4323,-0.7761,0.451,-1.2228,47
12.539,242,-2.2752,1.4258,-17.938,0.6784,-1.513,-0.763,75,13.667,241,-3.2981,7.8014,-3.3478,-0.2857,-0.4974,-0.1904,86,12.318,237,9.702,-1.9102,-11.7733,-1.3378,-0.8222,0.8152,71,12.736,245,10.4959,-1.3678,-13.5268,-0.411,-0.7159,-0.192,40,82094.338,1587513,-2.3057,1.6764,-9.4665,-0.5933,-0.3086,-1.4459,47
12.591,243,0.5297,-0.5819,-15.2784,0.3711,-1.1943,-0.7112,75,13.718,242,-3.4584,7.4553,-2.8658,-0.6396,-0.6484,-0.1516,86,12.369,238,9.4655,0.0852,-11.7997,-0.2999,-0.1057,0.8494,71,12.788,246,10.2798,-1.2143,-12.7447,-0.1267,-0.7748,-0.2383,40,82094.39,1587514,-1.6042,1.1431,-9.4469,-0.4548,-0.8618,-1.6097,47
12.643,244,1.3705,-1.7446,-11.9438,0.4617,-0.1892,-0.136,75,13.77,243,-3.6962,7.5031,-2.7732,-0.5329,-0.8309,0.0315,86,12.421,239,10.4295,3.8358,-11.1402,-0.1731,0.6012,0.5267,71,12.84,247,9.9019,-0.4438,-12.4973,-0.0123,-0.8049,-0.1741,40,82094.442,1587515,-1.0935,0.7511,-9.4461,-0.3461,-1.2653,-1.7302,47
12.695,245,2.1765,-4.6965,-16.7136,0.5123,0.1613,-0.129,75,13.822,244,-3.3549,8.7687,-2.4723,0.2098,-0.8835,-0.0097,86,12.473,240,11.8948,2.4869,-12.7737,-0.8015,1.1171,0.4551,71,12.892,248,9.7108,-0.115,-12.332,0.2026,-0.7779,-0.1523,40,82094.493,1587516,-0.723,0.4656,-9.4614,-0.2595,-1.5585,-1.819,47
12.747,246,4.0807,-5.5537,-20.1949,-0.0694,0.8001,-0.1766,75,13.874,245,-2.1741,9.2721,-2.3699,0.1577,-1.0349,-0.4737,86,12.525,241,12.8124,1.3871,-14.0432,-0.7262,1.4937,0.4822,71,12.943,249,9.3399,0.0516,-12.4217,0.2514,-0.7258,-0.113,40,82094.545,1587517,-0.4557,0.2513,-9.4716,-0.1906,-1.7717,-1.8846,47
12.798,247,4.7977,-3.6232,-22.7356,0.2105,1.2664,-0.2185,75,13.926,246,-1.284,7.9556,-3.1553,-0.1165,-0.9433,-0.8821,86,12.577,242,11.3943,1.7075,-17.1039,-1.2052,1.7685,0.309,71,12.995,250,8.9228,0.1216,-12.3892,0.2662,-0.729,-0.0735,40,82094.597,1587518,-0.2712,0.0953,-9.4735,-0.133,-1.9291,-1.9329,47
12.85,248,5.6905,-6.5235,-24.5899,-0.5238,0.2549,0.084,75,13.977,247,-0.8439,7.0191,-3.5607,0.0073,-0.8046,-1.015,86,12.628,243,7.6808,0.0931,-19.0888,-1.5549,1.2546,0.3424,71,13.047,251,8.5828,0.603,-12.5599,0.1682,-0.7375,0.0744,40,82094.649,1587519,-5.4295,-5.1883,-12.3913,-0.0942,-1.6668,-1.8138,47
12.902,249,4.1899,-2.6587,-24.0955,-0.9051,-0.3573,0.1607,75,14.029,248,-0.6448,6.7167,-3.5853,0.0516,-0.6722,-1.003,86,12.68,244,10.8716,0.4243,-18.8036,-0.4583,0.2422,-0.1038,71,13.099,252,8.7479,0.3395,-12.7745,0.1989,-0.9297,0.2632,40,82094.7,1587520,-1.0334,-7.0459,-6.4803,-0.6811,-0.5493,-1.2487,47
12.954,250,2.5013,-3.8996,-24.8274,-0.5024,-0.9301,-0.1101,75,14.081,249,-0.394,6.8048,-3.2876,0.0711,-0.5184,-0.9066,86,12.732,245,9.4954,0.8098,-16.9783,-0.8994,-0.3088,0.0833,71,13.151,253,10.5921,0.3072,-12.9523,0.3238,-1.3394,0.5693,40,82094.752,1587521,-3.1677,-7.2869,-5.8178,-1.1737,0.2769,-0.4455,47
13.006,251,2.755,-2.6135,-23.2339,-0.022,-1.3482,-0.31,75,14.133,250,-0.5317,6.5828,-3.1546,0.17,-0.362,-0.7784,86,12.784,246,9.2574,-0.0955,-15.881,-0.9101,-0.6068,0.0867,71,13.202,254,9.9357,-0.3,-13.5745,0.2393,-1.3716,0.8584,40,82094.804,1587522,-2.0775,-5.3248,-6.481,-1.5345,0.8907,0.1835,47
13.058,252,2.7731,-1.9485,-19.6427,0.2447,-1.6533,-0.4736,75,14.185,251,-0.8619,6.3105,-3.1763,0.1088,-0.3918,-0.6527,86,12.836,247,9.3665,-0.351,-14.5412,-0.5776,-0.7626,0.0872,71,13.254,255,11.2341,-0.6238,-13.3188,0.4712,-1.4871,1.124,40,82094.856,1587523,3.8421,1.4448,-12.7557,-1.2478,0.6896,0.1743,47
13.109,253,0.2178,-1.1786,-17.1553,0.3153,-1.3336,-0.6134,75,14.237,252,-1.4241,6.1478,-3.3034,-0.0166,-0.5152,-0.4214,86,12.887,248,9.1318,-1.5189,-13.9824,-0.609,-0.7144,0.1038,71,13.306,256,11.4678,-0.5248,-12.9016,0.1385,-1.4404,1.5007,40,82094.907,1587524,3.0518,1.1349,-10.6252,-0.2368,-0.1598,0.0589,47
13.161,254,-1.7219,-0.3541,-15.8898,0.4191,-1.1469,-0.9569,75,14.288,253,-2.0029,6.5719,-3.0299,0.1603,-0.5536,-0.1964,86,12.939,249,9.1418,-2.0353,-13.4036,-0.4994,-0.5921,0.0924,71,13.358,257,10.2126,0.9057,-13.2769,-0.576,-1.0051,1.7756,40,82094.959,1587525,2.3678,0.9089,-9.4342,0.5011,-0.7797,-0.0251,47
13.213,255,-1.831,-1.3797,-14.5769,0.3471,-0.7118,-1.3735,75,14.34,254,-2.4464,7.7251,-1.3698,-0.0825,-0.5663,-0.168,86,12.991,250,8.9616,-2.5493,-12.7079,-0.474,-0.5468,0.0937,71,13.41,258,9.7491,1.6193,-11.6803,-0.2668,-0.072,1.6193,40,82095.011,1587526,1.8828,0.7428,-8.5545,1.0396,-1.2321,-0.0859,47
13.265,256,-0.9291,-6.1446,-18.6354,0.9238,0.1204,-1.1283,75,14.392,255,-2.0935,7.6217,-1.1436,-0.4126,-0.4356,-0.2713,86,13.043,251,8.9463,-2.8518,-12.3786,-0.3773,-0.5954,0.0642,71,13.461,259,9.4279,3.7615,-11.804,0.1317,0.6324,0.9769,40,82095.063,1587527,1.5148,0.6117,-7.8977,1.4326,-1.5624,-0.1297,47
13.316,257,1.2907,-4.4552,-17.6999,-0.0032,0.5916,-0.6139,75,14.444,256,-1.8655,7.1312,-2.0428,-0.2112,-0.4129,-0.3074,86,13.095,252,8.8983,-2.6867,-12.3441,-0.312,-0.6603,0.0736,71,13.513,260,9.516,5.5662,-13.1398,-0.581,1.1466,0.324,40,82095.115,1587528,1.2462,0.5049,-7.4208,1.7195,-1.8034,-0.1608,47
13.368,258,2.4875,-2.6815,-18.3571,-0.0085,1.1142,0.1687,75,14.495,257,-1.5124,7.4774,-2.5899,-0.1788,-0.5458,-0.3458,86,13.146,253,8.6668,-3.0252,-12.5067,-0.3508,-0.7198,0.1257,71,13.565,261,10.784,4.4581,-14.417,-1.1011,1.5218,-0.1816,40,82095.166,1587529,1.0504,0.4088,-7.0836,1.9288,-1.9793,-0.1828,47
13.42,259,2.6042,-2.5829,-21.3943,-0.6063,1.4956,0.3089,75,14.547,258,-1.2627,7.584,-2.9264,-0.1492,-0.5505,-0.4984,86,13.198,254,8.5653,-3.2906,-12.8017,-0.4345,-0.8102,0.1876,71,13.617,262,11.6594,5.3654,-17.0285,-0.8728,1.7956,-0.8039,40,82095.218,1587530,-0.362,1.675,-2.6065,2.0816,-1.946,-0.1284,47
13.472,260,-1.0585,-2.3076,-23.611,-1.088,0.9899,0.6836,75,14.599,259,-1.0082,7.1185,-3.4177,-0.2233,-0.5284,-0.6702,86,13.25,255,9.2585,-3.2712,-13.2378,-0.5069,-0.9378,0.242,71,13.668,263,10.522,-1.0947,-20.4094,-0.11,1.9955,-1.2582,40,82095.27,1587531,-0.0255,5.3006,-3.8719,1.5097,-1.7978,-0.5461,47
13.524,261,-1.5453,-2.6675,-23.8702,-0.388,0.0531,0.8565,75,14.651,260,-0.8332,6.5539,-4.0573,-0.127,-0.4713,-0.7727,86,13.302,256,9.9786,-3.4584,-13.3909,-0.5643,-1.1318,0.3289,71,13.72,264,8.3959,-2.4521,-20.2937,0.4494,0.9249,-0.6235,40,82095.322,1587532,-0.9649,4.713,-3.1551,0.4253,-1.2974,-1.0746,47
13.575,262,-1.1205,-1.2185,-23.9893,0.2566,-0.6306,0.7892,75,14.703,261,-0.5703,6.5676,-4.2075,-0.0572,-0.4656,-0.7484,86,13.354,257,11.6563,-3.8111,-12.9195,-0.6216,-1.4994,0.5486,71,13.772,265,6.7746,-4.9309,-17.8065,-0.347,0.4755,-0.0227,40,82095.373,1587533,-1.1926,3.5542,-4.305,-0.3675,-0.8129,-1.4604,47
13.627,263,1.1849,-0.724,-22.6729,0.2723,-1.1295,0.5805,75,14.755,262,-0.1935,6.8865,-4.0385,0.1492,-0.374,-0.5905,86,13.405,258,11.591,-3.552,-12.8024,-0.8451,-1.7599,0.6654,71,13.824,266,7.0979,-3.2616,-16.8739,0.4214,-0.0625,-0.0085,40,82095.425,1587534,-1.3377,2.6735,-5.1304,-0.9461,-0.4866,-1.7419,47
13.679,264,2.2634,-0.3551,-20.7498,0.5067,-1.4937,0.4614,75,14.807,263,-0.0282,7.0563,-3.6013,0.2671,-0.2404,-0.4111,86,13.457,259,10.1802,-2.8688,-11.712,-0.4764,-1.4125,0.4084,71,13.876,267,8.4022,-2.2733,-15.0334,-0.3562,-0.385,0.2754,40,82095.477,1587535,-1.3817,1.9651,-5.8405,-1.3684,-0.2798,-1.9474,47
13.731,265,1.3879,-0.1884,-18.4753,0.3328,-1.373,0.4157,75,14.858,264,-0.0598,7.1799,-2.9249,0.3491,-0.0981,-0.2037,86,13.509,260,8.9821,-2.7318,-10.4474,0.1074,-0.6863,-0.0822,71,13.927,268,8.5987,-1.9036,-14.1903,0.1144,-0.5364,0.2493,40,82095.529,1587536,-1.0036,1.4724,-6.0674,-0.3248,0.4845,-1.6393,47
13.782,266,-1.2042,-0.4934,-16.9135,0.1622,-0.8951,0.3042,75,14.91,265,-0.2916,6.8568,-2.4111,0.0633,0.0485,0.0393,86,13.561,261,8.922,-2.0952,-10.0962,0.2553,0.1775,-0.6202,71,13.979,269,8.6145,-0.7677,-13.7841,0.0415,-0.5587,0.331,40,82095.58,1587537,-0.5905,1.2362,-5.7436,0.4368,1.0423,-1.4143,47
13.834,267,-2.3063,-1.5878,-15.8806,0.0686,-0.5052,0.1368,75,14.962,266,-1.1831,6.1241,-2.5033,-0.0286,0.0794,0.3572,86,13.613,262,9.2271,-2.6235,-10.2633,0.3473,0.8079,-0.9631,71,14.031,270,8.4479,-0.8745,-13.4511,0.0387,-0.5054,0.3578,40,82095.632,1587538,-0.2733,1.0581,-5.4983,0.9927,1.4493,-1.2496,47
13.886,268,-3.8536,-1.9496,-15.6422,0.5006,-0.2043,0.0663,75,15.014,267,-1.67,6.9581,-1.5238,0.2492,0.097,0.5056,86,13.664,263,11.2754,-2.1296,-11.575,0.4098,1.268,-1.2207,71,14.083,271,8.6286,0.0553,-13.0957,0.0983,-0.4926,0.3654,40,82095.684,1587539,-0.0388,0.9273,-5.3042,1.3984,1.7465,-1.1291,47
13.938,269,-2.8017,-2.5007,-13.15,0.4431,0.1515,0.0986,75,15.066,268,-1.8059,6.9617,-1.7826,0.1007,0.1596,0.4162,86,13.716,264,12.8736,-2.2063,-13.1782,-0.0817,1.6038,-1.3275,71,14.135,272,8.3571,-0.3744,-12.908,0.0155,-0.5013,0.4022,40,82095.736,1587540,0.1333,0.8345,-5.1452,1.6945,1.9633,-1.0414,47
13.99,270,-0.1103,-0.8064,-16.6899,0.4982,0.793,-0.1711,75,15.117,269,-1.7806,7.2189,-2.2332,0.1132,0.1519,0.2729,86,13.768,265,11.5489,-2.7198,-14.5358,-0.5007,1.8489,-1.3276,71,14.186,273,8.8019,0.3802,-12.5077,-0.0057,-0.6799,0.4604,40,82095.787,1587541,0.2545,0.7815,-5.0065,1.9106,2.1216,-0.977,47
14.041,271,0.5135,-1.7124,-14.3705,0.5632,1.196,0.0995,75,15.169,270,-1.5695,7.481,-2.3893,0.263,0.2519,0.0787,86,13.82,266,8.7048,-3.485,-15.7014,-0.995,1.8923,-1.1266,71,14.238,274,9.1524,0.3568,-12.3139,0.0242,-0.8775,0.5727,40,82095.839,1587542,0.323,0.7433,-4.8922,2.0683,2.2371,-0.9306,47
14.093,272,3.915,-3.2202,-18.4847,0.8928,1.5553,0.055,75,15.221,271,-1.5603,6.8411,-2.7335,0.0802,0.3226,-0.1105,86,13.872,267,7.1926,-3.8932,-17.7626,-1.0245,0.7274,-0.734,71,14.29,275,8.7322,0.3085,-12.9019,0.0489,-1.0088,0.7207,40,82095.891,1587543,0.3588,0.721,-4.7974,2.1834,2.3214,-0.8973,47
14.145,273,4.0663,-3.7616,-21.4875,-0.0258,0.6994,0.6469,75,15.273,272,-1.8093,6.1729,-3.1497,0.0111,0.3337,-0.1344,86,13.923,268,7.0122,-1.0015,-20.9345,-1.4229,-0.1421,-0.4263,71,14.341,276,8.7356,-0.1414,-13.5403,0.1885,-1.049,0.7923,40,82095.942,1587544,3.2264,-0.9914,-5.3841,2.2674,2.3829,-0.842,47
14.197,274,4.0507,-1.5744,-23.6157,-0.6027,0.158,0.9118,75,15.324,273,-2.1652,6.035,-3.3364,0.191,0.2749,-0.0391,86,13.975,269,10.3826,-1.3788,-12.6949,-0.7561,-0.6352,0.3041,71,14.393,277,10.4313,-0.7706,-14.0917,0.4468,-1.2916,0.9293,40,82095.994,1587545,5.7727,-3.7042,-9.679,2.3288,1.9062,-0.3983,47
14.249,275,2.0644,-1.1911,-23.7217,-0.6815,0.1231,1.0911,75,15.376,274,-2.4891,6.3372,-3.1998,0.3026,0.1506,0.0091,86,14.027,270,8.5991,-2.909,-13.938,-0.8639,-0.9836,0.3194,71,14.445,278,12.0966,-0.0626,-14.2501,0.6448,-1.6094,1.1909,40,82096.046,1587546,3.9592,-2.451,-9.2518,2.3735,0.9461,0.385,47
14.301,276,-1.4394,-0.4382,-23.2693,-0.5068,-0.4261,1.209,75,15.428,275,-2.8134,6.1253,-3.241,0.1698,0.037,-0.0372,86,14.079,271,8.7941,-3.7177,-12.791,-0.3128,-1.298,0.2622,71,14.497,279,11.4004,0.1042,-13.7826,1.1104,-1.5346,1.4916,40,82096.098,1587547,2.6257,-1.4752,-8.9603,2.4062,0.2335,0.9567,47
14.352,277,-3.7694,0.4258,-22.0671,-0.1214,-0.9803,0.8097,75,15.48,276,-2.9824,5.7153,-3.4568,-0.0174,-0.1062,-0.0838,86,14.131,272,7.9507,-3.5069,-12.7472,-0.718,-1.1754,0.2652,71,14.549,280,8.8256,0.7915,-13.7343,0.4688,-0.9711,1.5536,40,82096.149,1587548,1.6682,-0.6486,-8.7298,2.43,-0.301,1.3739,47
14.404,278,-3.4639,2.2759,-20.3464,0.287,-1.3848,0.1485,75,15.531,277,-2.928,5.7165,-3.4389,-0.1327,-0.2068,-0.106,86,14.182,273,8.4315,-3.1524,-12.5564,-0.5181,-1.0955,0.2905,71,14.6,281,8.5149,1.5922,-12.4305,-0.2385,-0.3275,1.3073,40,82096.201,1587549,1.4892,-0.2608,-4.4308,2.4474,-0.3603,0.5973,47
14.456,279,-0.9772,3.1593,-18.4513,0.0714,-1.68,-0.5667,75,15.583,278,-2.515,6.7901,-2.8985,-0.0855,-0.2509,0.0291,86,14.234,274,8.0013,-3.6884,-12.4102,-0.8743,-0.8227,0.5394,71,14.653,282,7.9797,0.8939,-12.7063,-0.3867,0.4459,0.9891,40,82096.253,1587550,1.3767,-0.0702,-5.1332,2.4601,-0.4,0.0301,47
14.508,280,1.4354,1.6205,-15.8292,-0.2012,-1.0826,-1.0695,75,15.635,279,-2.0217,8.484,-2.4929,0.5715,-0.052,0.2302,86,14.286,275,8.0804,-3.8856,-12.3127,-0.715,-0.8476,0.5681,71,14.704,283,8.192,1.8548,-13.1464,-0.1483,1.0104,0.4569,40,82096.305,1587551,1.3021,0.0549,-5.6092,2.4694,-0.4223,-0.3843,47
14.559,281,1.1241,-2.1189,-13.7245,-0.2401,-0.1077,-0.7386,75,15.687,280,-1.2088,9.2922,-2.1585,0.5392,-0.0612,0.0782,86,14.338,276,7.968,-4.0464,-12.4339,-0.5506,-0.9089,0.4282,71,14.756,284,9.3513,2.7,-14.6756,-0.7853,1.4224,-0.005,40,82096.357,1587552,1.2348,0.1355,-5.9642,2.4761,-0.4339,-0.6866,47
14.611,282,2.2596,-3.0837,-11.4881,0.2103,0.6038,0.1376,75,15.739,281,-1.0105,8.3345,-2.7976,0.1136,-0.1639,-0.1361,86,14.389,277,8.5948,-3.8454,-12.654,-0.3935,-0.9579,0.3366,71,14.808,285,10.1353,4.0219,-16.415,-1.2502,1.7231,-0.3395,40,82096.408,1587553,1.1875,0.1963,-6.2467,2.4811,-0.4369,-0.909,47
14.663,283,-1.5891,-6.3854,-9.0729,-0.5239,1.1231,0.7771,75,15.79,282,-0.9101,8.0313,-3.1338,0.0795,-0.2032,-0.1998,86,14.441,278,8.7139,-3.7993,-12.9472,-0.3598,-0.9638,0.4274,71,14.86,286,11.5521,3.885,-17.4298,-1.5895,1.9426,-0.8755,40,82096.46,1587554,1.1489,0.2267,-6.4595,2.4847,-0.4342,-1.0724,47
14.715,284,1.1608,-4.1625,-10.1371,0.292,1.5021,1.2208,75,15.842,283,-0.9128,8.0311,-3.2759,-0.0453,-0.1077,-0.2634,86,14.493,279,8.457,-4.2869,-13.2131,-0.3868,-0.9825,0.4618,71,14.912,287,12.6063,-1.4448,-20.1933,-1.168,2.1027,-1.3104,40,82096.512,1587555,1.1089,0.2428,-6.6255,2.4873,-0.4262,-1.1928,47
14.767,285,3.9959,2.352,-15.395,-0.4642,1.3284,1.3296,75,15.894,284,-0.8822,7.8168,-3.6899,-0.2055,0.0515,-0.2899,86,14.545,280,9.4751,-4.0446,-13.6311,-0.3805,-1.2288,0.5342,71,14.963,288,10.4946,-0.3449,-22.7176,-0.8895,1.7293,-1.2704,40,82096.564,1587556,1.0817,0.2494,-6.7307,2.4892,-0.4177,-1.2801,47
14.818,286,7.5039,2.0475,-18.5139,0.0099,0.3002,0.488,75,15.946,285,-0.846,7.7076,-4.062,-0.1485,0.2533,-0.2023,86,14.597,281,11.3005,-3.9949,-13.3935,-0.4287,-1.4145,0.655,71,15.015,289,11.9061,3.4759,-15.2856,-0.5389,0.5953,-0.7101,40,82096.615,1587557,6.1478,5.5131,-3.7381,2.4317,0.3032,-1.5577,47
14.87,287,7.0576,1.3099,-18.7391,-0.6526,-0.2165,-0.2964,75,15.998,286,-0.9738,7.5332,-4.2842,-0.0922,0.3665,-0.0657,86,14.649,282,10.036,-3.7189,-14.1708,-0.6905,-1.3357,0.7776,71,15.067,290,13.8069,2.6648,-8.5484,-0.9447,-0.2323,-0.0773,40,82096.667,1587558,1.7418,2.0903,-0.2874,1.7956,0.9099,-1.4789,47
14.922,288,4.9313,1.1787,-18.4736,-0.1709,-0.224,-0.5733,75,16.05,287,-1.2425,7.169,-4.386,-0.0668,0.3848,0.0389,86,14.7,283,9.2781,-4.1596,-13.6176,-0.9762,-1.0363,0.8446,71,15.119,291,15.1942,0.9815,-9.0493,-0.504,-0.8363,0.0167,40,82096.719,1587559,1.2512,1.8877,-1.9775,0.637,1.3528,-1.7554,47
14.974,289,0.7778,-0.1306,-18.441,-0.3778,-0.1156,-0.4782,75,16.102,288,-1.3669,6.8424,-4.2095,-0.2646,0.3812,0.1444,86,14.752,284,9.0348,-2.7919,-12.562,-1.3174,-0.3492,0.8632,71,15.171,292,13.5159,-0.0048,-9.9497,-0.7397,-0.87,0.1596,40,82096.771,1587560,0.9212,1.7151,-3.2517,-0.2128,1.676,-1.9572,47
15.025,290,-1.0503,-0.8632,-17.6839,-0.3975,-0.7537,-0.3722,75,16.153,289,-1.4429,6.5512,-4.1953,-0.4625,0.4573,0.3819,86,14.804,285,8.865,-2.3099,-12.2727,-1.538,0.4233,0.777,71,15.222,293,12.4528,0.4817,-9.8082,-0.477,-0.8258,0.204,40,82096.822,1587561,0.1425,0.8874,-4.7945,0.5186,1.7216,-1.0474,47
15.077,291,-2.7425,-0.7231,-17.0266,0.1261,-1.2194,-0.4859,75,16.205,290,-1.3569,6.6718,-4.0892,-0.3782,0.5658,0.7592,86,14.856,286,9.0235,-1.1168,-11.8284,-1.3748,0.9873,0.5831,71,15.274,294,10.8761,0.2293,-10.5461,-0.6932,-0.6509,0.2651,40,82096.874,1587562,0.0095,0.6271,-5.5155,1.0524,1.7577,-0.3828,47
15.129,292,-3.1241,-1.2093,-15.8706,0.2066,-1.5593,-0.799,75,16.257,291,-1.5564,7.273,-3.5427,-0.3216,0.6368,1.1746,86,14.908,287,9.5389,-0.6125,-11.9889,-1.0053,1.3989,0.2529,71,15.326,295,10.3084,0.6908,-10.2192,-0.623,-0.5634,0.1591,40,82096.926,1587563,-0.0821,0.449,-5.9829,1.4419,1.7739,0.1005,47
15.181,293,-3.5916,-1.2182,-16.1245,0.5921,-1.5829,-0.933,75,16.309,292,-2.1674,7.9701,-2.7095,-0.0945,0.7073,1.4221,86,14.959,288,10.5635,-0.5646,-13.5045,-0.7633,1.6994,-0.1247,71,15.378,296,9.2285,0.4944,-10.5729,-0.5372,-0.4573,0.102,40,82096.978,1587564,-0.1466,0.3144,-6.3144,1.7263,1.7726,0.4521,47
15.233,294,-2.6004,-1.2317,-14.0149,0.3506,-1.771,-0.9066,75,16.361,293,-2.0387,8.5962,-1.9885,-0.0973,0.7353,1.3782,86,15.012,289,10.7432,-1.5545,-16.5247,0.0961,1.9186,-0.702,71,15.43,297,8.9096,0.4469,-10.7535,-0.3241,-0.3994,0.0505,40,82097.029,1587565,-0.1841,0.2092,-6.5411,1.9338,1.7619,0.7072,47
15.284,295,3.1597,-2.1053,-9.1988,0.4808,-0.6896,-0.5576,75,16.412,294,-2.2882,8.2511,-2.0279,-0.1358,0.658,1.1263,86,15.063,290,8.2427,-4.4647,-19.8963,0.6908,1.5241,-0.7221,71,15.481,298,8.6847,0.3028,-10.9448,-0.1177,-0.4182,0.07,40,82097.081,1587566,-0.2264,0.1439,-6.6938,2.0852,1.7425,0.8929,47
15.336,296,2.3189,-1.3877,-14.7102,-0.3264,0.1791,-0.175,75,16.464,295,-1.6663,7.8999,-2.0465,-0.1529,0.5096,0.7544,86,15.115,291,7.2063,-2.806,-19.8671,-0.1018,0.5164,-0.2419,71,15.533,299,8.6108,0.8068,-10.9614,0.0572,-0.4709,0.2137,40,82097.133,1587567,-0.2618,0.1014,-6.8086,2.1958,1.7179,1.0276,47
15.388,297,4.9463,-2.5473,-18.7327,0.4362,0.8131,0.5383,75,16.516,296,-0.8977,7.0667,-2.1785,-0.3347,0.4856,0.4835,86,15.167,292,8.0565,0.6032,-16.0556,0.6022,0.2955,-0.2876,71,15.585,300,8.7156,-0.0439,-11.1991,0.0741,-0.6141,0.3878,40,82097.185,1587568,-0.2903,0.0757,-6.8617,2.2765,1.6882,1.1241,47
15.44,298,4.6554,1.4502,-21.6684,-0.359,1.0096,0.6282,75,16.568,297,-0.5863,6.2262,-2.4009,-0.2134,0.5434,0.5111,86,15.218,293,8.2415,-0.0513,-15.0607,0.0088,0.4338,0.0392,71,15.637,301,9.7286,0.2329,-12.1762,0.3109,-0.7091,0.5006,40,82097.236,1587569,-0.2991,0.0618,-6.9034,2.3353,1.6568,1.1941,47
15.492,299,3.4037,2.0747,-23.1091,-0.3534,0.0675,0.4015,75,16.62,298,-0.9509,5.6931,-2.5079,-0.0693,0.6135,0.5908,86,15.27,294,9.143,-0.4317,-14.0403,0.4137,0.0185,0.1304,71,15.689,302,9.9367,-0.6097,-12.331,0.3529,-0.7076,0.5222,40,82097.288,1587570,5.0509,-4.8895,-13.0639,2.3779,1.2929,1.322,47
15.543,300,-0.0748,1.063,-23.4787,-0.7064,-0.1298,-0.24,75,16.671,299,-1.2067,5.5115,-2.7679,-0.0359,0.6982,0.6533,86,15.322,295,9.1396,-1.4473,-13.5832,0.2504,-0.13,0.1754,71,15.74,303,10.4199,-0.2622,-12.1194,0.4022,-0.7598,0.5851,40,82097.34,1587571,4.2389,-4.7602,-14.2957,2.0857,0.3057,1.5894,47
15.595,301,-1.5522,1.2784,-23.2536,-0.1032,-0.764,-0.6075,75,16.723,300,-1.2354,5.7707,-3.0507,0.0467,0.7653,0.7362,86,15.374,296,9.3442,-1.3857,-12.9982,0.2521,-0.1881,0.2175,71,15.792,304,11.3551,-0.3201,-12.1896,0.5361,-1.0487,0.7285,40,82097.392,1587572,3.173,-3.1297,-12.5393,1.6365,-0.44,1.8357,47
15.647,302,-1.7841,1.6065,-21.7204,0.5974,-1.227,-0.9216,75,16.775,301,-1.3184,5.9666,-3.1966,0.0161,0.7574,0.7819,86,15.426,297,9.2197,-1.617,-12.7294,0.1841,-0.1925,0.2694,71,15.844,305,11.7518,0.3122,-12.0372,0.8189,-1.3572,0.8863,40,82097.443,1587573,2.4356,-1.9102,-11.21,1.2889,-0.9842,2.0154,47
15.699,303,-1.3698,1.9146,-19.3859,0.7463,-1.5648,-1.1016,75,16.827,302,-1.4477,5.9024,-3.3672,-0.0987,0.6949,0.8748,86,15.477,298,9.1906,-1.7647,-12.3303,0.0856,-0.2128,0.3218,71,15.896,306,10.5219,1.2141,-12.5853,1.0302,-1.4935,0.8124,40,82097.495,1587574,2.5393,-1.7591,-12.7645,1.0465,-0.7786,1.3058,47
15.751,304,-0.8384,0.8086,-17.2437,0.8924,-1.6396,-0.994,75,16.878,303,-1.5028,6.2524,-3.2411,0.2572,0.6436,1.063,86,15.529,299,9.1597,-1.991,-12.2101,0.0069,-0.2837,0.3352,71,15.948,307,9.8487,2.8021,-10.117,0.6102,-0.966,0.0798,40,82097.547,1587575,2.4248,-1.5559,-11.4804,1.4376,-1.2313,0.3605,47
15.802,305,-0.0444,0.4585,-15.42,1.0845,-1.282,-0.6049,75,16.93,304,-0.5597,7.5266,-2.167,0.3998,0.625,1.2749,86,15.581,300,9.0159,-2.1559,-12.274,-0.063,-0.3723,0.3424,71,15.999,308,10.0473,2.3015,-9.011,0.2679,-0.0614,-0.6132,40,82097.599,1587576,2.3246,-1.376,-10.455,1.7231,-1.5618,-0.4129,47
15.854,306,0.3534,0.7063,-14.4436,0.8295,-0.3893,-0.0886,75,16.982,305,0.3971,8.4423,-1.2656,0.1881,0.8519,1.4293,86,15.633,301,8.8887,-2.31,-12.2823,-0.1787,-0.462,0.3803,71,16.051,309,10.6726,1.2989,-8.8648,0.1159,0.6402,-1.1189,40,82097.65,1587577,2.2544,-1.2262,-9.7137,1.9315,-1.8029,-0.9774,47
15.906,307,0.2585,0.9191,-12.9251,0.0779,0.3962,0.5508,75,17.034,306,-0.2404,7.732,-1.8494,0.2125,0.9746,1.3922,86,15.685,302,8.5715,-2.4022,-12.0695,-0.3402,-0.6356,0.4321,71,16.103,310,12.1063,0.7099,-10.11,-0.4833,1.1522,-1.4881,40,82097.702,1587578,2.2002,-1.0886,-9.1825,2.0836,-1.9789,-1.3894,47
15.958,308,1.1259,0.3243,-9.4177,-0.3206,0.9715,1.0786,75,17.086,307,-0.8344,7.6601,-2.4742,0.0871,0.7664,1.205,86,15.736,303,8.858,-2.6628,-12.6774,-0.3887,-1.0047,0.4907,71,16.155,311,12.0283,-0.3155,-13.3784,-1.0298,1.5259,-1.64,40,82097.754,1587579,2.1684,-0.9783,-8.8105,2.1946,-2.1074,-1.6901,47
16.01,309,-1.5597,2.9462,-9.4666,0.3213,1.3915,1.2697,75,17.138,308,-0.9122,8.2479,-2.5151,0.0926,0.6262,0.9065,86,15.788,304,11.7307,-2.9265,-13.2232,-0.634,-1.4067,0.6726,71,16.207,312,9.1994,-4.1447,-17.3373,-0.4908,0.9747,-1.2797,40,82097.806,1587580,2.1308,-0.887,-8.5533,2.2756,-2.2012,-1.9096,47
16.061,310,0.9384,2.8592,-14.9056,0.9089,1.698,0.974,75,17.189,309,-0.8422,7.8529,-2.8413,-0.0323,0.7499,0.5214,86,15.84,305,12.2814,-2.5678,-12.2373,-1.0349,-1.7,0.99,71,16.259,313,11.8314,-3.1664,-20.6347,-0.8824,0.2,-0.3321,40,82097.858,1587581,2.0944,-0.8246,-8.3656,2.3347,-2.2691,-2.0698,47
16.113,311,2.3076,1.8047,-18.5838,-0.014,0.5699,0.999,75,17.241,310,-0.6028,7.0799,-3.3021,-0.0726,0.9392,0.2342,86,15.892,306,10.3251,-2.4846,-12.8176,-1.3309,-1.5697,1.0671,71,16.31,314,9.3619,-0.3517,-17.2686,-0.4326,-0.2378,0.0378,40,82097.91,1587582,2.0677,-0.7797,-8.2384,2.3778,-2.3156,-2.1867,47
16.165,312,-0.2853,-0.0656,-21.1224,0.2096,-0.1441,0.9497,75,17.293,311,-0.2198,6.731,-3.5443,-0.1943,1.0452,0.1595,86,15.943,307,8.5791,-2.9003,-14.9265,-0.6188,-1.1051,0.8204,71,16.362,315,10.8285,0.7043,-15.357,-0.5035,-0.2774,0.3332,40,82097.961,1587583,6.1617,-1.5932,-7.4429,2.4093,-1.1318,-1.8491,47
16.217,313,-0.219,0.3191,-21.7716,-0.1126,-0.7745,0.7198,75,17.345,312,0.0778,6.8259,-3.4528,-0.1537,1.1293,0.3309,86,15.995,308,8.1571,-1.6561,-13.5267,-0.0323,-0.3059,0.5353,71,16.414,316,10.5867,0.1108,-14.1469,-0.5392,-0.3876,0.3796,40,82098.013,1587584,3.9375,-2.7733,-6.4586,2.1572,-0.1593,-1.1329,47
16.269,314,0.0537,1.5827,-21.4923,0.2125,-1.2346,0.173,75,17.397,313,-0.0292,6.9802,-3.2626,-0.1377,1.27,0.5743,86,16.047,309,8.5439,-0.2805,-13.7811,-0.4229,0.4551,0.2975,71,16.466,317,10.3641,1.0306,-13.3406,-0.4156,-0.459,0.3772,40,82098.065,1587585,2.7715,-2.1475,-7.1659,1.9452,0.5724,-0.5092,47
16.32,315,1.162,2.7672,-19.4022,0.4218,-1.5704,-0.4466,75,17.448,314,-0.3968,6.8711,-3.0247,-0.2599,1.427,0.8184,86,16.099,310,8.9899,-1.165,-13.6541,-0.8592,1.0105,0.0958,71,16.517,318,10.1689,0.7628,-12.7932,-0.3106,-0.4743,0.3582,40,82098.117,1587586,1.7862,-1.6858,-7.8573,1.7988,1.1064,-0.0554,47
16.372,316,1.2958,3.3751,-16.4935,-0.2206,-1.7974,-0.8662,75,17.5,315,-0.964,6.6232,-3.1979,-0.4187,1.4665,1.1818,86,16.151,311,9.5426,-1.2472,-14.0003,-0.0711,1.4159,-0.2791,71,16.569,319,9.9537,0.3511,-12.6253,-0.1249,-0.5119,0.2787,40,82098.168,1587587,1.1373,-1.4165,-12.3168,1.3189,0.1444,-0.5145,47
16.424,317,-1.5086,1.2817,-13.7791,-0.7855,-1.163,-1.3069,75,17.552,316,-1.7459,6.5622,-3.02,-0.1901,1.4382,1.3697,86,16.203,312,10.3242,-1.7383,-14.2409,0.6246,1.7117,-0.7873,71,16.621,320,9.5924,0.6398,-12.5866,0.0472,-0.5212,0.2358,40,82098.22,1587588,0.8889,-1.3999,-10.5331,0.9787,-0.5577,-0.9824,47
16.476,318,-3.491,-1.1265,-12.245,-0.9413,-0.9112,-1.3118,75,17.604,317,-2.0836,6.9285,-2.08,-0.1205,1.3125,1.4165,86,16.254,313,10.8188,-2.567,-14.3746,1.1324,1.9276,-1.2463,71,16.673,321,9.2749,0.5388,-12.649,0.0343,-0.4949,0.2704,40,82098.272,1587589,0.7136,-1.3846,-9.2017,0.7481,-1.0701,-1.3452,47
16.528,319,-3.8422,-2.0474,-11.4016,-0.5428,-0.3346,-0.8032,75,17.656,318,-2.3848,6.6575,-1.7175,-0.1978,1.2621,1.3291,86,16.306,314,10.4159,-3.8288,-14.6018,1.503,2.0288,-1.5332,71,16.725,322,9.1862,0.438,-12.5952,0.0014,-0.4783,0.3249,40,82098.324,1587590,0.5865,-1.3794,-8.2031,0.6017,-1.4441,-1.6116,47
16.579,320,-1.8565,-1.4921,-10.3502,-0.5553,0.3027,-0.0473,75,17.708,319,-2.8562,5.9206,-2.1627,-0.3307,0.9727,1.1893,86,16.358,315,8.8647,-4.1394,-15.4159,1.7293,1.8195,-1.4265,71,16.776,323,8.4521,0.1274,-12.6815,0.0165,-0.3878,0.3662,40,82098.375,1587591,0.5036,-1.3816,-7.4619,0.5137,-1.7171,-1.8072,47
16.631,321,2.6826,2.0024,-7.2215,-0.8668,0.9034,0.3355,75,17.759,320,-2.9747,5.6765,-2.205,-0.2549,0.6669,0.9895,86,16.41,316,8.453,-3.8905,-15.5143,1.2935,0.8278,-0.6238,71,16.828,324,8.8043,-0.3261,-12.774,0.1808,-0.4548,0.359,40,82098.427,1587592,0.455,-1.3835,-6.9191,0.4702,-1.9163,-1.9502,47
16.683,322,0.9227,3.7835,-8.5551,-0.7858,1.3417,0.1569,75,17.811,321,-2.7312,5.5186,-2.1364,-0.3912,0.6048,0.8004,86,16.462,317,10.6241,-6.6114,-16.4385,0.5848,-0.0692,0.0623,71,16.88,325,8.8623,-0.3005,-13.1848,0.3057,-0.5513,0.4387,40,82098.479,1587593,0.4352,-1.3835,-6.5086,0.4562,-2.0617,-2.0544,47
16.734,323,5.731,5.9685,-11.0349,-0.2079,1.5536,0.0859,75,17.863,322,-2.4319,5.1679,-2.2449,-0.2961,0.7444,0.7392,86,16.513,318,9.485,-4.9016,-16.0417,0.3643,-0.28,0.4961,71,16.932,326,9.2278,-0.2164,-13.4434,0.4324,-0.6439,0.6035,40,82098.53,1587594,0.4504,-1.3909,-6.2046,0.4671,-2.1678,-2.1301,47
16.786,324,5.0311,6.2546,-16.0502,-0.1579,0.4646,0.6531,75,17.915,323,-2.17,5.0143,-2.4454,-0.1972,0.8496,0.7831,86,16.565,319,9.5788,-3.0782,-14.3607,0.3586,-0.3865,0.7109,71,16.983,327,9.4138,-0.6645,-13.6797,0.512,-0.8654,0.7518,40,82098.582,1587595,-4.0054,2.1908,-10.492,0.4984,-2.2452,-2.1809,47
16.838,325,3.8269,4.7051,-18.7598,-0.6463,-0.3303,0.4206,75,17.966,324,-2.2166,5.0003,-2.5488,-0.1699,0.8485,0.9167,86,16.617,320,9.5805,-2.536,-13.7109,0.2677,-0.3834,0.844,71,17.035,328,10.749,-0.3446,-14.2096,0.8512,-1.1682,0.7453,40,82098.634,1587596,-8.1549,2.7765,-15.6831,0.4517,-2.2725,-1.832,47
16.89,326,2.2045,5.685,-17.5019,-0.3668,-0.9104,-0.2394,75,18.018,325,-2.4269,5.0831,-2.4822,-0.1534,0.8206,1.1204,86,16.669,321,9.2916,-2.5517,-13.4739,0.1508,-0.4163,0.8299,71,17.087,329,11.1645,0.5479,-14.0739,1.2959,-1.4739,0.6471,40,82098.686,1587597,-5.8759,1.9294,-13.8253,0.4932,-0.9699,-1.2177,47
16.942,327,1.3275,5.5357,-15.5361,-0.1581,-1.3338,-0.8498,75,18.07,326,-2.514,5.3747,-2.1572,-0.0972,0.8774,1.3059,86,16.721,322,9.3455,-2.1945,-13.2644,0.1996,-0.4488,0.683,71,17.139,330,10.0876,1.1563,-13.3251,1.6205,-1.4678,0.2715,40,82098.737,1587598,-4.1041,1.3253,-12.412,0.5247,-0.0192,-0.7654,47
16.993,328,-0.2278,4.8907,-13.6009,-0.3754,-1.2035,-1.2954,75,18.122,327,-2.4641,5.5742,-2.0477,-0.2023,0.9934,1.4503,86,16.772,323,9.0812,-2.1018,-13.248,0.1589,-0.2658,0.5846,71,17.19,331,9.6898,2.2111,-11.8635,0.6907,-1.5239,-0.0117,40,82098.789,1587599,2.363,1.6065,-8.6267,0.4509,0.1212,-0.5681,47
17.045,329,-2.1593,1.9347,-13.2193,-0.3981,-0.8409,-1.6205,75,18.174,328,-2.3844,5.955,-1.8901,-0.2105,1.0692,1.6108,86,16.824,324,9.2441,-1.919,-12.5158,0.0698,-0.1249,0.5874,71,17.242,332,9.3445,-0.17,-11.2827,-0.173,-1.0603,-0.4565,40,82098.841,1587600,1.9666,1.0975,-8.3947,0.9297,-0.3725,-0.4714,47
17.097,330,-3.5684,0.7058,-12.9436,-0.0121,-0.8358,-1.426,75,18.226,329,-2.0368,6.7181,-1.8001,0.2445,1.141,1.6835,86,16.876,325,9.1046,-2.029,-11.889,0.0804,-0.2168,0.545,71,17.294,333,9.4418,-1.4285,-10.5966,0.1769,-0.2667,-1.0046,40,82098.893,1587601,1.5824,0.7906,-8.5024,1.3491,-0.7273,-0.5815,47
17.149,331,-3.8026,0.9726,-13.7005,-0.2102,-0.6596,-1.1445,75,18.277,330,-1.3756,7.5461,-0.9238,0.3578,1.023,1.5432,86,16.928,326,9.1776,-1.8228,-11.8689,0.115,-0.4284,0.5577,71,17.346,334,9.5289,-1.4701,-9.9313,0.5274,0.4712,-1.4046,40,82098.944,1587602,1.3011,0.5695,-8.5724,1.6585,-0.983,-0.6658,47
17.201,332,-2.8157,1.1337,-11.3358,-0.0662,-0.3464,-0.926,75,18.329,331,-1.0883,7.1681,-0.4543,-0.3342,0.9162,1.374,86,16.979,327,8.885,-2.0698,-12.3427,0.0847,-0.583,0.5829,71,17.398,335,9.8449,-4.002,-10.8377,0.277,1.0261,-1.6965,40,82098.996,1587603,1.1045,0.4141,-8.6186,1.8843,-1.1658,-0.7265,47
17.253,333,-5.8754,2.3568,-5.6822,-0.2614,0.0719,-0.994,75,18.381,332,-1.5913,6.3199,-0.9756,-0.4316,0.8144,1.329,86,17.031,328,8.5681,-2.1055,-12.8085,-0.014,-0.7182,0.6339,71,17.449,336,8.3798,-3.0466,-12.5386,0.8768,1.3987,-1.9096,40,82099.048,1587604,0.9614,0.2955,-8.6508,2.0491,-1.2966,-0.77,47
17.305,334,-2.1676,3.7185,-4.091,-0.7688,0.7349,-1.1854,75,18.433,333,-2.2329,6.3066,-1.5086,-0.2851,0.7306,1.2199,86,17.083,329,9.4247,-2.6131,-13.556,-0.0704,-1.0189,0.6129,71,17.501,337,7.3264,-5.1027,-16.9644,1.3146,1.4679,-2.0651,40,82099.1,1587605,0.8585,0.2237,-8.6812,2.1694,-1.3887,-0.8016,47
17.356,335,3.4756,5.809,-10.9823,-1.2385,1.2188,-0.8793,75,18.485,334,-2.6822,6.5433,-2.0488,-0.1055,0.6689,0.9613,86,17.135,330,11.1061,-2.4294,-13.7715,0.0946,-1.417,0.5653,71,17.553,338,10.4644,-9.021,-15.7284,1.4635,1.025,-1.2192,40,82099.151,1587606,0.7876,0.181,-8.7082,2.2572,-1.4521,-0.825,47
17.408,336,3.5511,4.9068,-16.0119,-0.515,0.5635,-0.7362,75,18.536,335,-2.7782,6.6007,-2.2667,0.0734,0.6985,0.5895,86,17.187,331,12.3291,-1.5552,-13.621,0.1707,-1.7076,0.404,71,17.605,339,11.9112,-11.8807,-15.576,0.7371,0.6937,-0.5768,40,82099.203,1587607,-0.1084,-3.051,-4.3149,1.9467,-1.2015,-0.9906,47
17.46,337,1.5467,1.8697,-19.242,-0.6083,-0.143,-0.1903,75,18.588,336,-2.7195,6.2606,-2.3209,0.097,0.775,0.2448,86,17.238,332,11.8671,-0.2529,-12.6722,0.7335,-1.903,-0.2957,71,17.657,340,13.8106,-8.0707,-14.3467,0.3339,-0.008,-0.3019,40,82099.255,1587608,-5.3107,-7.398,-6.5514,1.6783,-0.9384,-1.3922,47
17.511,338,0.6685,3.6083,-19.7472,-0.1693,-0.7737,0.037,75,18.64,337,-2.8175,5.6484,-2.3463,0.106,0.8642,0.0487,86,17.29,333,11.8122,0.2484,-11.5821,0.5283,-1.9429,-0.8898,71,17.708,341,12.6752,-6.032,-14.0364,0.078,-0.0333,0.0149,40,82099.307,1587609,-3.8132,-5.2432,-7.2369,0.731,-0.136,-1.3453,47
17.563,339,-1.1673,3.0459,-18.8865,-0.265,-1.234,-0.4456,75,18.692,338,-2.8259,5.2869,-2.3783,0.0987,0.924,0.0035,86,17.342,334,11.5721,-1.4111,-9.493,0.8509,-1.277,-1.3235,71,17.76,342,11.5004,-4.0864,-13.9987,0.0277,0.0062,0.2633,40,82099.359,1587610,-2.6952,-3.6256,-7.7241,0.027,0.4536,-1.3065,47
17.615,340,-2.9992,2.5691,-18.6864,0.4068,-1.57,-0.8605,75,18.744,339,-2.6638,5.137,-2.3041,-0.1043,0.8533,0.0913,86,17.394,335,11.4778,-2.0216,-8.2486,1.2204,-0.2664,-1.6399,71,17.812,343,10.5362,-2.8472,-13.9965,-0.081,0.1481,0.4588,40,82099.411,1587611,-1.8305,-2.3449,-8.0679,-0.4921,0.8821,-1.2783,47
17.667,341,-3.2687,3.0827,-18.7611,0.8549,-1.8152,-1.1201,75,18.795,340,-2.636,5.0349,-2.1668,-0.2881,0.7367,0.332,86,17.446,336,11.8143,-2.6865,-8.5265,1.2756,0.4839,-1.8709,71,17.864,344,9.908,-2.1641,-13.6451,-0.2526,0.2811,0.516,40,82099.462,1587612,-1.0853,-1.8549,-7.9378,0.3148,0.2463,-1.0928,47
17.719,342,-2.1362,4.2255,-18.0628,0.3558,-1.9941,-1.2583,75,18.847,341,-2.9153,5.0345,-2.1679,-0.3834,0.5784,0.7231,86,17.497,337,13.2416,-4.7172,-10.0411,1.5021,1.0315,-2.0395,71,17.916,345,9.8234,-1.355,-12.6445,-0.175,0.2139,0.4361,40,82099.514,1587613,-0.6433,-1.3254,-8.1495,0.9036,-0.2161,-0.958,47
17.77,343,-0.4215,4.162,-16.0643,-0.3734,-2.0867,-1.2676,75,18.899,342,-3.1051,5.5011,-2.0042,0.0225,0.55,1.0826,86,17.549,338,12.7676,-7.959,-11.4453,1.7729,1.4312,-2.1625,71,17.967,346,9.1753,-0.6853,-12.3928,0.087,0.07,0.4849,40,82099.566,1587614,-0.3258,-0.922,-8.2872,1.3334,-0.552,-0.8593,47
17.822,344,-0.0613,3.3173,-14.8234,-0.9499,-1.28,-1.4296,75,18.951,343,-3.3438,6.1534,-1.1324,0.3417,0.5184,1.0205,86,17.601,339,10.716,-8.4022,-13.0399,1.968,1.7202,-1.5727,71,18.019,347,8.9785,-0.3622,-12.384,0.2831,-0.1099,0.6115,40,82099.618,1587615,-0.1078,-0.6342,-8.3997,1.647,-0.7958,-0.7876,47
17.874,345,5.0129,5.4971,-18.8153,-0.9924,-1.1736,-0.8601,75,19.003,344,-2.9902,6.4682,-0.8701,-0.1186,0.4217,0.7534,86,17.653,340,13.0491,-4.0653,-6.933,1.1689,0.634,-0.5223,71,18.071,348,8.6528,-0.5123,-12.6818,0.3449,-0.2069,0.7597,40,82099.669,1587616,0.046,-0.4159,-8.4882,1.876,-0.9727,-0.7355,47
17.926,346,3.4722,5.0437,-19.1338,-0.7964,-0.1741,-0.7801,75,19.055,345,-2.9848,6.005,-1.5502,-0.0942,0.3188,0.5897,86,17.705,341,11.65,-1.4099,-8.4928,0.9824,0.3259,0.2074,71,18.123,349,9.365,-0.1754,-13.0068,0.5226,-0.3423,0.9854,40,82099.721,1587617,0.155,-0.2542,-8.5649,2.043,-1.1013,-0.6981,47
17.977,347,3.5123,3.9456,-21.9612,-0.867,0.5553,-0.9642,75,19.106,346,-2.8356,5.8106,-2.0076,0.0876,0.1481,0.3941,86,17.757,342,12.604,-6.266,-9.8173,0.6185,-0.0358,0.6483,71,18.174,350,11.2226,0.1504,-13.2364,0.6101,-0.5941,1.2279,40,82099.773,1587618,0.2478,-0.1324,-8.6219,2.165,-1.1938,-0.6713,47
18.029,348,7.621,8.2696,-23.8638,0.0416,1.0877,-1.3788,75,19.158,347,-2.3645,5.8987,-2.2348,-0.105,0.0376,0.173,86,17.808,343,12.3096,-4.1882,-10.9573,0.664,-0.071,0.6819,71,18.226,351,11.4441,-0.2552,-13.5886,0.9274,-0.9846,1.1675,40,82099.824,1587619,1.1678,-5.1917,-8.4988,2.254,-1.2276,-0.5938,47
18.081,349,5.5714,3.2881,-24.1904,-0.647,0.531,-0.3306,75,19.21,348,-2.1119,5.7729,-2.5556,-0.1083,0.1169,0.0877,86,17.86,344,11.6182,-3.6866,-11.5599,0.2649,-0.0252,0.7504,71,18.278,352,10.8388,-0.0053,-13.0644,1.3516,-1.0625,0.93,40,82099.876,1587620,4.8317,-5.0403,-4.5868,2.1566,-0.3807,0.1515,47
18.133,350,1.9066,2.8201,-22.6906,0.1168,-0.2818,0.1195,75,19.262,349,-2.1939,5.5135,-2.8344,0.0773,0.2211,0.0829,86,17.912,345,10.9029,-2.9353,-11.9751,0.2764,0.0783,0.6273,71,18.33,353,8.525,-0.407,-14.6628,0.8922,-1.1702,0.6995,40,82099.928,1587621,1.5936,-8.9365,-1.781,1.7889,0.0942,0.6409,47
18.185,351,-1.2803,4.3855,-21.3825,0.1941,-0.7543,-0.2798,75,19.314,350,-2.4467,5.4052,-2.881,0.1576,0.2118,0.0299,86,17.964,346,10.6369,-2.191,-11.8914,0.0327,0.1535,0.6226,71,18.382,354,7.0374,-1.7957,-14.5022,0.2599,-1.1454,-0.1506,40,82099.98,1587622,1.3197,-6.8639,-3.6395,1.2312,0.7574,1.1434,47
18.236,352,-3.347,3.9549,-20.5777,0.2272,-1.2198,-0.8463,75,19.365,351,-2.4552,5.4378,-2.6926,0.1239,0.1463,-0.0255,86,18.015,347,10.0599,-2.1834,-11.9425,-0.1726,0.203,0.6311,71,18.433,355,7.4033,-3.1575,-13.3632,0.8644,-0.927,-0.7814,40,82100.031,1587623,1.1389,-5.3562,-5.0465,0.8492,1.2415,1.5102,47
18.288,353,-4.4317,4.0791,-19.5621,0.5357,-1.5596,-1.1038,75,19.417,352,-2.3078,5.4828,-2.5678,0.2425,0.1524,0.0211,86,18.067,348,9.6377,-2.4909,-11.4425,-0.2668,0.1052,0.6288,71,18.485,356,8.0263,-0.9734,-11.6429,1.2138,-0.8705,-1.2417,40,82100.083,1587624,1.0978,-4.193,-6.1866,0.5917,1.5948,1.7779,47
18.34,354,-4.5167,4.9839,-18.4506,-0.0137,-1.8073,-1.2047,75,19.469,353,-1.7268,6.0528,-2.0491,0.5375,0.1173,0.2587,86,18.119,349,9.152,-2.8928,-10.9114,-0.1873,-0.2568,0.5089,71,18.537,357,9.1269,-1.3658,-10.1774,0.7223,-0.429,-1.5776,40,82100.135,1587625,0.9834,-3.0713,-8.5545,0.0395,0.8962,0.6215,47
18.392,355,-4.4174,5.7792,-17.6778,-0.6686,-1.4839,-1.2744,75,19.521,354,-1.1038,6.7065,-2.1747,0.7623,0.4232,0.6454,86,18.171,350,9.0033,-2.6929,-11.3743,-0.3574,-0.5854,0.5317,71,18.589,358,9.6973,-1.2212,-9.2395,1.103,0.1797,-1.8228,40,82100.187,1587626,0.6059,-2.2248,-8.8449,-0.3588,0.3911,-0.2224,47
18.444,356,-3.9129,5.0434,-17.1087,-0.9858,-1.2013,-1.3995,75,19.573,355,-1.5556,6.3016,-3.2036,0.9302,0.5483,1.0221,86,18.223,351,8.6565,-2.7341,-12.5336,-0.2927,-0.7951,0.5749,71,18.64,359,10.0916,-0.4899,-8.7068,1.4797,0.8057,-2.0018,40,82100.238,1587627,0.3172,-1.6177,-9.086,-0.6405,0.0195,-0.8384,47
18.495,357,-3.5988,3.6337,-16.7665,-0.8524,-0.9883,-1.3092,75,19.624,356,-1.823,5.497,-4.404,0.8167,0.3776,1.2503,86,18.274,352,8.5885,-2.6438,-13.168,-0.2717,-1.0678,0.5387,71,18.692,360,11.3444,-0.7376,-9.4722,1.7536,1.273,-2.1324,40,82100.29,1587628,0.117,-1.1801,-9.2655,-0.8387,-0.2536,-1.288,47
18.547,358,-1.2255,3.714,-14.9317,0.0108,-1.3475,-1.111,75,19.676,357,-1.4707,6.4234,-4.3876,0.6453,0.1354,1.315,86,18.326,353,10.0632,-2.4297,-13.8217,-0.255,-1.4527,0.5111,71,18.744,361,11.76,-2.0817,-10.416,1.9545,1.6141,-2.2277,40,82100.342,1587629,-0.0435,-0.8536,-9.3992,-0.9748,-0.456,-1.6161,47
18.599,359,-0.7258,2.8664,-11.3501,-0.2721,-0.6482,-1.1676,75,19.728,358,-0.9979,7.5198,-4.2779,0.3241,0.1404,1.2029,86,18.378,354,12.6103,-2.2579,-13.9061,-0.3273,-1.7336,0.5563,71,18.796,362,9.6678,-4.3456,-10.9724,1.8178,1.7506,-1.9726,40,82100.394,1587630,-0.1713,-0.6194,-9.4957,-1.0653,-0.6071,-1.8555,47
18.651,360,1.3448,2.7648,-12.4081,0.4758,0.2093,-1.5273,75,19.78,359,-0.8115,6.9635,-5.0518,-0.1006,-0.0275,1.1053,86,18.43,355,10.4396,-2.4918,-14.0777,0.0468,-1.9387,-0.0464,71,18.848,363,12.1733,-5.6595,-7.5928,0.9776,0.6109,-1.045,40,82100.445,1587631,-0.2614,-0.4599,-9.574,-1.124,-0.7189,-2.0303,47
18.703,361,1.437,-1.6296,-17.0525,-0.3301,0.8352,-1.7898,75,19.832,360,-0.4817,6.2054,-6.003,0.0303,-0.5855,1.2876,86,18.482,356,8.1932,-1.7555,-13.6813,0.7107,-2.0246,-0.7079,71,18.9,364,10.9596,0.2039,-8.434,0.8376,-0.1183,-0.2508,40,82100.497,1587632,-0.3329,-0.3425,-9.6402,-1.1576,-0.8037,-2.1579,47
18.754,362,0.5197,-2.4809,-20.4422,-0.9183,0.3089,-1.0537,75,19.883,361,-0.3082,6.3544,-6.924,0.6938,-1.0955,1.4965,86,18.533,357,8.7944,-1.6154,-12.4065,0.1743,-1.4625,-1.1907,71,18.951,365,9.9999,-0.5342,-10.5399,1.2081,-0.5296,-0.0526,40,82100.549,1587633,5.1154,1.7187,-11.3564,-0.8082,-0.6928,-1.9069,47
18.806,363,-1.1561,-1.5315,-22.9161,-0.4479,-0.4439,-0.4198,75,19.935,362,0.3035,7.3696,-7.0635,0.9377,-1.4722,1.3939,86,18.585,358,9.876,-4.7607,-12.6607,-0.3145,-0.3931,-1.543,71,19.003,366,9.425,0.4467,-11.2606,0.6455,-0.4318,0.1922,40,82100.601,1587634,8.0126,0.4471,-11.1397,-0.6069,-0.59,-0.7637,47
18.858,364,-2.3486,1.094,-21.5739,-0.1538,-0.9933,-0.4263,75,19.987,363,4.068,9.2743,-9.9555,1.3561,-1.7471,0.7574,86,18.637,359,10.3935,-7.1879,-13.7138,0.2359,0.3915,-1.8002,71,19.055,367,9.1627,0.5648,-11.9462,0.7015,-0.484,0.3169,40,82100.652,1587635,5.7995,0.3133,-10.8123,-0.3348,-0.1255,0.1183,47
18.91,365,-3.7793,2.2008,-19.5047,-0.1806,-1.3943,-0.9852,75,20.039,364,6.1162,11.3343,-12.5349,1.0907,-1.7271,-0.1336,86,18.689,360,10.317,-9.4892,-13.964,0.8487,0.9641,-1.976,71,19.107,368,8.7326,0.5909,-12.807,0.8168,-0.5348,0.2578,40,82100.704,1587636,4.128,0.2182,-10.5046,-0.1303,0.2156,0.762,47
18.962,366,-4.3163,2.0222,-18.4079,-0.2835,-1.3445,-1.3942,75,20.091,365,9.3838,13.5804,-6.5007,1.4678,-1.9332,-0.7839,86,18.741,361,10.5298,-8.5404,-13.2992,1.2959,1.382,-2.0983,71,19.158,369,8.6404,1.3844,-13.2907,0.8156,-0.4572,0.2546,40,82100.756,1587637,2.8658,0.2012,-10.2923,0.0249,0.4649,1.2319,47
19.013,367,-4.6693,1.4261,-17.5738,0.0832,-1.2361,-1.4423,75,20.142,366,4.9847,15.2384,-8.4172,1.1638,-1.0494,-0.3843,86,18.792,362,10.8703,-7.8611,-13.2208,0.9309,1.687,-1.8782,71,19.21,370,8.3346,1.4321,-13.5209,0.5209,-0.3592,0.395,40,82100.808,1587638,0.2965,-0.3568,-13.257,-0.6343,-0.3169,0.223,47
19.065,368,-4.2701,0.4716,-16.9941,0.1989,-1.1088,-1.1395,75,20.194,367,4.9256,14.0105,-10.0412,0.7917,-0.7024,-0.0757,86,18.844,363,10.7903,-6.1349,-14.5593,0.5373,1.9096,-1.4493,71,19.262,371,8.1326,1.2961,-13.7326,0.3944,-0.3417,0.4785,40,82100.86,1587639,-0.0749,-0.5753,-11.8675,-1.1209,-0.8944,-0.5133,47
19.117,369,-3.5856,0.4277,-16.883,0.271,-0.9178,-0.7049,75,20.246,368,3.8936,12.5727,-10.4125,0.3997,-0.7544,0.1771,86,18.896,364,10.254,-6.0817,-16.2915,0.493,2.0505,-1.3101,71,19.314,372,8.1235,1.0789,-13.8916,0.2875,-0.3587,0.4928,40,82100.912,1587640,-0.315,-0.7753,-10.8952,-1.4587,-1.3159,-1.0507,47
19.169,370,-2.7161,0.192,-15.3656,0.3309,-0.8458,-0.0373,75,20.298,369,2.7639,10.6787,-10.1338,0.2412,-0.496,0.2504,86,18.948,365,8.7394,-5.2962,-17.6387,1.0363,1.273,-0.9213,71,19.366,373,8.0338,1.1601,-14.0541,0.4131,-0.4454,0.4486,40,82100.963,1587641,-0.4857,-0.9396,-10.1811,-1.6784,-1.6235,-1.4429,47
19.22,371,1.6534,1.7442,-11.6816,-0.1529,-1.0131,0.5352,75,20.35,370,2.4985,9.4397,-10.3348,0.4375,-0.232,0.2155,86,19.0,366,11.6441,-4.2205,-10.2895,0.6886,0.5134,-0.0945,71,19.417,374,7.9433,1.212,-14.3282,0.4849,-0.5474,0.4617,40,82101.015,1587642,-0.5828,-1.0633,-9.6621,-1.8141,-1.848,-1.7291,47
19.272,372,2.7119,0.1782,-16.5223,0.5628,-0.057,0.2182,75,20.402,371,2.2545,9.181,-10.9015,0.4978,-0.1205,0.1101,86,19.051,367,13.7641,-6.6038,-11.1794,1.001,-0.2987,0.1245,71,19.469,375,8.4764,0.8527,-14.4219,0.5841,-0.733,0.5159,40,82101.067,1587643,-0.6425,-1.1755,-9.29,-1.8841,-2.0118,-1.9381,47
19.324,373,4.1166,-0.7671,-16.5387,-0.2666,0.6408,0.0077,75,20.453,372,1.9409,8.8513,-11.3044,0.3927,-0.018,-0.0739,86,19.103,368,10.9768,-5.0797,-11.7108,0.6782,-0.5504,0.5073,71,19.521,376,11.0389,0.7129,-14.5755,0.7446,-1.1935,0.6975,40,82101.118,1587644,-0.6529,-1.2673,-9.0262,-1.9101,-2.1314,-2.0905,47
