right_hand_timestamp,right_hand_index,right_hand_accel_x,right_hand_accel_y,right_hand_accel_z,right_hand_gyro_x,right_hand_gyro_y,right_hand_gyro_z,right_hand_battery_percentage,left_hand_timestamp,left_hand_index,left_hand_accel_x,left_hand_accel_y,left_hand_accel_z,left_hand_gyro_x,left_hand_gyro_y,left_hand_gyro_z,left_hand_battery_percentage,right_leg_timestamp,right_leg_index,right_leg_accel_x,right_leg_accel_y,right_leg_accel_z,right_leg_gyro_x,right_leg_gyro_y,right_leg_gyro_z,right_leg_battery_percentage,left_leg_timestamp,left_leg_index,left_leg_accel_x,left_leg_accel_y,left_leg_accel_z,left_leg_gyro_x,left_leg_gyro_y,left_leg_gyro_z,left_leg_battery_percentage,ball_timestamp,ball_index,ball_accel_x,ball_accel_y,ball_accel_z,ball_gyro_x,ball_gyro_y,ball_gyro_z,ball_battery_percentage
0.46,8,-2.7638,-8.9101,-16.4379,2.1307,-0.1466,2.1248,75,0.066,1,7.7777,3.1693,-10.2919,-0.2165,0.016,0.0999,77,0.459,8,13.9017,-1.6626,-10.1375,-1.1464,-1.8699,-0.1464,70,0.658,12,9.122,-2.1897,-12.0751,-1.2019,1.6363,-1.0756,39,82279.621,1591095,-0.5939,4.1307,-5.4044,-1.9991,-2.1155,-2.0941,47
0.511,9,-2.2681,-7.8156,-16.7023,2.2294,-0.662,2.181,75,0.118,2,7.8748,3.6421,-10.3202,-0.1546,0.0918,-0.0707,77,0.511,9,10.7064,-2.0975,-14.1289,-1.4589,-1.5646,-0.282,70,0.709,13,8.6137,-1.6664,-11.6755,-0.9658,1.3222,-0.7895,39,82279.673,1591096,-1.0377,2.6533,-3.6553,-2.1369,-2.2071,-2.2045,47
0.563,10,-1.9854,-6.0355,-18.0913,2.3015,-1.1504,2.2684,75,0.17,3,7.8565,3.863,-10.4333,-0.1693,0.0777,-0.1998,77,0.563,10,9.6491,-0.2081,-12.6388,-0.3882,-0.8487,0.035,70,0.761,14,8.0261,-1.4312,-11.5463,-0.826,0.9401,-0.502,39,82279.725,1591097,-1.1812,2.3379,-3.4326,-2.2375,-2.2739,-2.285,47
0.615,11,-1.9686,-1.5032,-17.8282,2.1073,-1.4937,2.3322,75,0.221,4,8.1147,4.1776,-10.5742,-0.2524,-0.0037,-0.2471,77,0.614,11,9.2576,1.286,-12.0973,0.1207,0.059,0.4328,70,0.813,15,7.6528,-1.0991,-11.9859,-0.5323,0.4454,-0.2134,39,82279.776,1591098,-0.4693,3.5078,-5.7325,-2.3109,-2.3227,-2.3437,47
0.666,12,-2.3748,-0.4207,-15.2845,1.3231,-1.7595,1.5645,75,0.273,5,8.1734,4.5174,-10.6685,-0.6475,-0.0718,-0.0875,77,0.666,12,10.0863,2.3049,-12.6115,-0.3768,0.7214,0.7362,70,0.865,16,9.1578,-1.7921,-10.3899,-0.2929,-0.1742,0.2682,39,82279.828,1591099,-1.2341,6.9917,-9.2891,-2.3645,-2.3583,-1.9863,47
0.718,13,-0.7522,-0.3892,-12.4253,1.1688,-1.9535,1.5041,75,0.325,6,8.5939,4.7099,-10.9611,-1.0061,-0.122,-0.0207,77,0.718,13,10.987,2.139,-14.0234,-0.4351,1.2049,1.0413,70,0.917,17,9.2599,-1.1302,-11.4369,-0.8909,-0.5852,0.5177,39,82279.88,1591100,-2.6114,8.5561,-12.1738,-1.6483,-2.2341,-2.0037,47
0.77,14,4.5086,-0.5737,-10.3499,0.2915,-2.0951,1.7744,75,0.377,7,9.22,4.6404,-12.4713,-1.1468,-0.1023,-0.318,77,0.77,14,11.6696,1.7378,-16.5658,0.134,1.5577,0.7193,70,0.968,18,8.6656,-1.2275,-11.8653,-0.1279,-0.9292,0.5499,39,82279.932,1591101,-1.5625,6.0002,-11.2284,-0.5755,-2.1935,-2.1385,47
0.822,15,6.0823,3.2297,-6.0826,-0.4646,-0.8778,1.5406,75,0.428,8,8.3047,4.2618,-13.087,-0.7982,0.2639,-0.9185,77,0.822,15,10.4772,0.9048,-19.4665,0.1271,1.6361,0.4915,70,1.02,19,8.943,-1.9509,-12.6842,-0.3316,-0.9288,0.6226,39,82279.983,1591102,-0.7646,4.1144,-10.5121,0.2157,-2.1517,-2.2368,47
0.874,16,5.7931,1.9892,-5.2906,-1.0165,0.0407,1.1941,75,0.48,9,6.7726,4.5784,-12.3905,-0.6355,0.2561,-1.2945,77,0.873,16,10.3424,0.9471,-18.4632,-0.5825,0.5208,0.358,70,1.072,20,9.3871,-1.2087,-12.7552,-0.2194,-0.9151,0.5765,39,82280.035,1591103,4.8004,-2.255,-5.1088,-0.0011,-1.7227,-1.2947,47
0.925,17,4.5424,3.5735,-5.2236,-1.0517,0.7122,0.5478,75,0.532,10,5.5903,4.723,-12.064,-0.993,-0.4443,-0.9555,77,0.925,17,10.7466,-1.8676,-17.3627,-0.0665,-0.2933,0.1668,70,1.124,21,9.4898,-1.564,-12.8488,0.037,-0.777,0.4847,39,82280.087,1591104,4.0118,-3.0517,-2.7818,-0.5106,-0.5686,-0.2693,47
0.977,18,3.7297,3.0234,-3.9756,-1.2063,1.0645,-0.2648,75,0.584,11,5.7468,5.0685,-12.2528,-1.4047,-0.9943,-0.5987,77,0.977,18,11.4381,-3.0848,-17.0243,-0.4126,-0.6441,0.2883,70,1.176,22,9.5337,-1.7641,-12.7717,0.2352,-0.6408,0.4162,39,82280.139,1591105,3.4103,-3.7298,-2.0804,-0.791,0.2736,0.4792,47
1.029,19,1.6803,3.6552,-0.9127,-0.5132,1.4594,-0.3968,75,0.636,12,6.4351,4.4476,-12.5904,-1.5407,-1.0233,-0.3969,77,1.029,19,11.4663,-2.4865,-16.5411,-0.4522,-0.6465,0.4161,70,1.227,23,9.2306,-1.3731,-12.1747,0.3357,-0.5833,0.4454,39,82280.19,1591106,2.9094,-4.2278,-1.5753,-0.9193,0.8884,1.0254,47
1.081,20,-0.142,2.5318,-0.2249,-0.2748,1.7475,-0.4815,75,0.688,13,7.7068,4.6899,-12.5882,-1.3429,-0.9062,-0.1167,77,1.081,20,10.9482,-2.7427,-14.9252,-0.7411,-0.3977,0.402,70,1.279,24,9.2118,-1.3336,-12.0742,0.1954,-0.6828,0.6821,39,82280.242,1591107,2.4631,-4.5911,-1.2215,-0.9213,1.337,1.4241,47
1.132,21,-0.4465,1.7808,1.6433,0.3058,1.8871,-0.4176,75,0.739,14,8.1378,4.396,-12.5398,-1.2324,-0.7272,0.0636,77,1.132,21,9.3237,-4.1987,-12.8026,-1.0346,-0.4484,0.3154,70,1.331,25,10.1015,-1.6779,-11.856,0.1316,-0.7946,1.0207,39,82280.294,1591108,2.088,-4.847,-0.9708,-0.8455,1.6645,1.7151,47
1.184,22,-0.4528,0.0496,-0.1219,0.3005,2.0597,-0.2357,75,0.791,15,8.1266,3.7521,-12.3581,-0.8915,-0.4639,-0.0493,77,1.184,22,9.9011,-3.4719,-12.452,-0.9522,-0.9625,0.2229,70,1.382,26,11.1627,-0.4858,-11.2172,0.2479,-1.0152,1.4161,39,82280.346,1591109,1.775,-5.0332,-0.7973,-0.6973,1.9035,1.9274,47
1.236,23,1.0565,-0.702,-3.5496,0.1513,1.7577,-0.3954,75,0.843,16,7.8739,2.7972,-12.7576,-0.0775,-0.0664,-0.2818,77,1.236,23,10.9298,-2.0829,-12.0253,-0.8459,-1.3759,0.1876,70,1.434,27,13.2643,0.6611,-11.5473,0.4322,-1.4077,1.7139,39,82280.398,1591110,1.4883,-5.1534,-0.6708,-0.4953,2.0779,2.0824,47
1.288,24,0.7763,-1.0142,-10.5634,0.4366,1.5237,-0.7971,75,0.895,17,6.2771,3.7928,-12.3874,0.6151,0.5963,-0.5019,77,1.288,24,13.2428,-1.4201,-10.1,-0.9203,-1.6776,0.1987,70,1.486,28,14.1558,2.6871,-12.9485,0.0619,-1.205,1.9312,39,82280.449,1591111,1.2461,-5.2469,-0.5687,-0.2699,2.2052,2.1955,47
1.34,25,2.8104,2.6083,-14.4918,-0.2623,0.4428,-0.919,75,0.947,18,4.9952,6.7889,-10.8582,-0.1563,-0.2175,0.2928,77,1.34,25,14.9309,-2.4794,-7.8404,-1.3469,-1.8978,0.3852,70,1.538,29,12.2325,3.8012,-12.4078,-0.6319,-0.1945,1.8829,39,82280.501,1591112,-1.7688,-2.6942,-4.1104,-0.2811,2.2981,2.2324,47
1.391,26,4.9973,2.652,-10.8555,0.0405,-0.3462,-0.9124,75,0.998,19,5.1269,6.8177,-11.0823,-0.5286,-0.6782,0.3608,77,1.391,26,12.5208,-3.6538,-12.9927,-1.0772,-1.7698,-0.0586,70,1.59,30,10.2731,3.9881,-12.0441,0.1231,0.543,0.8258,39,82280.553,1591113,-6.5225,-0.9163,-5.0731,-0.6954,1.8413,1.7741,47
1.443,27,8.7049,-3.2622,-5.4896,0.7039,-0.922,-0.6099,75,1.05,20,7.0862,3.184,-12.2947,-0.2647,-0.4095,0.0524,77,1.443,27,9.9579,-0.0828,-11.7341,-0.3253,-0.7101,-0.2719,70,1.641,31,8.7098,4.1175,-12.7319,0.0827,1.0813,-0.0687,39,82280.604,1591114,-4.7503,-0.653,-5.6187,-1.1854,0.6808,1.0153,47
1.495,28,7.9519,3.0091,-1.4154,1.1881,0.0095,0.0307,75,1.102,21,7.4203,4.1144,-11.4855,0.4786,0.3636,-0.2915,77,1.495,28,9.4096,0.73,-11.6689,-0.0143,0.1601,-0.3353,70,1.693,32,10.3362,2.1597,-14.9643,-0.6167,1.4741,-0.7215,39,82280.656,1591115,-3.3079,-0.5233,-5.9719,-1.543,-0.1662,0.4622,47
1.547,29,8.4134,2.7333,0.4251,0.6278,0.2648,-0.1296,75,1.154,22,7.4571,4.5212,-11.3425,-0.2016,-0.0781,0.4527,77,1.547,29,9.1836,0.8231,-12.6395,0.2228,0.7952,-0.4759,70,1.745,33,11.4442,-1.9249,-18.9028,-0.6886,1.7608,-1.198,39,82280.708,1591116,2.9441,3.5098,-12.3841,-1.7372,-0.7802,0.3843,47
1.599,30,8.3138,7.1299,1.7231,1.1326,-0.2769,-0.7697,75,1.206,23,9.701,5.3363,-12.2986,-0.8272,-0.5645,0.9958,77,1.599,30,11.142,-0.0665,-14.517,0.6136,1.2587,-0.5762,70,1.797,34,9.086,-4.7719,-20.3591,-0.5002,0.9878,-0.7093,39,82280.76,1591117,0.596,1.7479,-9.3894,-0.594,0.1192,0.9562,47
1.651,31,10.881,4.7069,2.0676,0.1492,0.4433,-0.7289,75,1.258,24,10.4606,3.901,-13.6855,-0.9397,-0.4929,0.8856,77,1.65,31,10.785,-1.4452,-17.8413,1.1243,1.597,-0.7287,70,1.849,35,11.7486,-8.7795,-22.8402,-1.0421,0.1006,0.1627,39,82280.811,1591118,-0.805,0.3842,-7.0506,0.2404,0.7757,1.3736,47
1.702,32,9.6913,2.5076,0.2053,-0.5685,1.006,-0.1226,75,1.309,25,9.4438,3.8831,-12.3317,-0.1553,-0.1562,0.1225,77,1.702,32,10.1333,-2.0747,-19.1938,0.3656,0.7876,-0.4957,70,1.9,36,9.1727,-8.1237,-20.8944,-0.396,-0.4041,0.3846,39,82280.863,1591119,-1.8907,-0.563,-5.2998,0.8493,1.2548,1.6782,47
1.754,33,6.141,1.8317,-1.3843,-0.804,1.4166,0.3603,75,1.361,26,7.0259,4.2779,-11.0082,-0.0901,0.026,-0.2852,77,1.754,33,12.6614,-6.7512,-22.0133,0.9434,-0.0985,0.213,70,1.952,37,10.1201,-7.1636,-19.2751,-0.421,-0.6631,0.3122,39,82280.915,1591120,-2.7254,-1.1784,-3.9968,1.2937,1.6045,1.9005,47
1.806,34,3.391,1.1499,-2.8579,0.0794,1.7106,0.4011,75,1.413,27,5.7224,4.0197,-10.5791,-0.716,-0.1174,-0.3643,77,1.806,34,14.5066,-4.739,-20.7639,0.5606,-0.7453,0.4568,70,2.004,38,9.811,-4.063,-17.9831,0.0866,-0.5321,0.2391,39,82280.967,1591121,-3.3836,-1.5436,-3.0248,1.6181,1.8597,2.0628,47
1.858,35,2.0779,0.3472,-5.1859,-0.0311,1.5373,0.3489,75,1.465,28,5.5369,3.1035,-10.8492,-0.8595,0.0019,-0.5994,77,1.858,35,13.4416,-2.9029,-19.5193,0.4631,-0.7955,0.3571,70,2.056,39,9.6227,-3.357,-16.1948,0.4025,-0.5405,0.2119,39,82281.019,1591122,-3.8924,-1.7285,-2.2935,1.8548,2.0459,2.1812,47
1.909,36,2.5409,-2.4743,-5.1366,-0.7001,0.8974,0.8576,75,1.517,29,7.3353,1.7911,-11.9419,-0.3662,0.2571,-0.7877,77,1.909,36,11.5158,-2.3122,-18.3518,0.1096,-0.6227,0.222,70,2.108,40,8.7572,-2.7032,-15.0752,0.4293,-0.7819,0.4003,39,82281.07,1591123,-4.2869,-1.7802,-1.763,2.0276,2.1819,2.2676,47
1.961,37,2.6633,-2.6024,-7.2607,-0.3794,1.2947,1.0481,75,1.568,30,7.8703,0.4851,-12.7105,0.4045,0.7128,-0.9228,77,1.961,37,11.1403,-1.694,-16.2015,0.185,-0.5504,0.129,70,2.159,41,8.6461,-1.7702,-14.6714,0.3552,-1.1857,0.7822,39,82281.122,1591124,-3.3606,-2.488,-1.3029,2.1537,2.2811,2.3307,47
2.013,38,2.7779,-2.3128,-10.6919,-0.6352,0.321,1.1883,75,1.62,31,9.0781,1.4545,-12.6133,0.8462,0.9399,-0.3225,77,2.013,38,10.2,-1.3717,-15.0714,0.3037,-0.7107,0.1317,70,2.211,42,10.4334,-1.3195,-14.3668,0.5021,-1.5322,1.2416,39,82281.174,1591125,-2.4627,-7.0737,1.6125,2.2458,2.1189,2.3767,47
2.065,39,7.055,-1.908,-7.5981,0.2108,-0.4351,0.6708,75,1.672,32,10.9679,1.1241,-11.8071,0.2942,0.0133,0.43,77,2.065,39,10.5092,-0.6289,-14.3356,0.1741,-0.9528,0.0943,70,2.263,43,12.732,0.0058,-15.0744,1.0411,-1.7851,1.5427,39,82281.226,1591126,-2.5018,-10.4205,3.7403,1.8816,1.8428,2.237,47
2.117,40,10.2067,-6.5903,-13.5419,0.8282,-0.9869,1.0309,75,1.724,33,10.8539,-0.7528,-12.2731,0.7382,-0.4054,0.9143,77,2.116,40,11.7677,-0.1711,-13.2073,0.1256,-1.3609,-0.055,70,2.315,44,10.2958,-0.7294,-16.2303,1.3164,-1.5454,1.6796,39,82281.277,1591127,-0.0027,-12.035,2.4935,0.6954,1.7582,1.4653,47
2.168,41,9.8492,0.5801,-11.6543,0.5244,-0.0378,1.429,75,1.776,34,8.8697,-0.5425,-11.3476,1.2105,-0.1136,0.851,77,2.168,41,13.8543,1.2993,-11.663,-0.0742,-1.6666,-0.3792,70,2.367,45,8.6963,0.385,-13.9395,0.5579,-0.9903,0.9125,39,82281.329,1591128,0.0315,-8.47,0.7663,-0.1703,1.5946,0.8667,47
2.22,42,9.9434,5.8133,-9.3882,0.1521,0.5911,1.0368,75,1.827,35,7.8861,1.3496,-10.5269,1.0596,-0.4029,1.2865,77,2.22,42,14.7754,-1.1841,-11.6316,-0.7293,-1.8898,-0.761,70,2.418,46,7.1072,-1.5281,-13.0757,-0.2699,-0.0414,-0.0054,39,82281.381,1591129,0.1119,-5.7997,-0.5189,-0.8022,1.4578,0.4291,47
2.272,43,8.0875,8.1445,-8.5269,0.5841,1.0991,0.0823,75,1.879,36,7.7805,1.5606,-11.0412,0.9246,-0.4682,1.5794,77,2.272,43,11.0102,-2.7928,-14.2106,0.1442,-1.7331,-1.2294,70,2.47,47,6.8552,-3.1983,-12.1418,0.0026,0.6547,-0.6753,39,82281.433,1591130,0.9252,-4.067,0.7294,0.0884,0.6423,0.3537,47
2.324,44,10.9602,7.4107,-6.9961,-0.2511,0.8706,-0.615,75,1.931,37,8.0817,0.9928,-11.7514,0.9307,-0.4356,1.1283,77,2.324,44,9.9352,-2.1603,-13.3862,0.4437,-0.7567,-1.5713,70,2.522,48,8.4639,-5.0839,-11.2649,0.3326,1.1628,-1.1643,39,82281.485,1591131,0.798,-2.7836,-0.2132,0.7384,-0.0941,0.2937,47
2.375,45,13.0569,3.6848,-8.9153,-0.8606,1.3178,-0.5312,75,1.983,38,7.7276,0.9006,-12.2182,1.351,-0.4953,0.1413,77,2.375,45,9.2163,-1.536,-13.0184,-0.3514,0.1261,-1.6025,70,2.574,49,10.4158,-5.9055,-12.2326,0.6044,1.5336,-1.5212,39,82281.536,1591132,0.7038,-1.8529,-1.0839,1.2128,-0.6422,0.2489,47
2.427,46,11.9293,-0.337,-9.8649,-1.3055,1.6442,0.2889,75,2.035,39,7.3212,1.7141,-12.0549,1.5298,-0.4977,-0.5538,77,2.427,46,9.732,-2.4087,-14.2472,-0.7019,0.7704,-0.8694,70,2.625,50,10.2185,-8.7491,-14.5643,1.1149,1.8043,-1.7816,39,82281.588,1591133,0.6391,-1.1648,-1.733,1.559,-1.0513,0.216,47
2.479,47,9.2336,-3.198,-10.5105,-0.926,1.3173,0.8875,75,2.086,40,10.2632,0.982,-13.7477,1.3765,-0.6928,-0.8992,77,2.479,47,10.7809,-3.3785,-16.202,0.1642,1.2406,-0.4213,70,2.677,51,8.3452,-7.6398,-15.5215,1.4883,1.31,-1.3508,39,82281.64,1591134,0.5898,-0.6824,-2.2221,1.8117,-1.361,0.1912,47
2.531,48,5.0886,-0.0087,-9.8826,-0.0754,1.6406,1.3244,75,2.138,41,11.3527,0.1639,-12.462,1.0416,-0.6471,-1.3427,77,2.531,48,9.2836,-3.5925,-18.22,0.7964,1.3125,-0.2941,70,2.729,52,11.208,-10.8726,-18.4644,0.4092,0.9885,-0.3055,39,82281.692,1591135,0.5711,-0.3417,-2.5858,1.9962,-1.5971,0.1726,47
2.583,49,0.8939,0.1413,-8.1591,-0.1487,1.811,1.2324,75,2.19,42,10.9374,-0.9545,-11.8503,0.203,-0.5668,-1.6663,77,2.583,49,5.822,-4.4657,-20.1444,0.7747,0.5665,-0.0393,70,2.781,53,9.1704,-9.518,-19.2121,0.0656,0.106,0.0623,39,82281.743,1591136,0.4415,-0.2296,-1.8317,2.1308,-1.1817,0.2057,47
2.634,50,0.54,1.3687,-11.9666,0.0059,0.7231,1.5761,75,2.242,43,8.7244,-1.8325,-11.385,-0.4538,-0.3347,-1.5808,77,2.634,50,5.319,-2.0927,-18.0068,1.242,-0.26,0.09,70,2.833,54,9.9254,-7.3811,-17.3691,0.0333,0.1039,0.1123,39,82281.795,1591137,5.6699,0.8203,-3.8386,2.229,-0.8143,-0.118,47
2.686,51,-1.1966,-0.3611,-14.4629,-0.2772,-0.1416,1.827,75,2.294,44,6.744,-2.4451,-11.1895,-0.4478,-0.3039,-0.7483,77,2.686,51,6.7946,-1.3983,-18.1016,0.6527,-0.4799,0.1298,70,2.884,55,9.548,-4.4747,-16.8493,0.4197,0.2119,-0.1057,39,82281.847,1591138,6.461,2.2448,-3.4891,1.981,-1.0202,-0.3759,47
2.738,52,-1.2965,-1.5379,-13.3505,0.4477,-0.7727,1.8584,75,2.345,45,8.3355,-2.2187,-11.9183,0.3447,-0.672,0.1192,77,2.738,52,7.7638,-0.8395,-16.2015,0.3406,-0.4112,0.1849,70,2.936,56,8.6441,-2.4638,-15.8343,0.5126,0.2949,-0.0461,39,82281.898,1591139,5.3974,3.5052,-2.9855,1.1291,-0.97,-0.9504,47
2.79,53,1.5542,-6.3201,-16.2051,1.0012,-1.2333,2.033,75,2.397,46,7.3852,-2.3335,-11.8633,0.7293,-0.1763,0.2645,77,2.79,53,7.8053,-0.9431,-15.0631,0.2763,-0.4835,0.1317,70,2.988,57,8.1721,-0.1982,-14.2088,0.4576,0.0544,0.2239,39,82281.95,1591140,2.8263,3.3468,-3.1813,0.1462,-0.0207,-1.3697,47
2.841,54,6.1919,0.7772,-11.0043,0.83,-0.4954,2.1604,75,2.449,47,6.48,-4.6875,-15.6146,1.204,-0.5389,0.2462,77,2.842,54,8.2784,-0.9212,-13.8467,0.1902,-0.673,0.0597,70,3.04,58,7.8083,-1.2499,-14.0074,0.0088,-0.431,0.7274,39,82282.002,1591141,1.4624,3.1239,-4.0983,-0.5712,0.6736,-1.6757,47
2.893,55,7.673,3.6901,-6.1421,1.112,0.3209,1.3025,75,2.501,48,7.9055,-1.1993,-14.1743,1.5505,0.2858,-0.4461,77,2.893,55,9.0136,-0.5493,-13.4235,-0.0347,-0.9731,-0.0374,70,3.092,59,10.3819,-0.6159,-14.4641,0.3764,-0.9813,0.9075,39,82282.054,1591142,0.4774,2.9389,-4.813,-1.0948,1.1803,-1.8991,47
2.945,56,7.3339,7.1444,-3.2687,1.1757,0.5263,0.2755,75,2.553,49,6.8623,1.4591,-12.2786,1.4371,-0.3659,0.3398,77,2.945,56,10.0024,0.2573,-13.264,-0.1288,-1.3319,-0.2158,70,3.143,60,12.6944,-0.8336,-15.8888,0.9494,-1.383,0.5319,39,82282.105,1591143,5.7068,7.4761,-11.5383,-0.1251,0.419,-0.7116,47
2.997,57,9.651,3.5409,-2.725,0.1807,0.9686,-0.4619,75,2.604,50,7.4881,0.8017,-12.9411,0.948,-0.5495,0.4983,77,2.997,57,12.0188,0.9574,-11.3946,-0.1919,-1.6455,-0.528,70,3.195,61,9.9939,-0.48,-13.3884,1.3676,-1.6762,-0.2815,39,82282.157,1591144,3.9513,6.0778,-10.0515,0.5826,-0.3573,0.1563,47
3.049,58,9.2617,-1.6515,-2.9933,-0.5186,1.3894,0.2311,75,2.657,51,7.8108,1.2187,-13.2193,1.3106,-0.6743,-0.0216,77,3.049,58,13.5311,-0.7233,-10.9239,0.0312,-1.8744,-1.0068,70,3.247,62,9.8718,-0.3177,-10.0698,1.1496,-1.3905,-0.8769,39,82282.209,1591145,2.3766,5.1186,-8.9948,1.0991,-0.9238,0.7898,47
3.101,59,6.0157,-2.7405,-3.4038,-0.9221,1.6964,0.8453,75,2.708,52,7.6117,2.4264,-12.4652,1.567,-0.4407,-0.6282,77,3.101,59,11.2853,-2.2012,-14.1986,0.6602,-1.7599,-1.3261,70,3.299,63,9.9488,-0.7126,-9.4346,0.7393,-0.585,-1.3114,39,82282.261,1591146,1.2543,4.445,-8.2424,1.476,-1.3373,1.2521,47
3.152,60,2.9798,-1.6052,-4.9776,-0.6953,1.9206,1.2936,75,2.76,53,8.1334,2.2324,-12.3339,1.1004,-0.5486,-0.5988,77,3.152,60,9.074,-1.7041,-12.4169,0.8683,-0.775,-1.5961,70,3.351,64,10.4224,-0.9893,-9.6321,0.9964,0.258,-1.6285,39,82282.312,1591147,0.4384,3.9624,-7.7039,1.7511,-1.6391,1.5895,47
3.204,61,1.5691,-0.9114,-4.309,-0.0198,1.604,1.0793,75,2.812,54,8.2449,1.1219,-12.2582,0.9649,-0.6494,-0.8938,77,3.204,61,8.1473,-2.8851,-13.3181,0.8175,0.1127,-1.8359,70,3.402,65,10.8354,-1.2633,-11.4751,0.4663,0.8733,-1.86,39,82282.364,1591148,-0.1488,3.6293,-7.3048,1.9519,-1.8594,1.8358,47
3.256,62,2.4824,-2.5404,-8.3389,-0.6919,0.5013,1.4643,75,2.864,55,8.6847,-0.0223,-13.2095,1.2088,-0.5691,-1.3015,77,3.256,62,8.8199,-4.776,-13.7637,1.2427,0.7606,-1.9992,70,3.454,66,9.3309,-3.0716,-14.3655,0.7324,1.268,-2.0289,39,82282.416,1591149,-0.5617,3.3941,-6.9991,2.0985,-2.0202,2.0155,47
3.308,63,0.8496,-3.5846,-10.3351,-1.1617,1.0483,1.4117,75,2.915,56,9.849,1.4816,-11.8903,0.8646,-0.2115,-1.1016,77,3.308,63,11.2239,-6.2788,-14.8051,1.5835,1.2335,-1.869,70,3.506,67,8.5545,-3.1214,-14.8146,0.9974,0.6968,-1.4434,39,82282.468,1591150,0.2532,3.1895,-5.4187,2.2054,-2.1375,2.1467,47
3.36,64,-4.9122,-0.9073,-9.8682,-0.705,0.392,1.627,75,2.967,57,11.3902,-0.6393,-12.5492,-0.049,-0.7464,-0.2834,77,3.36,64,11.5611,-7.251,-15.5949,1.8322,1.5786,-1.2062,70,3.558,68,3.6838,-4.4701,-17.3392,0.2657,1.1935,-0.3731,39,82282.52,1591151,5.137,-1.1427,-7.2654,2.2086,-2.0013,1.4713,47
3.411,65,0.0488,-2.5406,-13.4309,0.1119,-0.3833,1.2652,75,3.019,58,10.201,-3.7685,-12.7856,-0.0485,-0.2876,-0.8917,77,3.411,65,11.7379,-6.768,-17.3644,2.0138,1.8305,-0.397,70,3.61,69,7.8059,-4.3455,-17.1386,0.1908,0.2043,-0.4669,39,82282.572,1591152,9.1076,-0.5696,-9.983,1.9279,-1.6248,0.4514,47
3.463,66,5.0933,3.5357,-7.2113,0.7561,-0.2959,1.2716,75,3.071,59,8.6233,-3.7522,-13.239,0.6363,0.4692,-1.3372,77,3.463,66,10.0475,-6.1044,-18.9367,2.1349,1.8085,-0.1333,70,3.661,70,9.6363,-3.1441,-16.379,0.3464,-0.2455,-0.4833,39,82282.623,1591153,6.1292,-0.2768,-9.9418,1.1573,-1.572,-0.3466,47
3.515,67,8.7749,2.6034,-4.4623,-0.1256,0.4567,1.384,75,3.123,60,6.6012,-1.7946,-12.0977,1.1362,1.0215,-1.1025,77,3.515,67,9.1219,-3.0623,-21.8257,2.1492,0.7752,-0.121,70,3.713,71,9.1854,-2.293,-15.7703,0.5829,-0.189,-0.5464,39,82282.675,1591154,4.275,-0.3555,-9.8437,0.6081,-1.5392,-0.929,47
3.567,68,7.1382,2.6559,-3.7377,-0.769,1.0157,1.4303,75,3.175,61,5.5566,-0.2557,-11.4331,1.387,0.5308,-0.648,77,3.567,68,9.1835,-0.4794,-19.5241,2.0305,-0.1076,-0.0632,70,3.765,72,8.5215,-1.533,-15.3692,0.8438,-0.2722,-0.6092,39,82282.727,1591155,2.8906,-0.6105,-9.7378,0.2228,-1.5141,-1.3541,47
3.619,69,5.3585,2.2761,-4.5636,-0.8121,1.3177,1.0595,75,3.226,62,6.5818,1.8998,-11.3201,1.504,0.0599,-0.4264,77,3.619,69,9.5118,-0.6832,-18.5387,1.5075,-0.581,0.0315,70,3.817,73,7.7483,-0.2523,-14.985,0.7762,-0.2986,-0.4904,39,82282.779,1591156,2.4554,-1.2238,-8.3199,0.0506,-0.4164,-0.3126,47
3.67,70,6.5623,-1.824,-4.3303,-0.4836,1.6408,1.008,75,3.278,63,7.6094,1.715,-12.2638,1.0619,0.0973,-0.5809,77,3.671,70,9.7736,0.6621,-17.905,1.4691,-0.8138,0.0152,70,3.868,74,7.981,0.4257,-14.6894,0.4623,-0.2944,-0.2213,39,82282.83,1591157,1.9384,-1.8227,-8.1324,-0.0196,0.3848,0.4475,47
3.722,71,2.6149,-1.9707,-1.0868,-0.2705,1.88,1.1473,75,3.33,64,7.6808,1.7663,-11.6978,1.3743,0.2605,-0.9126,77,3.722,71,10.3153,1.4308,-16.3418,0.7256,-0.6361,0.1872,70,3.92,75,7.7957,0.1333,-14.5847,0.3229,-0.4588,-0.0651,39,82282.882,1591158,1.5347,-2.2533,-7.979,-0.0053,0.9695,1.0023,47
3.774,72,-0.6775,-0.0912,-1.8496,0.4769,2.0545,1.3116,75,3.382,65,8.3215,1.9419,-11.0693,0.8516,0.0381,-0.7083,77,3.774,72,10.3975,1.4823,-14.8071,0.1258,-0.6294,0.1995,70,3.972,76,8.7499,0.8143,-14.8006,0.7869,-0.9868,-0.0955,39,82282.934,1591159,1.2009,-2.5567,-7.8652,0.0598,1.3962,1.4072,47
3.826,73,-4.9204,1.5235,-4.2412,-0.3115,2.1819,0.3813,75,3.434,66,8.4946,1.1958,-11.3805,0.3793,-0.2207,-0.7569,77,3.826,73,10.5218,0.0028,-13.1784,0.0126,-1.0053,-0.0788,70,4.024,77,10.8292,-0.2684,-13.4506,1.249,-1.387,-0.2022,39,82282.986,1591160,0.9221,-2.7751,-7.7677,0.1732,1.7077,1.7028,47
3.877,74,-1.5561,-4.0858,-5.5756,-0.9047,0.9231,-0.2361,75,3.485,67,9.7836,0.4715,-12.8548,0.7064,0.0512,-0.6744,77,3.878,74,12.76,-0.5286,-10.8128,-0.1862,-1.4071,-0.2687,70,4.076,78,13.0209,1.4327,-13.8627,1.5862,-1.6791,-0.3737,39,82283.037,1591161,0.681,-2.9316,-7.6903,0.3118,1.935,1.9184,47
3.929,75,3.9219,-6.3581,-1.4781,-0.2744,0.8364,-0.6765,75,3.537,68,7.6727,0.6196,-12.0312,1.1873,0.4586,-1.1621,77,3.929,75,14.2897,-2.0768,-11.1441,-0.082,-1.7004,-0.5454,70,4.127,79,10.7372,-2.2939,-18.0988,1.7133,-1.8498,-0.7173,39,82283.089,1591162,0.4539,-3.052,-7.5998,0.4797,2.1009,2.0759,47
3.981,76,2.1901,-6.6496,-6.3862,-0.8776,0.236,-0.994,75,3.589,69,5.161,2.7437,-10.1916,1.0716,0.926,-0.633,77,3.981,76,11.792,-3.0337,-10.6577,0.6167,-1.3636,-0.9028,70,4.179,80,9.5616,-2.9883,-13.8557,0.7468,-0.6651,-1.195,39,82283.141,1591163,-0.0761,-4.7073,-3.0188,-0.3259,2.1107,2.1907,47
4.033,77,2.4544,-5.6123,-8.9052,0.0339,-0.4971,-1.0442,75,3.641,70,8.515,4.8016,-8.7783,1.4449,0.6195,-0.2582,77,4.033,77,9.9185,-2.5935,-10.5141,1.0732,-0.4042,-1.2158,70,4.231,81,9.5566,-2.9826,-12.2436,0.8363,0.1991,-1.5435,39,82283.192,1591164,-2.4555,-5.1274,0.0507,-0.9157,1.3754,1.3194,47
4.085,78,6.8489,1.2938,-4.3357,0.6991,-0.0658,-1.0219,75,3.693,71,9.3091,5.5253,-8.3784,1.7263,1.1189,-0.787,77,4.085,78,8.3917,-2.6234,-11.2453,1.1583,0.3834,-1.4042,70,4.283,82,9.6812,-3.9095,-11.7658,1.1198,0.8303,-1.7979,39,82283.244,1591165,-1.5893,-4.8035,-1.2529,-1.3462,0.41,0.2869,47
4.136,79,9.8245,0.9302,-2.9727,-0.1672,0.6344,-0.2322,75,3.744,72,11.7141,5.14,-9.4408,1.2634,0.864,-0.8225,77,4.137,79,8.433,-3.0766,-12.6085,1.5219,0.9582,-1.4434,70,4.335,83,7.5911,-6.0869,-14.1638,0.6309,1.291,-1.9836,39,82283.296,1591166,-1.3404,-3.5416,-3.0359,-1.6604,-0.3237,-0.4667,47
4.188,80,8.9882,-0.0288,-1.9187,-0.1648,0.8016,0.4518,75,3.796,73,12.9367,3.0995,-10.597,1.102,0.5588,-1.2747,77,4.188,80,9.8455,-4.2589,-14.3221,1.7873,1.3777,-1.288,70,4.386,84,6.2932,-9.7393,-18.3186,-0.1685,1.0241,-1.8204,39,82283.348,1591167,-1.1873,-2.5228,-4.348,-1.8897,-0.8743,-1.0167,47
4.24,81,7.944,-0.3508,-1.4691,0.5541,-0.0843,0.9709,75,3.848,74,11.5201,1.0443,-10.6607,0.1287,0.4784,-1.4453,77,4.24,81,9.1963,-1.6496,-16.233,1.3751,1.6838,-0.8138,70,4.438,85,-0.8796,-4.8125,-17.5101,-0.4979,1.0389,-1.0318,39,82283.399,1591168,-0.6225,-1.9824,-0.61,-0.7053,-0.8998,-1.0021,47
4.292,82,5.6402,0.3511,0.77,1.0788,-0.5715,1.3008,75,3.9,75,9.0176,0.2694,-10.7641,0.0062,0.3082,-1.1139,77,4.292,82,5.5956,-4.5833,-19.8525,0.3284,1.6474,-0.3212,70,4.49,86,4.4754,-2.5543,-15.3371,-0.1669,0.4277,-0.9971,39,82283.451,1591169,-0.0725,-1.2238,-0.5881,0.1591,-0.9477,-0.9983,47
4.344,83,3.5074,-1.0338,-0.096,0.8613,0.0774,1.4244,75,3.952,76,7.6919,0.574,-11.0417,0.1426,0.358,-1.0326,77,4.344,83,5.6715,-1.092,-15.9289,0.7575,0.5814,-0.2142,70,4.542,87,6.6993,-0.7513,-13.9782,0.039,0.2748,-0.7876,39,82283.503,1591170,0.3224,-0.6772,-0.6087,0.79,-0.9862,-0.997,47
4.395,84,1.9334,-2.1387,-2.5918,0.4864,0.7389,1.4915,75,4.004,77,7.3244,2.5057,-11.4958,0.7758,0.3453,-1.0597,77,4.396,84,7.1417,-1.5788,-15.9022,0.5266,0.1591,-0.1332,70,4.593,88,6.5015,-0.1203,-13.4675,0.27,0.1318,-0.5828,39,82283.555,1591171,0.5939,-0.2868,-0.607,1.2505,-1.0178,-0.9984,47
4.447,85,0.7369,-3.664,-7.1619,0.3272,1.2217,1.7652,75,4.055,78,6.3737,4.1413,-10.8212,0.9766,0.5743,-1.2186,77,4.447,85,8.1651,-0.2343,-14.7588,0.5937,0.0523,-0.1666,70,4.645,89,6.6908,0.1298,-13.4983,0.352,-0.1439,-0.3493,39,82283.606,1591172,0.7881,-0.0082,-0.5838,1.5865,-1.0428,-1.0021,47
4.499,86,-4.9945,-2.3102,-2.6359,0.9093,0.8164,1.965,75,4.107,79,6.2976,4.4913,-9.18,0.831,0.5529,-1.1354,77,4.499,86,8.1766,0.8514,-13.8916,0.5145,-0.1409,-0.0901,70,4.697,90,6.8548,0.1378,-13.701,0.3814,-0.3596,-0.1553,39,82283.658,1591173,0.9406,0.2112,-0.5658,1.8318,-1.0641,-1.007,47
4.551,87,-3.6337,-4.8464,-7.1444,0.6232,1.2783,1.9708,75,4.159,80,7.3,2.6854,-9.7682,0.4842,0.4696,-0.7299,77,4.551,87,8.0684,-1.2836,-12.9651,0.4064,-0.4039,-0.0125,70,4.749,91,7.6041,-0.4748,-13.1264,0.9445,-0.6454,-0.1518,39,82283.71,1591174,0.7771,2.2674,-5.1418,1.8278,-1.1443,-1.223,47
4.603,88,-3.1861,-3.2172,-8.0602,0.482,0.2636,1.9347,75,4.211,81,8.9189,3.9051,-8.9273,0.4353,0.7053,0.1327,77,4.603,88,8.1446,-1.3461,-12.8982,-0.0911,-0.5613,0.1387,70,4.801,92,8.999,-1.5827,-11.8036,1.364,-1.1378,0.0386,39,82283.762,1591175,1.4685,6.6957,-6.7164,0.9632,-0.8175,-1.5315,47
4.655,89,2.7323,-4.6961,-5.0957,1.0251,-0.4769,0.737,75,4.263,82,9.7789,1.6187,-9.1688,0.3417,0.2199,0.7622,77,4.655,89,8.8873,0.0826,-13.1726,0.3471,-0.7789,0.0373,70,4.852,93,11.6852,-1.2098,-14.4511,1.6702,-1.4972,-0.0255,39,82283.814,1591176,0.9227,10.2179,-6.4652,0.2356,-0.5739,-1.691,47
4.706,90,7.0517,-0.7192,-7.538,1.4225,-1.0174,-0.0162,75,4.314,83,9.1291,-0.4721,-10.5837,0.9211,0.5323,1.2009,77,4.707,90,9.6082,0.354,-12.6649,0.0024,-0.9175,-0.0104,70,4.904,94,11.0468,0.3723,-13.8513,1.8937,-1.7577,-0.5565,39,82283.865,1591177,0.3998,7.4443,-6.5529,-0.5059,-0.3932,-1.9102,47
4.758,91,7.6762,3.4687,-6.4825,0.3608,-0.1804,0.6063,75,4.366,84,9.2972,0.959,-10.6975,1.344,0.7704,1.2965,77,4.758,91,10.3717,0.2507,-11.3997,-0.0685,-1.343,-0.0877,70,4.956,95,8.6036,0.9668,-12.3677,1.9433,-0.9419,-1.0721,39,82283.917,1591178,0.1298,5.3596,-6.6046,-1.0471,-0.2839,-2.0702,47
4.81,92,8.8631,1.0195,-5.5851,-0.414,0.5507,0.8242,75,4.418,85,8.5245,1.7582,-11.2071,1.5137,0.6423,1.6116,77,4.81,92,12.0261,1.6045,-9.578,-0.5366,-1.6536,-0.0583,70,5.008,96,7.1327,-0.5334,-12.0251,1.3926,-0.099,-1.4539,39,82283.969,1591179,0.3768,4.6256,-3.4074,-0.0904,0.4802,-0.8353,47
4.862,93,7.8096,-2.9692,-5.113,-0.5926,1.0844,0.8275,75,4.47,86,8.1408,2.7872,-11.6545,1.4011,0.3205,1.5601,77,4.862,93,14.0303,-1.2172,-9.3749,-0.2568,-1.8782,-0.398,70,5.06,97,8.0095,-0.1131,-12.2467,0.5437,0.4324,-1.7325,39,82284.021,1591180,-0.7785,3.4058,-1.751,0.6079,1.0391,0.0661,47
4.914,94,5.9558,-6.88,-4.8689,0.0919,1.4738,1.2806,75,4.522,87,8.3529,3.6197,-11.8559,1.1901,0.0364,1.436,77,4.914,94,12.2478,-2.8155,-10.2603,0.4891,-1.2917,-0.9094,70,5.111,98,8.0023,-0.1405,-13.1526,0.3361,0.9322,-1.9359,39,82284.072,1591181,-1.6231,2.5456,-0.6015,1.1176,1.4428,0.7239,47
4.965,95,2.7655,-6.5474,-6.0009,0.7369,1.7581,1.6113,75,4.573,88,8.2668,4.3278,-11.0697,1.0879,-0.1514,0.8607,77,4.965,95,11.5317,-2.5789,-10.061,-0.2301,-0.3092,-1.3138,70,5.163,99,8.6074,0.2184,-13.7604,0.4396,1.2055,-2.0843,39,82284.124,1591182,-2.2374,1.9769,0.2426,1.4895,1.6909,1.204,47
5.017,96,0.9674,-2.2957,-5.9629,1.2122,1.9655,1.8526,75,4.625,89,6.9247,5.0404,-9.6128,0.3676,-0.5372,0.4379,77,5.017,96,11.29,-3.1275,-11.1767,-0.0732,0.4527,-1.56,70,5.215,100,8.413,-1.3828,-14.7983,-0.1236,1.1226,-1.9896,39,82284.176,1591183,-2.6748,1.6027,0.8547,1.761,1.8056,1.5545,47
5.069,97,0.204,1.8296,-8.8709,1.5591,2.117,2.0288,75,4.677,90,8.6102,4.7186,-9.6584,-0.4117,-0.9392,0.1845,77,5.069,97,11.0869,-4.6074,-13.2239,0.6222,1.0087,-1.073,70,5.267,101,6.3787,-3.4523,-18.6131,-0.2644,0.5424,-1.1459,39,82284.228,1591184,-2.9693,1.3849,1.2947,1.9591,1.8106,1.8102,47
5.121,98,-3.3955,1.5872,-6.9434,1.214,1.0182,2.1406,75,4.729,91,10.3371,2.609,-11.2052,-0.9749,-0.5288,-0.5382,77,5.121,98,9.6466,-6.0735,-16.7022,0.3953,1.4146,-0.1626,70,5.319,102,8.8559,-5.87,-15.3985,-0.7592,-0.2189,-0.2816,39,82284.279,1591185,-3.1752,1.2708,1.6004,2.1037,1.7483,1.9969,47
5.172,99,-1.8094,2.4199,-8.3089,1.2013,0.0738,0.9492,75,4.781,92,11.6138,0.9026,-11.4477,-0.3794,0.0308,-1.0792,77,5.173,99,8.5089,-9.6243,-20.1949,0.0662,1.484,0.5086,70,5.37,103,11.403,-5.6954,-13.8034,-1.2312,-0.5331,0.4748,39,82284.331,1591186,-3.3009,1.2126,1.816,2.2093,1.6235,2.1331,47
5.224,100,2.1499,4.4347,-14.0607,0.5373,0.1516,0.2284,75,4.832,93,11.2605,1.1732,-11.0489,0.0197,0.1945,-1.4462,77,5.224,100,11.4337,-5.5607,-19.8379,0.7248,0.5005,0.2826,70,5.422,104,11.3093,-3.3952,-14.7756,-0.5932,-1.0559,0.2102,39,82284.383,1591187,-7.6407,-3.0851,3.8888,2.2863,1.4797,2.2325,47
5.276,101,2.5131,0.0943,-16.6616,-0.2852,-0.5587,-0.4851,75,4.884,94,10.1518,0.4974,-9.9013,-0.4444,0.0275,-1.5048,77,5.276,101,13.6106,-5.6652,-18.9612,0.104,-0.1277,0.4366,70,5.474,105,11.4613,-2.5346,-14.8694,-0.1433,-0.9897,0.0471,39,82284.435,1591188,-10.8081,-6.8717,5.4016,2.3425,1.7621,1.9579,47
5.328,102,6.8918,-1.19,-11.0056,-0.3727,-1.0771,-0.969,75,4.936,95,9.5024,0.3902,-8.8565,-0.6435,-0.056,-1.2349,77,5.328,102,13.1792,-4.7284,-17.2975,-0.319,-0.187,0.6872,70,5.525,106,10.789,-1.468,-15.4683,0.3116,-0.8069,0.0105,39,82284.486,1591189,-10.9616,-10.0813,5.7185,1.5127,1.9747,1.5305,47
5.38,103,10.0875,2.262,-6.3097,0.4023,-1.4345,-0.9277,75,4.988,96,9.016,-0.7063,-9.8568,-0.4628,0.4804,-1.1032,77,5.38,103,11.42,-4.9426,-16.0302,-0.7315,-0.1495,0.7427,70,5.577,107,10.1064,-0.7449,-15.6713,0.901,-0.7273,-0.1189,39,82284.538,1591190,-8.5301,-7.0168,3.8116,0.4261,2.1299,0.441,47
5.431,104,12.4199,0.2755,-3.3214,-0.3837,-0.3646,-0.0964,75,5.04,97,8.7333,0.3031,-11.2629,0.334,1.0297,-1.4915,77,5.432,104,10.1479,-4.8408,-15.1289,-0.7854,-0.1759,0.6756,70,5.629,108,9.5288,-0.5786,-13.7646,1.3323,-0.8431,-0.0983,39,82284.59,1591191,-6.2447,-4.4349,2.3167,-0.3669,2.2432,-0.3542,47
5.483,105,9.7644,-3.034,-2.5758,-0.9574,0.4164,-0.4171,75,5.091,98,6.6202,3.0312,-11.672,0.9155,1.4306,-1.5469,77,5.483,105,9.4114,-4.1164,-14.2661,-0.9975,-0.2645,0.6828,70,5.681,109,11.0563,-1.392,-11.2996,1.4165,-1.2589,0.4091,39,82284.642,1591192,0.8007,2.0943,-6.3347,-0.743,1.3194,-0.469,47
5.535,106,8.3052,-4.7027,-1.5667,-1.3762,0.945,-0.5228,75,5.143,99,7.0112,5.2252,-11.6428,1.0302,0.7252,-0.8512,77,5.535,106,9.4024,-3.8248,-13.4746,-1.2377,-0.5645,0.73,70,5.733,110,13.1867,-0.2466,-11.6365,1.7085,-1.5856,0.7883,39,82284.693,1591193,0.8774,1.3777,-7.9399,-1.2201,1.3824,0.3334,47
5.587,107,6.0972,-7.1149,0.2841,-0.6565,1.3721,-0.2406,75,5.195,100,6.6796,6.1701,-11.796,0.637,0.1119,-0.2263,77,5.587,107,10.032,-3.0296,-13.3415,-1.256,-0.9805,0.6786,70,5.784,111,13.0055,1.507,-12.8772,0.9467,-1.3449,1.2557,39,82284.745,1591194,1.0705,0.8756,-8.1077,-1.5684,1.4445,0.919,47
5.638,108,3.9814,-5.5485,-0.3102,0.0172,1.6838,0.132,75,5.247,101,4.9337,6.9588,-11.299,-0.2151,-0.4056,0.1615,77,5.639,108,11.415,-2.4403,-12.5808,-1.1922,-1.389,0.5732,70,5.836,112,10.9635,3.0517,-12.4348,1.3538,-0.5746,0.925,39,82284.797,1591195,1.1993,0.5247,-8.2569,-1.8225,1.5088,1.3464,47
5.69,109,2.8168,-2.9364,-1.9467,0.6649,1.9114,0.4211,75,5.299,102,4.3844,7.0452,-11.1484,-0.837,-0.9349,0.1366,77,5.691,109,13.597,-2.7592,-11.7431,-1.5454,-1.6872,0.7219,70,5.888,113,8.613,2.0926,-12.2949,1.1917,0.2656,0.3123,39,82284.849,1591196,1.2802,0.2572,-8.364,-2.008,1.5719,1.6584,47
5.742,110,1.35,-0.1418,-4.8227,1.1596,2.0774,0.0743,75,5.351,103,4.3149,6.571,-11.279,-1.2741,-1.153,-0.1359,77,5.742,110,10.6411,-1.8219,-13.1011,-1.8031,-1.3536,0.856,70,5.94,114,7.2485,1.7294,-12.6215,0.9865,0.8788,-0.4435,39,82284.9,1591197,1.3243,0.0482,-8.4573,-2.1434,1.6366,1.886,47
5.794,111,-0.3851,-1.0687,-6.2959,1.3928,1.7766,-0.5964,75,5.402,104,4.7483,6.6226,-11.4927,-1.6033,-1.1565,-0.5019,77,5.794,111,9.1399,-2.9722,-11.9687,-1.6311,-0.8342,1.2986,70,5.991,115,8.0613,0.8741,-13.4686,0.0429,1.3264,-0.9951,39,82284.952,1591198,2.335,1.4606,-8.8478,-2.2422,1.6869,2.0522,47
5.845,112,0.3455,1.7972,-2.5955,1.6909,0.6273,-0.5631,75,5.454,105,5.1877,6.0947,-12.1294,-1.5563,-1.1586,-0.6973,77,5.846,112,8.6314,-0.205,-11.6491,-0.5139,0.0694,1.5554,70,6.043,116,10.4898,-1.4333,-15.7449,-0.6458,1.653,-1.3581,39,82285.004,1591199,1.7714,6.3971,-9.7987,-1.9175,1.8115,2.1698,47
5.897,113,0.6744,-1.2575,-9.8908,0.5567,0.8277,-1.0861,75,5.506,106,5.6009,6.702,-12.2478,-1.411,-0.9885,-0.7064,77,5.898,113,9.2183,0.936,-11.882,-0.7472,0.729,1.6149,70,6.095,117,9.7286,-1.3117,-19.178,-1.1484,1.8907,-1.1608,39,82285.056,1591200,0.5309,7.9669,-9.7672,-1.2112,1.8416,2.0837,47
5.949,114,-0.2269,-2.0919,-6.6755,0.202,-0.0653,-0.8214,75,5.558,107,5.9934,7.0246,-12.7208,-1.6444,-1.0172,-0.5038,77,5.95,114,9.7827,1.8611,-12.706,-1.2205,1.2104,1.6744,70,6.147,118,8.5401,-6.2541,-21.9782,-1.2471,0.7692,-0.5403,39,82285.107,1591201,1.8323,9.4315,-8.4063,-0.4707,1.9541,1.9483,47
6.001,115,4.892,-4.7584,-6.892,0.8218,-0.717,-1.2746,75,5.61,108,6.8789,8.3817,-12.5462,-1.8511,-1.1941,-0.3335,77,6.001,115,11.0565,2.5719,-13.8942,-1.2943,1.5618,1.5674,70,6.199,119,10.6164,-0.8718,-20.5773,-1.324,0.3215,-0.1479,39,82285.159,1591202,4.6221,9.8222,-10.2321,0.3303,1.613,1.7524,47
6.053,116,8.628,1.2299,-5.0856,1.2742,-1.0317,-0.2536,75,5.661,109,6.7688,7.8427,-12.4161,-1.8379,-1.2244,-0.3151,77,6.053,116,10.6423,2.4292,-17.0233,-1.2521,1.8182,1.3323,70,6.251,120,12.0976,-4.1727,-19.0261,-1.4353,-0.1845,0.1854,39,82285.211,1591203,3.28,7.1673,-9.5846,0.915,0.8928,1.4049,47
6.105,117,7.7657,5.666,-5.2505,0.2526,-1.0692,0.2243,75,5.713,110,5.3054,7.1643,-11.5758,-2.0189,-1.2169,-0.3267,77,6.105,117,9.5901,1.7586,-19.2278,-0.6166,0.9789,0.8876,70,6.302,121,10.8748,-4.434,-17.8739,-0.9823,-0.287,0.1883,39,82285.263,1591204,2.2548,5.1837,-9.0652,1.3417,0.3568,1.1501,47
6.157,118,8.1684,6.9967,-1.2409,-0.352,-0.2059,0.0589,75,5.765,111,4.3344,6.5226,-11.001,-2.1535,-1.557,0.0151,77,6.157,118,10.4551,2.9711,-16.6897,-0.2822,0.046,0.5328,70,6.354,122,10.5561,-4.0231,-16.3407,-0.6422,-0.2739,0.1151,39,82285.314,1591205,1.5037,3.7196,-8.6364,1.6531,-0.0403,0.9636,47
6.208,119,6.5638,5.4216,0.1707,-0.9343,0.5322,0.2737,75,5.817,112,4.9326,6.3766,-11.0341,-2.2517,-1.7301,0.3564,77,6.209,119,10.7652,0.3446,-15.9531,-0.5358,-0.5449,0.4513,70,6.406,123,9.9359,-3.2784,-15.1557,-0.4317,-0.2898,0.1568,39,82285.366,1591206,-1.4065,2.6295,-11.9665,0.7969,0.1386,0.7089,47
6.26,120,4.8503,3.0006,1.0285,-0.9894,1.0708,0.7384,75,5.869,113,5.6829,6.1216,-11.1386,-2.3234,-1.7645,0.6758,77,6.26,120,10.5588,-0.1227,-14.9295,-0.6278,-0.9031,0.3635,70,6.458,124,9.4771,-2.8732,-14.2286,-0.2716,-0.3467,0.231,39,82285.418,1591207,-1.0022,2.053,-10.2764,-0.0963,0.7898,0.4705,47
6.312,121,2.1641,2.853,0.668,-0.1376,1.4639,0.8901,75,5.92,114,6.3891,5.8425,-10.8124,-1.8791,-1.5967,0.7453,77,6.312,121,8.4187,-1.3061,-15.1576,-0.6273,-1.1128,0.2622,70,6.509,125,9.5109,-2.3864,-13.7991,-0.1843,-0.4802,0.4575,39,82285.47,1591208,-0.6988,1.6762,-8.6989,-0.7481,1.2651,0.1278,47
6.364,122,-1.8953,1.9996,0.1602,0.0702,1.7509,1.3027,75,5.972,115,6.963,5.6671,-10.2156,-1.3271,-1.1751,0.6784,77,6.364,122,10.1894,-1.4015,-14.3099,-0.4439,-1.33,0.1162,70,6.561,126,10.1978,-2.5989,-13.2171,-0.1161,-0.7225,0.7813,39,82285.521,1591209,-0.4529,1.4064,-7.5251,-1.2239,1.612,-0.1257,47
6.415,123,-4.3542,0.1398,-1.6853,0.2605,1.9603,0.7084,75,6.024,116,6.0612,5.8318,-9.3765,-0.8239,-0.7273,0.3564,77,6.416,123,9.1958,-1.8265,-14.6141,-0.2382,-1.4969,-0.0939,70,6.613,127,11.8158,-1.8043,-11.7919,-0.0647,-1.0069,1.2503,39,82285.573,1591210,-0.2616,1.2105,-6.6716,-1.5711,1.8652,-0.3074,47
6.467,124,-3.5851,-0.7044,-4.2868,0.44,1.0858,0.7678,75,6.076,117,6.7088,5.4435,-9.131,-0.6838,-0.5606,0.1657,77,6.467,124,10.1496,-1.6902,-14.5596,-0.1972,-1.5966,0.0264,70,6.665,128,13.7409,-0.3736,-12.0267,0.0538,-1.4016,1.5929,39,82285.625,1591211,-0.1256,1.0854,-6.0679,-1.8245,2.0499,-0.4365,47
6.519,125,-1.471,-0.514,-7.639,0.6961,0.1232,0.5711,75,6.128,118,7.2475,4.8809,-9.5631,-0.3917,-0.3896,0.0066,77,6.519,125,12.6726,-1.5809,-13.6585,-0.6184,-1.8387,0.2159,70,6.717,129,12.4612,1.7257,-12.4107,-0.5695,-1.1183,1.8429,39,82285.677,1591212,-0.0116,1.0009,-5.628,-2.0095,2.1848,-0.5281,47
6.571,126,1.2467,1.9678,-13.5718,1.1752,-0.5791,-0.0168,75,6.179,119,7.9742,3.8738,-10.2636,0.3838,0.1059,-0.5213,77,6.571,126,13.4725,-2.3972,-14.0566,-0.8193,-2.0053,0.275,70,6.769,130,10.5148,2.3998,-12.2714,-0.8491,-0.1312,1.7672,39,82285.728,1591213,0.0861,0.9473,-5.3069,-2.1445,2.2832,-0.5913,47
6.622,127,5.9646,1.3481,-14.9196,1.3911,-0.7881,0.3265,75,6.231,120,6.9882,4.285,-8.7546,0.5986,-0.0,-0.2953,77,6.623,127,8.8673,-1.2532,-16.4874,-1.0763,-1.2788,0.4039,70,6.82,131,8.4199,2.2955,-13.2214,0.0051,0.5892,0.9011,39,82285.78,1591214,-2.6213,6.0225,-1.3098,-1.9614,2.3551,-0.5536,47
6.674,128,6.8986,2.9652,-18.8855,1.6897,-1.2445,0.5045,75,6.283,121,7.668,4.0254,-9.4109,0.1155,-0.3058,0.2019,77,6.675,128,6.9603,-1.6456,-14.004,-1.4293,-0.2682,0.9559,70,6.872,132,7.0589,2.7979,-14.1607,0.4093,1.115,-0.0138,39,82285.832,1591215,3.4452,7.6846,1.6074,-0.7753,1.0557,-0.4335,47
6.726,129,10.0925,7.554,-15.2762,0.7268,-1.5247,1.0448,75,6.335,122,7.0209,4.4954,-10.144,0.756,0.2373,-0.2261,77,6.726,129,6.4246,0.1192,-13.4966,-1.3734,0.4826,1.3754,70,6.924,133,9.6292,1.246,-16.5627,-0.3783,1.4987,-0.6814,39,82285.884,1591216,2.7891,5.6505,0.3279,0.1081,0.1074,-0.427,47
6.778,130,12.4236,4.6017,-10.9787,-0.1469,-1.0335,1.0879,75,6.387,123,5.4965,7.5337,-9.4331,0.3511,0.3446,0.4242,77,6.778,130,7.0966,0.9273,-13.3194,-1.6776,1.0306,1.6461,70,6.976,134,10.2853,-4.3811,-20.0694,-0.9532,1.7788,-1.1688,39,82285.935,1591217,2.2495,4.2044,-0.6854,0.7527,-0.5847,-0.4203,47
6.83,131,13.5264,-0.2771,-5.4216,-0.7846,-0.0719,0.5788,75,6.438,124,6.6171,9.7871,-9.8882,-0.4238,-0.4211,0.975,77,6.83,131,8.8365,0.9364,-14.4027,-1.8996,1.4305,1.8402,70,7.028,135,8.7515,-7.4267,-18.3144,-0.3062,1.0292,-0.7671,39,82285.987,1591218,1.9303,4.8114,2.0631,0.2613,-1.0703,-0.174,47
6.881,132,11.4743,-5.3999,-1.7601,-1.25,0.63,0.783,75,6.49,125,7.8443,9.214,-11.584,-0.9893,-0.966,1.3769,77,6.882,132,10.4214,2.7091,-16.9385,-2.0616,1.7224,1.7961,70,7.079,136,11.5045,-4.507,-10.8072,-0.8043,0.2719,0.1205,39,82286.039,1591219,1.399,3.5985,-0.941,-0.203,-1.4442,0.0511,47
6.933,133,8.8905,-6.9102,-0.8214,-0.6483,1.1422,1.2379,75,6.542,126,7.493,8.5799,-11.3371,-1.4021,-0.378,0.9095,77,6.934,133,10.6357,4.3825,-16.4538,-1.6623,0.6757,1.1765,70,7.131,137,10.0331,-4.4508,-12.8494,-0.5855,-0.4683,0.358,39,82286.091,1591220,1.0791,2.6927,-2.9622,-0.5443,-1.7172,0.2158,47
6.985,134,8.2165,-5.813,-3.0862,-0.1476,1.516,1.5801,75,6.594,127,6.4796,7.3633,-12.522,-1.7033,-0.2582,0.4692,77,6.986,134,9.6306,4.5387,-15.7508,-1.3467,0.1217,0.9095,70,7.183,138,7.2369,-4.9901,-12.8522,-0.9504,0.0116,0.5427,39,82286.142,1591221,0.8361,2.0356,-4.4489,-0.7951,-1.9163,0.3359,47
7.037,135,7.7543,-2.9352,-5.3463,0.5666,1.7889,1.8299,75,6.646,128,6.502,5.9565,-13.8305,-1.7528,0.1183,-0.1537,77,7.037,135,9.7315,1.3471,-14.841,-0.676,-0.2654,0.6569,70,7.235,139,6.9778,-3.7484,-12.6481,-0.6048,0.0994,0.4227,39,82286.194,1591222,0.6625,1.5596,-5.5278,-0.9803,-2.0617,0.4235,47
7.089,136,5.4961,1.2568,-9.7101,1.0879,1.988,1.8497,75,6.697,129,6.4365,5.5514,-14.2119,-1.8309,0.1028,-0.4606,77,7.089,136,9.434,-0.6875,-14.5838,-0.7061,-0.4757,0.5328,70,7.287,140,7.6341,-2.8623,-12.1168,-0.2632,0.0273,0.33,39,82286.246,1591223,0.5235,1.2211,-6.297,-1.1175,-2.1678,0.4869,47
7.14,137,0.9607,4.3333,-10.7552,1.1909,1.2519,1.9268,75,6.749,130,6.6026,4.8882,-14.5498,-1.938,-0.1967,-0.3913,77,7.141,137,9.46,-1.1805,-14.2635,-0.4836,-0.5784,0.4279,70,7.338,141,7.9261,-2.4083,-11.7221,-0.1447,-0.1022,0.4648,39,82286.298,1591224,0.423,0.9721,-6.846,-1.2207,-2.2453,0.5339,47
7.192,138,1.1621,4.6681,-14.1974,0.5546,0.2444,0.7312,75,6.801,131,7.2018,4.3612,-14.1903,-1.8229,-0.5227,-0.3785,77,7.193,138,9.5161,-1.8,-13.9221,-0.4626,-0.6022,0.3676,70,7.39,142,8.591,-2.358,-11.4104,-0.1254,-0.2731,0.7231,39,82286.35,1591225,0.344,0.7994,-7.2427,-1.2979,-2.3018,0.5675,47
7.244,139,2.3898,8.797,-9.8231,0.7237,-0.2396,-0.1415,75,6.853,132,6.5362,3.8272,-13.3103,-1.8797,-0.4823,-0.4155,77,7.244,139,9.6221,-2.2779,-13.5054,-0.6641,-0.6511,0.3941,70,7.442,143,10.0968,-1.7005,-10.9674,-0.2576,-0.5575,1.198,39,82286.401,1591226,-1.6284,-0.3496,-6.8788,-1.3021,-2.2994,0.5202,47
7.296,140,0.1731,5.0294,-5.1589,-0.1492,-0.8442,-0.7696,75,6.905,133,7.2046,2.8843,-12.7644,-1.5814,-0.6324,-0.2402,77,7.296,140,9.7535,-2.328,-13.293,-0.7949,-0.8469,0.4462,70,7.494,144,12.4863,-0.3037,-10.8925,-0.1616,-0.9375,1.5547,39,82286.453,1591227,0.7989,0.0672,-10.7548,-1.6193,-1.6078,-0.2612,47
7.348,141,0.1458,7.6549,-8.8167,-0.7863,-1.2855,-1.0372,75,6.957,134,8.2215,3.8092,-11.5087,-1.3416,-0.7718,-0.0003,77,7.348,141,10.8364,-2.1609,-12.5512,-0.9284,-1.2261,0.5179,70,7.546,145,12.1049,0.6167,-12.5476,-0.795,-0.4776,1.815,39,82286.505,1591228,0.1812,0.5471,-9.758,-1.8597,-0.4848,-0.8667,47
7.399,142,5.164,6.6583,-3.8437,0.0314,-0.3937,-1.1875,75,7.008,135,8.1927,3.3561,-11.7265,-1.5706,-0.7644,0.0946,77,7.4,142,13.1746,-1.8906,-10.7029,-1.3528,-1.5683,0.7384,70,7.597,146,11.0324,3.5841,-12.3575,-1.2573,0.246,2.005,39,82286.556,1591229,-0.2832,1.1599,-8.5612,-2.0352,0.3349,-1.3086,47
7.451,143,4.6696,5.3063,-0.7114,-0.6545,0.3951,-0.8161,75,7.06,136,7.8356,3.1814,-10.7984,-0.931,-0.5734,-0.0744,77,7.452,143,12.8868,-2.1962,-10.9742,-1.6626,-1.6807,0.8557,70,7.649,147,9.5396,3.9929,-12.8006,-1.0035,0.8645,1.5452,39,82286.608,1591230,-0.6705,1.5231,-7.675,-2.1632,0.9331,-1.6311,47
7.503,144,3.7829,1.5655,0.452,-1.1254,0.9112,-0.9621,75,7.112,137,7.3262,5.0479,-9.5295,-1.1033,-0.6544,0.2533,77,7.504,144,12.0566,-3.7522,-9.0356,-1.8233,-1.1229,1.2136,70,7.701,148,8.5937,4.3329,-13.6676,-0.8572,1.3159,0.4563,39,82286.66,1591231,4.869,-2.9781,-13.6271,-0.9175,0.1531,-1.8099,47
7.555,145,3.8667,-1.2563,0.882,-0.3222,1.3474,-0.5679,75,7.164,138,7.7865,4.6676,-10.408,-1.4853,-0.7381,0.3538,77,7.555,145,10.0093,-0.9913,-9.4737,-0.7051,-0.1412,1.2309,70,7.753,149,9.9053,3.3079,-15.6077,-1.3027,1.6454,-0.3384,39,82286.712,1591232,4.0754,-2.2761,-11.8461,0.0042,-0.3667,-1.997,47
7.607,146,4.781,-2.2439,1.0604,0.4392,1.6658,-0.1831,75,7.216,139,7.9363,5.2398,-11.0121,-0.9812,-0.3694,-0.1301,77,7.607,146,9.5729,0.3954,-10.1892,-0.5815,0.5753,1.2462,70,7.805,150,11.2087,1.6173,-19.3724,-1.6278,1.8858,-0.9184,39,82286.764,1591233,3.5095,-1.7492,-10.5911,0.677,-0.728,-2.1336,47
7.658,147,4.0494,-1.9999,0.0479,0.8936,1.8982,0.207,75,7.267,140,7.5525,6.7742,-10.9333,-1.1276,-0.3194,-0.3829,77,7.659,147,10.0372,1.4774,-11.3799,-0.7517,1.0982,1.1265,70,7.857,151,9.0836,0.2352,-21.4144,-1.1566,1.3705,-0.8951,39,82286.815,1591234,3.1041,-1.3462,-9.6613,1.168,-0.9691,-2.2332,47
7.71,148,4.1016,-1.0849,-1.4187,1.3266,2.0678,0.2316,75,7.319,141,7.9554,7.3537,-11.6431,-1.503,-0.5846,-0.4703,77,7.711,148,11.9125,1.0724,-14.8942,-0.6024,1.4799,0.7817,70,7.909,152,9.8674,-1.2905,-21.9206,-1.5212,0.3335,-0.1748,39,82286.867,1591235,2.8189,-1.0286,-8.9696,1.5263,-1.1234,-2.306,47
7.762,149,3.6249,1.3137,-4.1326,1.4748,2.1193,0.1986,75,7.371,142,7.8945,7.2683,-11.9658,-1.777,-0.6669,-0.6969,77,7.763,149,10.2618,1.2898,-18.8754,-0.8903,1.7584,0.6638,70,7.96,153,5.8893,-3.2914,-20.2563,-1.1127,-0.3542,0.0989,39,82286.919,1591236,2.6166,-0.7912,-8.4807,1.7878,-1.2158,-2.3591,47
7.814,150,1.5788,3.0458,-6.6935,1.2889,1.8119,0.3369,75,7.423,143,6.8795,7.1893,-11.6419,-1.9769,-0.784,-0.9113,77,7.814,150,12.7553,-1.7212,-11.7332,-0.1799,0.8668,0.4353,70,8.012,154,6.9793,-3.219,-18.5124,-0.7781,-0.5883,0.0593,39,82286.971,1591237,2.4807,-0.6,-8.1309,1.9787,-1.2597,-2.3978,47
7.866,151,-2.733,3.5568,-10.8375,0.9097,1.1771,-0.0556,75,7.475,144,6.1225,6.3285,-11.4282,-2.1229,-0.8786,-1.0966,77,7.866,151,12.7243,-0.1241,-10.4834,0.354,0.1845,0.4391,70,8.064,155,7.4862,-2.4771,-17.0573,-0.4533,-0.4883,0.0781,39,82287.023,1591238,2.3817,-0.4378,-7.8643,2.118,-1.2726,-2.4261,47
7.917,152,1.1808,5.8581,-5.3186,1.3383,0.1898,-0.3059,75,7.526,145,6.2299,5.5803,-11.3111,-2.2294,-0.9416,-0.9745,77,7.918,152,12.0788,-0.5225,-12.0802,0.4887,-0.1881,0.4614,70,8.115,156,8.0566,-2.3452,-15.2308,-0.2375,-0.4404,0.0849,39,82287.074,1591239,-3.4933,-5.0856,-9.8019,2.2197,-1.1892,-2.4467,47
7.969,153,0.9923,4.0778,-8.0416,0.2994,0.0615,0.4534,75,7.578,146,7.9382,4.6772,-11.9174,-2.2263,-0.821,-0.6644,77,7.97,153,11.4239,-0.9915,-12.078,0.1176,-0.157,0.499,70,8.167,157,7.547,-1.6848,-14.6112,-0.2771,-0.4845,0.2032,39,82287.126,1591240,-5.8135,-7.9537,-9.1513,2.2939,-1.0441,-2.0446,47
8.021,154,0.7338,6.5853,-13.8656,-0.4589,-0.6239,-0.2261,75,7.63,147,9.4493,4.1228,-12.1926,-1.546,-0.2774,-0.5171,77,8.022,154,10.677,-1.888,-11.3891,0.0068,-0.1639,0.3673,70,8.219,158,7.9164,-1.4064,-13.9899,-0.0826,-0.6158,0.3833,39,82287.178,1591241,-6.6001,-7.2197,-9.8411,1.746,-0.6618,-0.8166,47
8.073,155,5.5932,-0.3915,-16.6186,-0.3388,-1.1244,-0.8385,75,7.682,148,8.2219,2.9469,-12.7014,-0.4636,0.3727,-0.8936,77,8.073,155,10.2131,-2.1644,-10.9773,0.0307,-0.3065,0.2846,70,8.271,159,9.5055,-1.3143,-13.3195,0.0869,-0.9738,0.8542,39,82287.23,1591242,-4.5911,-5.2275,-9.7786,1.1553,-0.1994,0.0797,47
8.124,156,9.1397,1.1823,-10.6716,-0.9247,-0.3819,-0.0258,75,7.734,149,6.4683,3.3018,-11.7129,0.3333,0.7198,-0.8517,77,8.125,156,9.8053,-2.5806,-10.7738,-0.025,-0.5986,0.3007,70,8.323,160,12.0548,-1.4341,-11.7847,0.4536,-1.3775,1.3038,39,82287.281,1591243,-3.076,-3.7803,-9.779,0.7307,0.1473,0.7339,47
8.176,157,6.4976,-1.3092,-6.9845,-1.3522,0.4037,-0.1279,75,7.785,150,5.8649,4.7257,-11.0764,0.7726,0.2035,0.0438,77,8.177,157,10.1718,-2.555,-10.6867,-0.2285,-0.9366,0.4148,70,8.374,161,13.9154,0.2883,-13.5554,0.9896,-1.6722,1.6319,39,82287.333,1591244,3.1134,-5.9082,-4.5738,0.4156,-0.3012,0.9011,47
8.228,158,5.0024,-3.0366,-4.789,-0.7621,0.977,0.3789,75,7.837,151,6.1028,6.1911,-10.9056,0.3627,-0.1008,0.6973,77,8.229,158,10.6267,-3.0884,-10.7892,-0.3765,-1.357,0.5768,70,8.426,162,10.699,-0.1623,-15.0709,0.0452,-0.6257,1.8714,39,82287.385,1591245,2.5951,-4.2252,-5.2885,-0.039,-0.8829,0.7624,47
8.28,159,4.2789,-4.9534,-3.5034,0.045,1.3955,0.9531,75,7.889,152,6.5397,6.9062,-10.8032,-0.4153,-0.6937,1.1743,77,8.28,159,12.1809,-1.9731,-10.6816,-0.95,-1.6638,0.786,70,8.478,163,8.6076,1.5713,-14.411,-0.1457,0.2268,1.6274,39,82287.437,1591246,2.0188,-3.0141,-5.264,-0.3751,-1.3075,0.663,47
8.332,160,4.8315,-4.2092,-3.347,0.7072,1.7009,1.3454,75,7.941,153,6.7622,6.3828,-11.2139,-0.9389,-0.7928,1.1092,77,8.332,160,14.1559,-1.7653,-10.5728,-1.3686,-1.8877,1.0375,70,8.53,164,7.3882,1.8828,-14.5858,-0.4112,0.8505,1.0043,39,82287.488,1591247,1.5984,-2.1316,-5.2518,-0.6231,-1.6174,0.5919,47
8.383,161,6.4054,-3.2688,-4.2148,1.1905,1.9238,1.2333,75,7.993,154,6.8757,5.865,-11.1887,-0.8445,-0.7194,0.498,77,8.384,161,11.9831,-1.9498,-12.4412,-1.6741,-1.7446,1.106,70,8.582,165,6.522,2.2851,-15.4861,-0.5458,1.3057,0.0615,39,82287.54,1591248,1.2827,-1.4732,-5.2785,-0.8076,-1.8435,0.5414,47
8.435,162,5.3064,-1.4337,-6.7834,1.5433,2.0649,1.1309,75,8.045,155,7.0241,5.5654,-11.0006,-0.4798,-0.4832,-0.2355,77,8.436,162,10.1021,-1.6598,-11.5374,-1.5002,-0.9309,1.3931,70,8.633,166,8.0547,1.5834,-17.7409,-1.0617,1.6379,-0.6265,39,82287.592,1591249,1.0458,-0.994,-5.3052,-0.945,-2.0086,0.5062,47
8.487,163,3.465,1.2983,-9.2867,1.7967,2.1469,1.2156,75,8.096,156,6.8528,5.6882,-10.5249,-0.1458,-0.3098,-0.5024,77,8.488,163,9.5259,-0.3911,-12.0221,-1.0684,-0.0011,1.5741,70,8.685,167,10.996,-0.7333,-19.837,-1.452,1.8804,-1.1286,39,82287.644,1591250,0.8591,-0.6358,-5.3225,-1.0483,-2.129,0.4827,47
8.539,164,-0.6812,2.8531,-10.8326,1.2537,1.4901,0.2589,75,8.148,157,6.7013,6.4327,-9.8581,-0.1764,-0.3309,-0.1607,77,8.539,164,10.2044,1.0952,-12.2093,-0.7621,0.6776,1.6151,70,8.737,168,10.6816,-1.3845,-21.0447,-1.6621,1.6248,-1.2171,39,82287.695,1591251,0.7166,-0.3662,-5.3446,-1.1266,-2.2169,0.466,47
8.591,165,0.1367,4.4621,-14.4698,0.2377,0.4182,-0.4861,75,8.2,158,6.9397,6.7194,-10.2292,-0.8018,-0.6741,0.5163,77,8.591,165,10.3577,2.0881,-13.0026,-0.947,1.1729,1.4645,70,8.789,169,12.9132,-1.546,-12.7516,-1.8738,0.5191,-0.208,39,82287.747,1591252,5.8814,1.2403,-5.9349,-1.1573,-1.6962,0.5448,47
8.642,166,0.3548,7.1042,-13.0298,-0.5039,-0.3641,-0.3408,75,8.252,159,8.4131,7.0531,-10.5002,-1.2652,-0.9668,1.0422,77,8.643,166,9.8316,1.3555,-14.7204,-0.5079,1.5344,1.1521,70,8.84,170,10.6837,-1.1287,-13.7549,-1.6621,-0.238,0.308,39,82287.799,1591253,6.0691,-0.6988,-2.5911,-1.0312,-1.027,1.0682,47
8.694,167,5.3166,-0.0128,-6.9186,-1.0452,-0.9351,0.09,75,8.304,160,8.3396,6.3824,-11.4074,-1.6035,-0.6414,1.0882,77,8.695,167,9.5929,1.1926,-16.4932,0.0656,1.7982,0.5583,70,8.892,171,9.6534,-2.2273,-13.6155,-1.0195,-0.6395,0.5071,39,82287.851,1591254,4.627,-0.9695,-3.9748,-1.0704,-0.0609,1.4553,47
8.746,168,7.4647,3.8237,-2.4584,-0.6198,-0.0,0.4042,75,8.356,161,7.7111,5.6642,-11.5182,-1.1355,-0.2083,0.4012,77,8.747,168,8.0362,0.1816,-19.1776,-0.269,1.8546,0.3827,70,8.944,172,9.7574,-1.8905,-13.8972,-0.7263,-0.7483,0.4982,39,82287.903,1591255,3.6019,-1.1788,-4.9652,-1.0717,0.6442,1.7378,47
8.798,169,5.4187,3.2276,-0.835,-1.1298,0.6824,-0.3506,75,8.407,162,6.9371,5.2341,-11.2092,-1.1615,0.1006,0.0203,77,8.798,169,10.4717,-4.2443,-20.9234,-0.4145,0.6811,0.4903,70,8.996,173,9.7803,-1.8191,-13.3265,-0.374,-0.7062,0.4635,39,82287.954,1591256,2.8585,-1.2741,-5.7621,-1.039,1.1588,1.944,47
8.849,170,4.8233,-0.7284,0.7039,-1.2619,1.1684,-0.6608,75,8.459,163,6.0914,5.1638,-11.0502,-1.5277,-0.1401,0.1036,77,8.85,170,11.1969,-2.7377,-19.2426,-0.4281,-0.1763,0.5818,70,9.048,174,9.5064,-1.6975,-13.1245,-0.1787,-0.6137,0.4473,39,82288.006,1591257,1.5932,-1.8482,-4.7025,-1.4352,0.1827,0.7428,47
8.901,171,5.3108,-4.2052,1.1924,-0.8034,1.5352,-0.4754,75,8.511,164,7.677,4.7411,-11.8464,-1.795,-0.4294,0.3541,77,8.902,171,11.1227,-2.1065,-17.763,-0.157,-0.3878,0.4381,70,9.099,175,9.215,-1.8928,-12.4731,-0.1694,-0.5935,0.531,39,82288.058,1591258,0.8185,-2.2595,-4.8434,-1.7254,-0.5298,-0.1339,47
8.953,172,5.2272,-5.2751,0.2084,0.088,1.8029,0.0472,75,8.563,165,8.358,3.7109,-12.8782,-1.4304,-0.1297,0.1152,77,8.954,172,10.8721,-2.8355,-16.3023,-0.2411,-0.3314,0.3471,70,9.151,176,9.0318,-1.7949,-12.8262,-0.256,-0.5963,0.6527,39,82288.109,1591259,0.264,-2.5829,-4.9268,-1.9363,-1.0497,-0.7738,47
9.005,173,3.7608,-4.2863,-1.1609,0.0182,1.9982,0.6952,75,8.615,166,8.9575,3.7184,-12.9184,-0.7419,0.0904,-0.452,77,9.006,173,10.4826,-2.2845,-14.2516,-0.4009,-0.2328,0.2329,70,9.203,177,9.5209,-1.5709,-12.8645,-0.0008,-0.7229,0.8467,39,82288.161,1591260,-0.1124,-2.8482,-4.9931,-2.0704,-1.4292,-1.2408,47
9.057,174,1.1581,-4.0781,-3.5608,-0.1928,2.1408,1.184,75,8.666,167,8.0283,3.3983,-12.1964,-0.3033,0.231,-0.8153,77,9.057,174,10.1122,-2.3604,-12.8819,-0.4681,-0.3378,0.1754,70,9.255,178,10.6772,-1.3394,-12.4971,0.36,-0.9726,1.1633,39,82288.213,1591261,-0.3457,-3.0475,-5.0397,-2.11,-1.7062,-1.5817,47
9.108,175,0.0728,-2.1739,-4.3207,0.5202,2.0472,1.5408,75,8.718,168,8.1635,2.7353,-11.7633,-0.082,-0.0269,-0.7841,77,9.109,175,9.5831,-2.3313,-12.2599,-0.5546,-0.6226,0.1063,70,9.307,179,12.7264,0.1777,-12.0029,0.6785,-1.3704,1.5249,39,82288.265,1591262,-0.4737,-3.2235,-5.0621,-2.0815,-1.9083,-1.8304,47
9.16,176,-0.1923,0.5413,-7.1883,1.024,1.3376,1.3312,75,8.77,169,8.2621,2.2377,-11.9298,0.4446,-0.1384,-0.5104,77,9.161,176,9.7257,-1.6594,-12.0575,-0.4526,-0.9842,0.0559,70,9.359,180,14.0849,1.9298,-12.5155,0.904,-1.5438,1.7933,39,82288.316,1591263,-0.5152,-3.382,-5.0823,-1.9911,-2.0559,-2.012,47
9.212,177,-0.4241,2.5912,-9.7235,0.2998,0.3069,0.2999,75,8.822,170,7.4846,2.39,-11.3143,0.9962,-0.1937,-0.1703,77,9.213,177,10.7292,-1.8352,-11.453,-0.4739,-1.3917,-0.0092,70,9.41,181,12.5633,0.041,-14.6599,-0.0173,-1.2563,1.9878,39,82288.368,1591264,-0.4794,-3.5147,-5.1061,-1.8671,-2.1636,-2.1445,47
9.264,178,4.7481,-3.3065,-4.5055,-0.4586,-0.4453,0.2019,75,8.874,171,6.7023,3.2774,-10.6659,1.3561,-0.1107,0.2684,77,9.265,178,13.0964,-0.0096,-9.6685,-0.9738,-1.6891,-0.0137,70,9.462,182,9.7755,1.2035,-13.6275,-0.6856,-0.2505,1.536,39,82288.42,1591265,-4.5568,1.3937,-7.8885,-1.7071,-2.2421,-2.2412,47
9.316,179,3.5758,-2.8411,-0.6972,0.3397,-0.9944,-0.3062,75,8.925,172,6.8428,3.3419,-9.8547,1.2763,-0.1455,0.6892,77,9.316,179,13.8539,-3.484,-10.6071,-1.3386,-1.9062,-0.182,70,9.514,183,7.3506,0.1318,-13.4772,-0.2859,0.5021,0.4854,39,82288.472,1591266,-8.5573,1.936,-10.5569,-1.8236,-2.2816,-1.859,47
9.367,180,7.6674,3.2712,-2.8581,-0.1733,-1.2162,-0.6524,75,8.977,173,6.8006,2.5909,-10.3279,1.3901,-0.1308,0.8131,77,9.368,180,11.3585,-3.3105,-14.9208,-0.3005,-1.6264,-0.4048,70,9.566,184,6.8501,0.4431,-13.4593,0.3688,1.0514,-0.3172,39,82288.524,1591267,-6.0447,1.2746,-10.2368,-1.8864,-1.257,-0.8473,47
9.419,181,8.181,1.4121,-1.7476,-0.3642,-0.2411,0.1221,75,9.029,174,7.5469,3.0473,-10.6237,1.6863,0.0523,0.599,77,9.42,181,9.216,-2.3319,-13.1117,-0.2806,-0.6401,-0.6355,70,9.617,185,8.6109,-0.3392,-14.3906,-0.2508,1.4523,-0.9029,39,82288.575,1591268,-4.1376,0.8217,-9.9333,-1.9271,-0.498,-0.0985,47
9.471,182,8.8878,-0.1031,0.0097,-0.294,0.5065,0.5149,75,9.081,175,8.4271,3.7828,-11.1749,1.7949,0.1791,0.8635,77,9.472,182,8.6577,-1.7196,-12.8648,-0.2197,0.2111,-0.8193,70,9.669,186,9.4468,-3.6023,-15.7254,-0.7654,1.661,-1.3304,39,82288.627,1591269,-2.5128,0.2259,-9.6112,-1.9527,0.0646,0.45,47
9.523,183,8.7294,-3.7418,0.3963,-0.799,1.0521,1.0394,75,9.133,176,9.8387,3.8114,-11.8575,1.581,0.1567,1.0008,77,9.524,183,8.6324,-1.8391,-13.4763,0.0319,0.8325,-0.8019,70,9.721,187,8.2465,-5.1925,-19.451,0.1161,1.0227,-1.6294,39,82288.679,1591270,-1.462,-0.1583,-9.0505,-1.033,-0.6097,-0.3477,47
9.575,184,7.3345,-4.8778,-0.4464,0.0912,1.4503,1.4352,75,9.184,177,9.1517,4.3353,-12.1058,0.6346,0.0361,0.9791,77,9.575,184,10.3574,-2.8,-14.3563,0.5039,1.2859,-0.6547,70,9.773,188,8.071,-8.5579,-20.3307,-0.5891,0.5805,-0.5431,39,82288.731,1591271,-0.7423,-0.3708,-9.0599,-0.346,-1.0994,-0.9298,47
9.626,185,5.6445,-4.4964,-1.7884,0.7364,1.7409,1.7241,75,9.236,178,9.5067,3.3024,-12.6591,0.1179,-0.0509,0.1164,77,9.627,185,11.5367,-2.6282,-16.1903,1.0443,1.6169,-0.7092,70,9.825,189,4.6796,-6.4578,-17.8433,-0.566,0.776,0.2825,39,82288.782,1591272,-0.2224,-0.5145,-9.0465,0.1735,-1.4509,-1.3547,47
9.678,186,3.9708,-3.9159,-3.3476,1.2118,1.8186,1.935,75,9.288,179,9.094,2.5979,-12.5384,0.4227,0.043,-0.6014,77,9.679,186,9.8727,-2.8354,-17.2968,1.1889,1.5296,-0.4113,70,9.876,190,7.1327,-4.1069,-16.9722,-0.1426,0.3985,0.2934,39,82288.834,1591273,0.1802,-0.6069,-9.0522,0.5672,-1.6978,-1.6648,47
9.73,187,3.239,-1.8932,-5.4784,1.5588,1.2998,2.0889,75,9.34,180,8.7076,2.7956,-12.1126,0.6133,0.1101,-1.1253,77,9.731,187,8.8632,-2.9369,-18.0509,0.9146,0.5134,-0.1445,70,9.928,191,7.8048,-3.3349,-16.1747,0.03,0.1833,0.3832,39,82288.886,1591274,0.4698,-0.6486,-9.0558,0.8716,-1.8651,-1.8911,47
9.782,188,2.5207,0.8542,-7.5008,1.675,0.8212,2.2012,75,9.392,181,8.4383,2.4595,-11.7896,0.2571,0.2638,-1.5077,77,9.783,188,11.3875,-5.3292,-19.0154,1.0625,-0.2972,0.2138,70,9.98,192,7.5452,-2.8036,-15.6383,0.1117,0.0086,0.3852,39,82288.938,1591275,0.6967,-0.6675,-9.0603,1.1076,-1.9747,-2.0562,47
9.833,189,6.5198,4.7792,-2.8833,1.8969,0.3648,1.815,75,9.443,182,7.5127,1.8061,-11.508,0.2687,0.4508,-1.6448,77,9.834,189,8.4594,-3.9689,-17.7712,0.5856,-0.8267,0.4387,70,10.032,193,7.4595,-2.1162,-15.4673,0.2633,-0.0822,0.3529,39,82288.989,1591276,-3.2723,-1.7048,-7.1072,1.2851,-1.9922,-2.1768,47
9.885,190,3.4453,3.0832,-5.1138,1.2399,0.122,1.5266,75,9.495,183,7.5443,1.4955,-11.5029,0.521,0.6213,-1.2431,77,9.886,190,9.461,-2.3693,-16.4953,0.6253,-0.8564,0.4875,70,10.083,194,7.2319,-1.7754,-15.3406,0.4091,-0.1061,0.3551,39,82289.041,1591277,0.1242,-1.8899,-4.8835,1.6118,-1.455,-2.1184,47
9.937,191,1.8205,4.4545,-5.633,0.4548,-0.5803,1.0805,75,9.547,184,7.4409,1.6249,-11.6031,0.9763,0.9253,-0.5509,77,9.938,191,9.4957,-2.4419,-15.3423,0.3454,-0.7718,0.4852,70,10.135,195,8.0378,-1.9049,-14.7475,0.4366,-0.138,0.4834,39,82289.093,1591278,-0.6114,-2.5904,-1.1354,1.8502,-1.1114,-1.5326,47
9.989,192,5.1348,-0.5076,-10.7519,-0.3455,-1.0928,1.2202,75,9.599,185,8.0495,2.5469,-11.8417,1.167,1.0121,0.2145,77,9.989,192,9.3308,-1.8125,-14.0802,0.2469,-0.6565,0.4554,70,10.187,196,8.6757,-1.3091,-14.3126,0.5664,-0.2968,0.7159,39,82289.144,1591279,-2.3652,-1.7584,-0.7172,2.0243,-0.3662,-0.5144,47
10.041,193,8.7782,-1.7434,-5.256,0.4032,-0.2543,0.701,75,9.651,186,8.6689,2.6362,-13.4257,1.3335,1.3269,0.7623,77,10.041,193,8.7237,-1.4986,-13.4472,0.1958,-0.7356,0.4463,70,10.239,197,9.2781,-0.9484,-13.9915,0.5921,-0.6411,1.1314,39,82289.196,1591280,-2.0942,-1.217,-1.4489,2.1513,0.2189,0.2822,47
10.092,194,6.2148,-0.3264,-2.3024,-0.2803,0.3811,0.6058,75,9.703,187,8.8901,3.7309,-13.2501,1.645,1.3114,0.9384,77,10.093,194,9.2405,-1.4626,-12.9462,0.4452,-1.0416,0.4491,70,10.291,198,11.8889,-0.4419,-14.1237,0.9631,-1.1347,1.4187,39,82289.248,1591281,-1.8812,-0.867,-2.0191,2.244,0.6091,0.8622,47
10.144,195,5.8866,-2.0009,-2.9063,-0.7632,0.9604,0.2756,75,9.755,188,8.3778,6.6205,-12.7086,1.3298,0.9596,1.2782,77,10.145,195,10.0367,-1.8834,-12.8938,0.0164,-1.3623,0.4755,70,10.342,199,12.7482,0.5666,-14.5062,1.3776,-1.4521,1.6597,39,82289.3,1591282,3.9854,-5.8906,-9.4992,1.4941,0.0528,1.3002,47
10.196,196,5.8612,-4.3485,-3.8357,-0.4576,1.2124,0.0054,75,9.806,189,7.4722,6.0165,-12.1076,1.2607,0.8207,0.729,77,10.197,196,12.5909,-0.9658,-12.4598,-0.3208,-1.6676,0.4273,70,10.394,200,9.1359,-1.5329,-16.3746,0.4389,-1.0897,1.7172,39,82289.351,1591283,2.1688,-3.436,-8.9791,1.7643,-0.5488,1.6247,47
10.248,197,4.2266,-3.9928,-3.6849,-0.3543,1.4919,0.129,75,9.858,190,6.253,6.0665,-10.8682,1.4628,0.7217,0.2429,77,10.249,197,12.8292,1.9893,-13.107,-0.9089,-1.8905,0.4998,70,10.446,201,6.8848,-1.8458,-14.06,-0.3567,-0.4847,0.7677,39,82289.403,1591284,0.8285,-1.6699,-8.646,1.9615,-1.0145,1.8614,47
10.3,198,1.805,-1.7036,-3.239,0.4158,1.3828,0.3813,75,9.91,191,5.5678,6.2838,-10.8511,0.8314,0.4438,-0.1361,77,10.301,198,9.3815,0.2018,-13.3769,-0.0414,-1.7851,0.0548,70,10.498,202,6.3214,-2.6181,-13.1495,-0.3288,0.171,-0.1111,39,82289.455,1591285,-0.1183,-0.3463,-8.4038,2.1055,-1.3787,2.0343,47
10.351,199,4.1757,-0.5247,-1.9427,0.5123,0.9987,-0.3965,75,9.962,192,6.1625,5.5478,-11.5618,0.965,0.4595,-0.7474,77,10.352,199,8.0216,-2.1747,-16.8133,0.4655,-1.4293,-0.6339,70,10.55,203,6.5837,-3.2411,-12.3735,0.2419,0.8098,-0.7525,39,82289.507,1591286,-0.7781,0.6556,-8.2281,2.2106,-1.6579,2.1604,47
10.403,200,3.7503,-3.3783,-8.3575,-0.3035,1.4113,-0.8431,75,10.013,193,5.1949,5.7135,-11.1368,1.2668,0.5986,-1.063,77,10.404,200,8.8311,0.9033,-13.5197,0.0648,-0.7436,-1.1367,70,10.602,204,8.1432,-4.0118,-13.4229,0.6186,1.276,-1.2206,39,82289.559,1591287,-1.2248,1.4418,-8.0917,2.2872,-1.8702,2.2524,47
10.455,201,3.4964,-1.7922,-14.0962,-0.561,1.7125,-1.1516,75,10.065,194,4.6449,5.9705,-10.0736,0.627,0.2068,-0.4864,77,10.456,201,8.182,-0.285,-12.4276,-0.3076,0.1357,-1.2882,70,10.653,205,8.8803,-5.7483,-15.2105,1.126,1.6162,-1.5623,39,82289.61,1591288,4.4644,-4.2056,-8.2224,2.3432,-2.0279,2.3196,47
10.507,202,-0.8514,-4.3987,-14.0379,0.1813,0.5805,-1.155,75,10.117,195,8.1113,6.6012,-9.9293,-0.2224,-0.5217,0.3104,77,10.508,202,7.7537,-1.6884,-12.8149,0.452,0.7774,-1.2056,70,10.705,206,6.6148,-6.701,-16.9095,1.4965,1.3273,-1.8116,39,82289.662,1591289,8.5886,-8.3273,-5.8209,1.5039,-2.1432,2.3687,47
10.559,203,4.4362,-8.4031,-16.0173,0.8067,-0.2457,-1.5045,75,10.169,196,10.8399,2.0158,-13.4914,-0.8423,-0.2087,0.5483,77,10.56,203,10.4677,-2.8,-13.3903,1.0064,1.2457,-1.5489,70,10.757,207,9.9451,-2.6014,-9.7335,0.6585,0.3019,-0.9501,39,82289.714,1591290,9.4104,-11.3355,-9.7979,0.8879,-2.2273,2.4044,47
10.61,204,7.067,-0.743,-9.099,0.2487,0.5031,-0.4227,75,10.221,197,10.052,0.3859,-13.0914,0.057,0.3265,-0.2862,77,10.611,204,11.8843,-3.3233,-13.7525,1.4111,1.5875,-1.6891,70,10.809,208,1.7857,1.5795,-15.0852,-0.1337,0.9053,-0.0131,39,82289.766,1591291,7.2222,-7.6537,-8.0586,-0.0299,-2.2886,2.4306,47
10.662,205,6.4772,-2.2242,-9.6512,0.7519,1.0496,0.3681,75,10.273,198,7.9625,2.7438,-11.9956,-0.1011,0.0876,0.384,77,10.663,205,9.9508,-3.2044,-15.3792,1.0839,1.5929,-1.1753,70,10.86,209,6.4206,2.0572,-14.5922,-0.0967,-0.0061,-0.073,39,82289.818,1591292,5.6642,-4.955,-6.7702,-0.6997,-2.3334,2.4496,47
10.714,206,2.5098,1.8002,-5.0197,1.2231,1.3822,0.442,75,10.324,199,8.0889,0.6201,-12.6881,-0.7454,-0.3967,0.9456,77,10.715,206,7.4646,-3.6572,-16.871,1.1765,1.0464,-0.7233,70,10.912,210,7.6038,1.6478,-14.435,0.0026,-0.3069,0.099,39,82289.869,1591293,9.4923,-6.756,-12.9668,-0.2089,-1.1901,1.1118,47
10.766,207,2.0191,-1.1747,-4.89,0.2153,1.1755,0.5285,75,10.376,200,7.3229,-0.082,-12.7551,-0.1701,-0.6802,0.6654,77,10.767,207,10.7137,-1.7555,-15.3151,1.5352,0.5674,-0.2444,70,10.964,211,8.224,1.2958,-13.7571,-0.2208,-0.2504,0.2969,39,82289.921,1591294,7.3941,-3.7754,-10.9302,0.2276,-0.1799,0.1354,47
10.818,208,3.9054,-2.7564,-6.5927,-0.5202,1.5403,1.0624,75,10.428,201,7.5627,1.1407,-13.2287,0.5475,-0.0807,0.3416,77,10.819,208,4.3165,-4.7715,-17.0188,1.2765,-0.1989,0.0284,70,11.016,212,7.9247,0.0182,-13.4104,-0.2388,-0.2684,0.4152,39,82289.973,1591295,5.7165,-1.5634,-9.1919,0.4953,0.5573,-0.5773,47
10.869,209,3.7438,-2.9529,-7.3477,-0.7171,1.8066,1.452,75,10.48,202,7.1874,1.6888,-13.4209,1.0714,0.4826,0.0615,77,10.87,209,6.4258,-2.3327,-16.7917,1.18,-0.4418,0.0655,70,11.068,213,8.1358,-0.3446,-13.7057,0.0414,-0.3448,0.2836,39,82290.025,1591296,4.4449,0.0506,-7.9254,0.6258,1.0954,-1.0974,47
10.921,210,2.1542,-1.4614,-11.8963,-0.1398,2.001,1.6309,75,10.532,203,5.5945,1.7805,-12.6365,1.4537,0.6651,-0.3108,77,10.922,210,7.5429,-1.0253,-15.7956,1.0356,-0.5076,0.123,70,11.119,214,8.2454,-0.1365,-13.9369,0.2468,-0.33,0.2457,39,82290.076,1591297,3.4754,1.2237,-6.9919,0.669,1.4882,-1.477,47
10.973,211,-1.5059,-2.5166,-16.679,-0.1445,0.7911,1.1024,75,10.583,204,7.2379,0.5448,-12.5205,0.9771,-0.0552,0.0692,77,10.974,211,7.8225,-0.8678,-14.7016,0.9069,-0.5597,0.0477,70,11.171,215,8.2233,-0.1162,-13.4989,0.4347,-0.4126,0.3861,39,82290.128,1591298,2.731,2.0747,-6.3255,0.6366,1.7748,-1.754,47
11.024,212,3.9585,1.211,-20.1695,0.3012,-0.092,0.2737,75,10.635,205,7.363,-0.6508,-13.0678,1.3848,0.2828,-0.0426,77,11.026,212,7.7727,-1.1545,-14.1148,0.7835,-0.6365,0.014,70,11.223,216,8.0413,-0.4186,-13.8967,0.4835,-0.6605,0.5747,39,82290.18,1591299,7.3515,3.4745,-12.1953,0.5584,1.984,-1.9562,47
11.076,213,7.9467,-4.3139,-22.7171,0.8942,-0.7365,0.151,75,10.687,206,10.208,0.5413,-12.4181,0.9322,-0.4663,0.6343,77,11.077,213,7.8189,-0.734,-13.8488,0.3909,-0.7145,0.0303,70,11.275,217,9.8049,-0.8927,-15.3869,0.958,-1.1489,0.7461,39,82290.232,1591300,10.7238,-0.2171,-11.5862,-0.2703,2.1367,-0.752,47
11.128,214,4.7963,2.2415,-14.1703,-0.0095,-0.0552,0.7868,75,10.739,207,9.4147,0.5056,-11.819,0.4109,-0.8346,1.1232,77,11.129,214,8.2642,-0.0393,-13.938,0.218,-0.8286,-0.0065,70,11.326,218,9.7509,0.4458,-16.8702,1.3739,-1.4879,0.4928,39,82290.283,1591301,8.378,-0.488,-10.565,-0.8752,2.2481,0.1268,47
11.18,215,5.3667,2.5202,-8.108,-0.1675,0.4894,0.7787,75,10.791,208,8.8744,0.1159,-11.1672,0.914,-1.0402,1.0471,77,11.181,215,9.1176,0.296,-13.5614,0.0964,-1.0398,-0.1566,70,11.378,219,8.8906,-0.5361,-15.2671,1.6774,-1.7527,-0.2265,39,82290.335,1591302,6.6446,-0.6619,-9.8759,-1.3166,2.3294,0.7683,47
11.232,216,3.7438,4.9407,-4.7693,0.4561,1.0396,0.2397,75,10.842,209,7.8492,0.2566,-10.8973,1.3388,-0.9405,0.3349,77,11.233,216,11.21,0.3139,-12.3547,-0.1092,-1.432,-0.4027,70,11.43,220,9.4439,0.5639,-11.7261,1.6705,-1.946,-0.8367,39,82290.387,1591303,7.0244,-0.6893,-10.2988,-0.287,1.0381,-0.1154,47
11.283,217,4.9638,1.1841,-4.9879,-0.3445,1.2267,0.2833,75,10.894,210,8.1866,0.6355,-10.4153,1.6318,-0.882,-0.4419,77,11.284,217,13.4473,-0.0863,-12.2591,-0.2822,-1.7186,-0.8561,70,11.482,221,10.2872,-0.0015,-9.9978,1.3548,-1.6783,-1.2821,39,82290.438,1591304,6.0073,-0.5808,-8.264,0.4644,0.0946,-0.7603,47
11.335,218,3.5909,-1.7885,-5.1121,-0.9288,1.5777,0.6037,75,10.946,211,8.0407,1.4232,-9.9162,1.6706,-0.6308,-1.0089,77,11.337,218,10.6104,-0.5541,-11.2249,0.1099,-1.4998,-1.2937,70,11.534,222,11.2296,-0.6959,-8.6896,1.6635,-0.9918,-1.6071,39,82290.49,1591305,5.2607,-0.491,-6.7987,1.0128,-0.5941,-1.2309,47
11.387,219,2.1759,-3.4005,-6.3188,-0.8483,1.8339,0.906,75,10.998,212,8.2612,1.4652,-10.3922,1.0231,-0.4798,-1.1013,77,11.388,219,9.9729,-1.5668,-11.2472,0.7567,-0.8775,-1.6182,70,11.585,223,11.1351,-1.142,-8.8093,1.4651,-0.089,-1.8444,39,82290.542,1591306,4.7142,-0.4187,-5.7256,1.4131,-1.0967,-1.5744,47
11.439,220,2.5332,-5.1578,-7.6351,-1.2965,1.6375,1.3378,75,11.05,213,8.1586,0.6515,-11.2398,0.9158,-0.2211,-1.2919,77,11.44,220,10.7756,-1.1379,-11.6554,0.4761,0.0194,-1.8551,70,11.637,224,10.7436,-1.5732,-10.3996,1.2372,0.62,-2.0175,39,82290.594,1591307,4.3292,-0.3687,-4.9268,1.7052,-1.4607,-1.8252,47
11.491,221,1.2975,-4.4359,-9.041,-1.0096,1.8775,1.4713,75,11.102,214,8.123,1.3909,-11.0408,1.0418,-0.113,-1.5553,77,11.492,221,12.3056,-2.5028,-12.5327,0.5058,0.6925,-2.0279,70,11.689,225,9.1745,-2.9617,-12.6539,1.3556,0.9851,-2.1439,39,82290.645,1591308,4.0524,-0.323,-4.3326,1.9184,-1.7179,-2.0081,47
11.542,222,0.2033,-3.1301,-13.1239,-0.8257,0.7046,0.5222,75,11.153,215,10.8484,1.7651,-11.9708,0.0803,-0.4018,-0.9784,77,11.543,222,12.7515,-4.9589,-14.217,1.0457,1.1838,-2.1432,70,11.741,226,8.7446,-2.6712,-14.5581,1.4887,0.5459,-2.1749,39,82290.697,1591309,3.8591,-0.2657,-3.8839,2.074,-1.8877,-2.1417,47
11.594,223,5.206,-7.4822,-6.9872,-0.1136,-0.1551,0.5526,75,11.205,216,10.6335,-1.2278,-12.9375,-0.6214,0.1176,-1.2422,77,11.595,223,12.3433,-6.8184,-15.2504,1.4397,1.5423,-1.9724,70,11.793,227,11.4995,-6.827,-18.6064,0.4109,-0.2645,-0.907,39,82290.749,1591310,6.8528,-2.575,-10.7692,1.7979,-1.5404,-2.2392,47
11.646,224,8.8572,-4.0269,-12.5604,0.5915,-0.7825,-0.2718,75,11.257,217,12.6537,-1.4347,-13.2413,0.1868,0.7228,-1.5923,77,11.647,224,11.9914,-7.1,-17.1409,1.7272,1.804,-1.2026,70,11.844,228,9.9569,-8.3109,-17.2122,0.1883,-0.8598,-0.6478,39,82290.801,1591311,5.004,-1.1575,-10.1749,0.6343,-0.4399,-2.3103,47
11.698,225,11.522,1.0572,-10.3158,-0.2457,-0.4105,0.4783,75,11.309,218,11.1507,-0.8331,-11.9885,0.8081,1.2066,-1.8485,77,11.699,225,10.5273,-3.3309,-18.3624,0.8005,1.995,-0.2506,70,11.896,229,6.9841,-6.3281,-17.7395,0.2634,-0.7281,-0.3315,39,82290.853,1591312,3.0654,-0.1794,-8.9488,-0.2149,0.3676,-2.3622,47
11.749,226,10.9591,-0.1619,-7.2525,-0.3262,0.3829,1.0088,75,11.361,219,9.1698,-0.185,-11.0124,0.9811,1.3067,-1.6323,77,11.751,226,8.046,-1.5783,-20.5526,1.2109,1.4413,0.0635,70,11.948,230,5.5801,-4.9711,-17.5503,0.6171,-0.7965,-0.4143,39,82290.904,1591313,1.6214,0.4574,-8.0047,-0.8347,0.957,-2.4001,47
11.801,227,10.3333,-0.1803,-5.024,0.3243,0.7396,1.4129,75,11.412,220,7.7912,0.5278,-10.5333,1.1487,1.0534,-1.111,77,11.803,227,10.5558,-0.6873,-15.894,1.5603,0.3785,-0.0702,70,12.0,231,6.9115,-3.8176,-17.4913,0.7495,-0.8094,-0.6322,39,82290.956,1591314,2.2841,-0.4961,-12.3347,-0.3601,1.255,-1.076,47
11.853,228,8.4582,-0.8413,-3.8101,0.8982,0.9461,1.7078,75,11.464,221,6.8668,1.8238,-10.3146,1.0131,0.7591,-0.7795,77,11.855,228,8.6541,-0.1384,-17.7743,1.3646,-0.3971,-0.0261,70,12.052,232,6.1662,-2.6417,-17.2943,0.9522,-0.6227,-0.6798,39,82291.008,1591315,1.6466,-0.7236,-11.5898,-0.0123,1.5414,-0.1096,47
11.905,229,5.2989,-1.7055,-3.946,1.33,1.3729,1.7014,75,11.516,222,6.5964,2.3093,-10.577,1.1944,0.3817,-0.5944,77,11.906,229,8.8287,0.2976,-17.7951,1.5625,-0.9633,0.0195,70,12.103,233,6.566,-0.9586,-17.1334,0.8693,-0.4928,-0.5256,39,82291.06,1591316,1.0614,-0.8482,-11.025,0.2788,1.7613,0.5957,47
11.957,230,2.3305,-0.6882,-3.9787,1.5601,1.6844,1.7317,75,11.568,223,6.7582,2.9341,-10.2846,0.9908,0.3428,-0.4646,77,11.958,230,8.7829,0.0188,-17.7415,1.2265,-1.2853,0.1933,70,12.155,234,7.1845,-0.2643,-16.7114,0.6036,-0.4134,-0.0933,39,82291.111,1591317,0.6168,-0.9163,-10.6137,0.5224,1.9286,1.1104,47
12.009,231,0.1242,0.3986,-4.9313,1.813,1.9118,1.3837,75,11.62,224,7.0731,2.4051,-10.2969,0.8045,0.4719,-0.3239,77,12.01,231,10.0643,-0.3028,-17.3097,1.0383,-1.4704,0.1589,70,12.207,235,7.502,-0.813,-16.0485,0.5306,-0.5289,0.1469,39,82291.163,1591318,0.2699,-0.9683,-10.3241,0.7368,2.0564,1.4861,47
12.06,232,-1.3698,2.2898,-6.8458,1.1494,2.0777,0.8568,75,11.671,225,6.8334,1.8663,-11.0618,1.2583,0.9655,-0.5278,77,12.061,232,10.8915,1.3397,-16.0804,0.7422,-1.737,-0.0633,70,12.259,236,7.3611,-1.536,-15.6139,0.8224,-0.796,0.1069,39,82291.215,1591319,0.0044,-1.005,-10.0996,0.9248,2.1545,1.7603,47
12.112,233,-1.118,-0.7218,-11.5498,0.1615,1.2353,-0.0498,75,11.723,226,7.4056,1.7062,-11.4622,1.5901,1.3811,-0.8396,77,12.113,233,10.0153,1.6183,-15.1104,0.9761,-1.9412,-0.3958,70,12.311,237,8.7789,-0.7162,-15.0311,1.1746,-1.23,0.0989,39,82291.267,1591320,-0.2081,-1.0346,-9.9267,1.0993,2.2295,1.9605,47
12.164,234,-0.8511,-4.2096,-16.4261,0.6133,0.2322,-0.3786,75,11.775,227,7.6012,2.4246,-10.9728,1.8322,1.3833,-0.5807,77,12.165,234,12.5753,1.9123,-13.6851,1.0373,-2.0901,-0.3937,70,12.362,238,11.426,-1.6646,-16.4169,1.4592,-1.4458,0.1461,39,82291.318,1591321,-0.4002,-1.0693,-9.7931,1.2585,2.2849,2.1065,47
12.216,235,4.4364,-4.4692,-9.3973,1.122,-0.4998,-0.555,75,11.827,228,9.5481,4.2754,-10.8516,2.009,1.5208,-0.3601,77,12.217,235,12.0554,-1.3991,-16.3435,1.1473,-1.9746,-0.5612,70,12.414,239,13.4565,0.9868,-14.2561,1.7397,-1.722,-0.5648,39,82291.37,1591322,-5.5237,-1.5228,-8.3245,1.591,1.0046,2.2131,47
12.268,236,8.2955,-7.2378,-11.1698,0.7936,-1.0341,-0.0615,75,11.879,229,9.6156,5.7249,-11.8875,2.138,1.789,-0.8647,77,12.269,236,10.5162,-0.977,-15.2458,0.1621,-0.8547,-0.5297,70,12.466,240,13.5969,-0.095,-11.9113,1.9435,-1.1404,-1.0836,39,82291.422,1591323,-3.9119,-0.6228,-6.3083,1.8351,0.0701,2.0918,47
12.319,237,9.7329,-3.9083,-11.9903,-0.0982,-0.254,0.6318,75,11.93,230,6.4209,6.8019,-10.4836,2.1273,1.9848,-0.8886,77,12.32,237,9.4232,-0.6433,-15.1029,-0.5569,0.0545,-0.3734,70,12.518,241,13.3075,-0.4821,-11.2462,0.7963,-0.1473,-1.4623,39,82291.474,1591324,-2.6631,-0.025,-4.933,2.0132,-0.6119,2.0008,47
12.371,238,6.8291,-2.7244,-8.9049,0.6027,0.4971,0.244,75,11.982,231,3.8944,5.1619,-11.1174,1.8211,1.668,-0.7624,77,12.372,238,8.7452,-1.1227,-15.1863,-0.743,0.7182,0.0678,70,12.569,242,10.4905,-2.7305,-11.0689,0.514,0.5774,-1.7386,39,82291.526,1591325,-3.3604,0.4169,-5.3671,2.1432,-0.6578,2.136,47
12.423,239,3.9739,0.7751,-6.565,1.0703,1.0452,-0.4971,75,12.034,232,3.7648,5.3446,-10.8829,1.7282,1.3092,-0.4385,77,12.424,239,9.795,-0.8216,-16.4244,0.0401,1.2025,0.436,70,12.621,243,10.4515,-6.7801,-14.9214,-0.2457,1.1064,-1.9403,39,82291.577,1591326,-3.1631,0.6311,-3.6347,2.2381,-0.7456,2.2346,47
12.475,240,2.3879,1.3112,-4.5685,0.1038,1.4452,-1.0303,75,12.086,233,7.2785,6.6733,-11.3814,0.9214,0.2828,0.3453,77,12.476,240,8.4602,-2.7052,-19.9921,0.3102,1.556,0.3735,70,12.673,244,8.2985,-10.2452,-18.8715,-0.5388,0.4818,-1.2452,39,82291.629,1591327,-3.0222,0.8434,-2.4102,2.3073,-0.8723,2.3066,47
12.526,241,1.2813,-3.2007,-4.0321,-0.6016,1.7372,-0.465,75,12.138,234,8.3945,6.9587,-11.132,-0.0075,-0.4662,0.6252,77,12.528,241,11.4404,-1.8103,-12.0071,0.5489,0.4786,0.7275,70,12.725,245,5.3419,-6.0622,-18.1921,-1.0245,0.0191,-0.3343,39,82291.681,1591328,-2.9167,1.0269,-1.5141,2.3579,-1.0172,2.3592,47
12.578,242,1.607,-7.0409,-8.1666,0.0875,1.5169,0.3372,75,12.189,235,8.4633,3.2958,-11.8838,-0.6855,-0.8189,0.4636,77,12.579,242,10.2089,-1.0547,-12.6184,0.8215,-0.28,0.6981,70,12.776,246,7.6369,-3.5077,-16.6988,-0.5552,-0.5308,-0.1452,39,82291.732,1591329,-2.8388,1.2092,-0.8575,2.3948,-1.1851,2.3975,47
12.63,243,4.2516,-5.4999,-9.0688,0.7383,0.4377,0.9228,75,12.241,236,7.3374,1.8153,-11.3782,-0.1161,-0.3868,0.2944,77,12.631,243,10.7987,-0.4555,-12.6062,0.681,-0.5392,0.5795,70,12.828,247,6.4215,-1.0157,-16.5608,-0.5584,-0.2596,0.0905,39,82291.784,1591330,-2.7639,1.3699,-0.3853,2.4217,-1.3588,2.4255,47
12.682,244,2.4002,-3.394,-14.6153,0.5202,1.0019,1.3455,75,12.293,237,6.265,0.6617,-10.8071,-0.1739,-0.3228,0.572,77,12.683,244,10.6733,-0.2391,-12.5783,0.2696,-0.5053,0.474,70,12.88,248,6.577,-0.4063,-15.6224,-0.3725,-0.0909,0.2501,39,82291.836,1591331,-0.4059,-2.781,-4.5023,2.4413,-1.56,2.397,47
12.734,245,2.5935,0.6343,-18.2035,1.0541,0.0619,1.1791,75,12.345,238,6.6098,-0.2856,-11.2808,-0.1486,-0.456,0.8619,77,12.735,245,9.1893,-0.6129,-12.8205,-0.0673,-0.5261,0.3624,70,12.932,249,6.7921,-0.5579,-14.9176,-0.3,-0.1324,0.3765,39,82291.888,1591332,1.1344,-7.1243,-9.3081,2.4557,-1.7225,1.963,47
12.785,246,6.3591,-3.8018,-15.1651,1.3204,-0.6242,0.9869,75,12.397,239,9.1687,1.0753,-11.295,0.4828,0.1724,0.567,77,12.787,246,8.9005,-1.165,-12.7568,-0.1358,-0.6073,0.2485,70,12.984,250,7.0512,-0.3979,-14.183,0.2171,-0.6064,0.469,39,82291.939,1591333,1.9095,-8.9324,-12.1498,2.1275,-1.0894,1.4749,47
12.837,247,9.6988,2.5936,-12.2833,1.638,-0.937,0.6417,75,12.449,240,10.368,2.4108,-10.7823,1.0241,0.686,-0.0408,77,12.838,247,9.2427,-0.5063,-12.5931,-0.3026,-0.6466,0.1709,70,13.035,251,10.2636,-1.0681,-13.5544,0.8331,-1.1094,0.5071,39,82291.991,1591334,1.612,-6.9288,-12.0676,1.3304,-0.3126,0.8746,47
12.889,248,12.1362,0.9722,-6.7585,0.5181,-0.0015,1.1449,75,12.501,241,9.0451,3.4665,-9.4514,0.9177,0.9285,-0.5971,77,12.89,248,9.4416,-0.6127,-12.6135,-0.4158,-0.676,0.1064,70,13.087,252,8.3804,-1.0374,-14.1172,0.8095,-0.8124,0.8947,39,82292.043,1591335,1.2174,-4.8453,-11.3344,0.693,0.2618,0.4006,47
12.941,249,9.85,-1.7192,-7.3574,0.4235,0.1834,1.5123,75,12.552,242,8.1493,3.1091,-9.1723,0.8169,0.9238,-0.9984,77,12.942,249,9.3118,-0.6152,-13.0151,-0.4695,-0.658,-0.0669,70,13.139,253,8.4836,-0.3533,-11.3709,1.2655,-0.9025,-0.0148,39,82292.095,1591336,0.9314,-3.2824,-10.7591,0.2218,0.6808,0.0522,47
12.993,250,6.8823,-0.6618,-7.4321,0.9834,0.3195,1.7804,75,12.604,243,7.6495,2.8239,-8.4599,0.7481,0.9164,-1.259,77,12.994,250,9.4248,-0.6576,-13.2238,-0.4907,-0.6225,-0.3056,70,13.191,254,7.4724,-0.6755,-9.7845,1.5983,-0.5479,-0.6822,39,82292.146,1591337,3.0123,-1.9383,-13.0337,0.8357,1.1657,-0.1162,47
13.044,251,3.8603,-0.1229,-7.0394,0.9702,0.0932,1.976,75,12.656,244,7.6305,2.6369,-8.5662,0.6047,0.7343,-1.2731,77,13.046,251,10.0604,-0.7108,-13.1562,-0.5055,-0.6288,-0.5726,70,13.242,255,8.2412,-1.8944,-9.3392,1.7809,0.1595,-1.1693,39,82292.198,1591338,2.6406,-0.8743,-10.2848,1.2838,1.5395,-0.6082,47
13.096,252,0.0766,-0.1618,-5.3756,1.3644,0.1887,1.9763,75,12.708,245,6.8916,3.1276,-8.2522,0.5476,0.6332,-1.2443,77,13.097,252,11.2214,-0.6318,-12.9903,-0.4523,-0.6258,-0.7914,70,13.294,256,8.7983,-2.7691,-9.96,1.214,0.8014,-1.493,39,82292.25,1591339,2.3934,-0.1112,-8.2397,1.6109,1.8122,-1.0974,47
13.148,253,0.4433,-1.885,-5.4696,1.5421,0.2115,2.119,75,12.76,246,5.8372,4.0546,-7.8744,0.6254,0.526,-1.0423,77,13.149,253,11.372,-0.8813,-12.3605,-0.9704,-0.7383,-0.8431,70,13.346,257,8.987,-2.5466,-11.0065,0.6325,1.2698,-1.5494,39,82292.302,1591340,2.1971,0.4278,-6.7408,1.8496,2.0113,-1.4768,47
13.2,254,0.1491,0.0593,-9.4109,1.7998,-0.035,2.2232,75,12.811,247,5.3831,4.9823,-7.325,0.3174,0.2817,-0.8206,77,13.201,254,12.5763,-3.8192,-13.4497,-0.2766,-1.1599,-0.7416,70,13.398,258,9.1232,-2.3259,-12.1262,0.0759,1.5327,-1.5172,39,82292.353,1591341,2.0564,0.8145,-5.6601,2.0238,2.1566,-1.7539,47
13.252,255,5.1664,0.934,-4.2774,1.4465,-0.6949,2.2991,75,12.863,248,4.6902,5.0655,-7.4357,0.0327,0.2117,-0.6851,77,13.253,255,12.1938,-0.3548,-12.3282,0.4747,-1.1057,-0.3846,70,13.45,259,8.9287,-2.4307,-12.8605,0.088,1.4354,-1.4524,39,82292.405,1591342,2.5871,-0.8494,-2.3702,2.1509,2.2627,-1.8999,47
13.303,256,0.5937,0.2661,-2.9151,0.8435,-0.5736,1.0519,75,12.915,249,5.477,6.4903,-7.222,0.0797,0.1536,-0.3083,77,13.305,256,11.1243,-0.2167,-11.8089,0.354,-0.4241,-0.0022,70,13.501,260,8.8207,-2.7751,-13.2295,-0.45,0.9277,-0.9816,39,82292.457,1591343,-0.8685,-2.6138,0.8335,1.3036,2.324,-2.0627,47
13.355,257,4.556,5.5842,-8.6095,0.0086,-1.088,0.0926,75,12.967,250,7.6527,7.6705,-7.9595,-0.1802,-0.0247,-0.2026,77,13.357,257,10.9191,0.9767,-12.0797,0.2097,0.3688,0.2092,70,13.553,261,10.0249,-2.392,-9.8707,-0.7739,0.4194,-0.4288,39,82292.509,1591344,-0.2477,-2.9713,2.3172,0.2736,2.3494,-2.1815,47
13.407,258,5.3612,-1.1221,-11.3827,-0.1405,-0.4952,-0.1882,75,13.019,251,7.6844,6.7955,-8.6187,-0.2402,0.0025,-0.2781,77,13.409,258,10.8926,1.6027,-12.5342,0.245,0.9475,0.3003,70,13.605,262,12.4339,-0.7002,-13.2395,0.0424,-0.3607,-0.5023,39,82292.561,1591345,-1.1601,-1.5099,1.0652,-0.4782,2.2472,-2.2682,47
13.459,259,7.854,0.1469,-8.7303,-0.3194,0.1458,0.1644,75,13.07,252,7.0486,6.3379,-8.8649,-0.7214,-0.121,0.1241,77,13.46,259,11.3562,1.8961,-13.0867,0.7018,1.3699,0.2161,70,13.657,263,9.7416,-0.0832,-14.4037,0.0257,-0.8236,-0.2634,39,82292.612,1591346,-1.7216,0.0213,0.0855,-1.0269,2.1008,-2.3315,47
13.511,260,6.8309,-0.787,-7.8569,-0.9105,0.7493,0.3794,75,13.122,253,5.7039,6.1173,-9.3675,-0.7045,-0.0861,0.4002,77,13.512,260,11.3281,1.6037,-13.4541,0.4238,1.6782,0.0346,70,13.709,264,9.429,0.2201,-14.0295,-0.0449,-0.8236,-0.0581,39,82292.664,1591347,0.1544,-0.1757,1.0553,-1.4273,2.2219,-1.0259,47
13.562,261,3.9478,-0.8325,-3.1432,-0.6227,1.0332,0.3746,75,13.174,254,4.5755,6.9141,-9.0303,-0.9031,-0.4127,0.5575,77,13.564,261,9.9852,1.0548,-14.7365,-0.3107,1.9032,0.1603,70,13.76,265,9.0039,-0.747,-13.4408,-0.1534,-0.7358,0.0713,39,82292.716,1591348,1.1394,-0.1354,0.6301,-1.7196,2.3103,-0.0731,47
13.614,262,2.6548,-2.7146,-1.8628,0.0274,1.4365,0.6107,75,13.226,255,4.4441,7.2708,-9.3555,-1.3392,-0.8916,0.4729,77,13.616,262,8.587,-0.3308,-17.1761,-0.902,1.2158,0.5347,70,13.812,266,8.778,-0.571,-13.2376,-0.1499,-0.6718,0.0998,39,82292.768,1591349,1.8454,-0.1481,0.2722,-1.9329,2.3748,0.6223,47
13.666,263,2.0608,-3.7502,-3.3381,0.6944,1.7308,0.9284,75,13.278,256,4.5646,6.9636,-9.4401,-1.4162,-0.9479,0.157,77,13.668,263,11.5329,-1.922,-15.3626,-0.0206,0.3776,0.0896,70,13.864,267,8.6361,-0.7544,-13.207,-0.1683,-0.6971,0.1915,39,82292.82,1591350,2.356,-0.1836,0.0042,-2.0886,2.4219,1.1299,47
13.718,264,1.0532,-1.1686,-5.2952,1.0534,1.9457,1.004,75,13.329,257,4.5601,7.1114,-8.7667,-1.472,-0.9209,-0.1716,77,13.719,264,8.3161,-1.1014,-11.7499,-0.6903,-0.3968,0.1893,70,13.916,268,8.1312,-0.4752,-13.3572,-0.1431,-0.7489,0.2544,39,82292.871,1591351,2.7149,-0.2344,-0.2126,-2.2022,2.4563,1.5004,47
13.77,265,1.0633,0.4185,-11.8612,0.0924,1.8649,0.2172,75,13.381,258,5.3195,6.5462,-8.4149,-1.7518,-0.8227,-0.5486,77,13.771,265,9.7949,-0.0512,-12.5918,-0.1243,-0.963,0.2445,70,13.968,269,8.3912,-1.0424,-13.38,-0.1893,-0.7888,0.316,39,82292.923,1591352,2.9593,-0.2799,-0.386,-2.2852,2.4814,1.7707,47
13.821,266,-0.5209,0.1142,-11.8164,0.7418,0.6917,0.5302,75,13.433,259,6.5891,5.8431,-8.0471,-1.9585,-0.8909,-0.3258,77,13.823,266,9.3231,-0.7423,-13.1124,-0.2391,-1.2314,0.2081,70,14.019,270,7.7612,-1.21,-13.8113,0.0309,-0.8475,0.3309,39,82292.975,1591353,3.1411,-0.3249,-0.5297,-2.3457,2.4997,1.968,47
13.873,267,4.6774,-2.6566,-7.9594,-0.1068,-0.1645,0.2013,75,13.485,260,8.6776,1.5872,-9.8916,-0.7577,-0.4958,0.2041,77,13.875,267,9.2958,-1.0929,-13.2368,-0.0279,-1.3699,0.1593,70,14.071,271,7.2693,-1.1571,-13.7034,0.2315,-1.0498,0.3948,39,82293.026,1591354,7.6509,5.0939,0.8093,-2.1623,2.2481,1.015,47
13.925,268,3.5184,-0.5485,-6.7591,-0.728,-0.6875,-0.0941,75,13.537,261,9.0518,2.9824,-9.8752,0.1187,-0.1751,0.8143,77,13.926,268,8.6097,-1.7598,-13.7234,0.0597,-1.4977,0.0298,70,14.123,272,7.3827,-2.2838,-14.4512,0.0921,-1.1171,0.4762,39,82293.078,1591355,6.2379,4.1667,-1.695,-0.9042,2.1998,0.0647,47
13.977,269,5.786,1.3154,-3.4582,-1.1318,0.1688,0.4687,75,13.588,262,9.5659,3.3636,-9.525,0.7121,-0.8005,1.2597,77,13.978,269,8.514,-1.4904,-14.1,0.2074,-1.6837,-0.0601,70,14.175,273,10.5055,-2.3237,-13.7471,0.6198,-1.4821,0.7399,39,82293.13,1591356,5.1753,3.5094,-3.5549,0.0139,2.1933,-0.6288,47
14.029,270,5.8525,4.2872,0.0672,-0.1825,0.6849,0.0341,75,13.64,263,9.0157,2.9382,-9.7602,0.3388,-1.0814,1.5848,77,14.03,270,8.9783,-1.058,-14.7492,0.1839,-1.9022,0.1041,70,14.227,274,10.4962,-2.0892,-10.8831,1.127,-1.3255,1.1143,39,82293.182,1591357,9.1355,-2.6965,-10.6201,-0.3298,1.2576,-0.1263,47
14.08,271,5.0234,4.3995,2.6402,-0.6629,1.1823,-0.6151,75,13.692,264,9.0462,2.8455,-10.3123,-0.3016,-1.208,1.822,77,14.082,271,11.8185,-1.1315,-15.5328,0.0498,-2.0617,0.5826,70,14.278,275,11.9546,0.4457,-11.3306,0.2463,-0.8765,1.4936,39,82293.234,1591358,7.5675,-0.927,-8.3317,-0.9186,0.2548,0.5835,47
14.132,272,4.775,1.1561,2.6103,-0.9423,1.5453,-0.5742,75,13.744,265,8.937,2.2629,-10.9644,0.0146,-0.9257,1.7319,77,14.133,272,13.8914,-2.6683,-14.9269,-0.6389,-2.1781,1.1029,70,14.33,276,13.8423,-0.3269,-10.886,0.1527,-0.2707,1.7705,39,82293.285,1591359,6.5356,0.2324,-5.8409,-1.3483,-0.4772,1.1016,47
14.184,273,3.4687,-0.7212,0.4552,-0.6463,1.8103,-0.6406,75,13.796,266,9.1302,2.39,-11.4271,0.3195,-0.5839,1.0701,77,14.185,273,13.3436,-2.3079,-15.4837,-1.1415,-1.9738,1.4278,70,14.382,277,13.755,2.2547,-11.3165,0.7861,0.4874,1.0069,39,82293.337,1591360,5.805,1.0624,-3.969,-1.6619,-1.0113,1.4797,47
14.236,274,3.6491,-0.1033,-2.9212,-0.045,1.7509,-0.5137,75,13.847,267,8.4025,1.8271,-11.5426,0.888,-0.3526,0.1103,77,14.237,274,12.0917,-0.4647,-14.7639,-0.1566,-1.0367,1.5468,70,14.434,278,13.3426,3.689,-12.655,0.3988,1.0407,0.0635,39,82293.389,1591361,5.2879,1.6595,-2.5924,-1.8908,-1.4012,1.7556,47
14.287,275,7.2082,-1.0735,-10.1286,-0.3455,0.918,-0.7346,75,13.899,268,8.4067,3.0124,-10.4967,1.3198,-0.3748,-0.6058,77,14.289,275,9.7472,0.4866,-14.4359,0.4731,-0.0783,1.6224,70,14.486,279,13.1825,1.6144,-15.5911,-0.386,1.4445,-0.6251,39,82293.441,1591362,4.9231,2.0762,-1.5808,-2.0579,-1.6857,1.957,47
14.339,276,7.7559,4.6064,-14.6696,0.1046,1.2663,-0.96,75,13.951,269,7.7158,3.6824,-10.1425,0.2832,-0.5118,-0.4035,77,14.341,276,9.1301,1.3219,-13.9021,0.0334,0.6212,1.695,70,14.537,280,11.2244,-1.6661,-19.3603,-0.7431,1.7392,-1.1276,39,82293.492,1591363,7.9412,-2.5502,-3.6272,-2.1798,-1.8934,2.104,47
14.391,277,6.8257,4.5108,-11.003,0.7508,0.2548,-0.1509,75,14.003,270,10.5512,0.5762,-13.5463,-0.4733,-0.1005,-0.5183,77,14.392,277,9.7475,2.3967,-14.7021,-0.6509,1.1317,1.8488,70,14.589,281,7.7641,-5.9347,-19.997,0.1323,1.0156,-1.0908,39,82293.544,1591364,7.6535,-5.8526,-7.1761,-1.2898,-1.2859,1.8706,47
14.443,278,10.0393,-1.9055,-16.027,1.2223,-0.4833,0.4812,75,14.055,271,12.0317,-0.3679,-14.2533,0.2827,0.6057,-1.0646,77,14.444,278,11.3128,1.9991,-17.5484,-0.6587,1.5043,1.8538,70,14.641,282,10.7839,-0.8029,-14.0896,-0.5805,1.0882,-0.1167,39,82293.596,1591365,7.6238,-4.3706,-4.0681,-0.2675,-0.2558,1.1289,47
14.495,279,12.3847,3.9992,-11.2286,0.4853,0.2328,0.9876,75,14.107,272,11.1924,1.6217,-13.2312,0.4475,1.1212,-1.4634,77,14.496,279,8.9423,3.3026,-20.8059,-1.0758,1.7645,1.4982,70,14.693,283,8.1964,-3.4008,-16.8578,-0.8935,0.1275,-0.7566,39,82293.648,1591366,6.2491,-2.4472,-2.5145,0.4786,0.502,0.1479,47
14.546,280,14.0965,2.8651,-7.8644,-0.3232,0.7538,1.3975,75,14.158,273,10.7766,2.0009,-13.7792,-0.3534,0.7938,-1.1503,77,14.548,280,11.7923,2.5389,-23.1856,-0.1248,0.6318,0.823,70,14.745,284,11.0994,-4.0612,-13.844,-0.4206,-0.4901,-0.4029,39,82293.699,1591367,0.6555,3.3026,-9.8607,1.0232,1.055,-0.5681,47
14.598,281,14.026,3.2733,-5.0552,-0.9132,1.2326,1.2919,75,14.21,274,9.7063,1.4637,-14.6481,-0.938,0.3837,-1.1041,77,14.6,281,8.8792,1.0938,-21.5585,-0.5474,-0.0913,0.7969,70,14.797,285,10.9781,-3.8728,-13.9489,-0.4439,-0.9482,-0.0982,39,82293.751,1591368,0.9714,2.1595,-8.7413,1.4207,0.1069,-1.0907,47
14.65,282,11.175,4.0909,-4.1151,-1.3439,1.582,0.2797,75,14.262,275,7.6859,1.132,-14.1129,-1.3005,0.1536,-1.235,77,14.651,282,9.8552,0.332,-20.0734,-0.2971,-0.0736,0.6237,70,14.848,286,10.4491,-3.5715,-13.8865,-0.2503,-0.7927,0.0782,39,82293.803,1591369,1.1177,1.2771,-8.2607,1.7107,-0.5851,-1.4721,47
14.702,283,7.9765,6.9843,-6.3163,-0.67,1.837,-0.471,75,14.314,276,5.7663,1.478,-13.2775,-1.6185,-0.147,-1.126,77,14.703,283,9.6426,-0.7047,-17.4184,-0.5856,0.2695,0.5312,70,14.9,287,9.592,-3.6003,-13.8536,-0.1895,-0.5721,0.265,39,82293.855,1591370,1.235,0.6416,-7.8951,1.9225,-1.0901,-1.7505,47
14.754,284,3.3534,7.7795,-7.9099,-1.0595,2.0232,-1.0188,75,14.366,277,5.1291,2.2003,-12.8609,-1.8613,-0.3572,-1.0592,77,14.755,284,8.2452,-1.8546,-14.5563,-0.6891,0.2476,0.4069,70,14.952,288,10.2517,-3.5426,-12.5659,0.1571,-0.6063,0.4727,39,82293.906,1591371,1.3279,0.1839,-7.6248,2.077,-1.4587,-1.9536,47
14.806,285,2.4569,2.173,-12.0406,-1.445,2.0372,-1.3613,75,14.417,278,7.6219,2.8896,-13.9606,-1.9424,-0.4513,-0.7564,77,14.807,285,8.2772,-2.0072,-13.7526,-0.496,-0.1906,0.3253,70,15.004,289,12.2518,-2.3252,-10.1031,0.2973,-1.0268,1.01,39,82293.958,1591372,1.4151,-0.1503,-7.4086,2.1897,-1.7277,-2.1019,47
14.857,286,3.2273,-3.6118,-16.7843,-0.3802,0.8234,-1.6684,75,14.469,279,9.184,3.4551,-14.882,-1.4117,-0.6291,-0.7459,77,14.859,286,9.3793,-2.4024,-13.1252,-0.3529,-0.6171,0.3801,70,15.056,290,13.0388,-0.2971,-10.5121,0.0454,-1.2648,1.4175,39,82294.01,1591373,1.493,-0.3935,-7.2508,2.272,-1.924,-2.2101,47
14.909,287,3.6309,1.8529,-14.2,0.3969,-0.0684,-1.4293,75,14.521,280,8.3284,4.4652,-14.2825,-1.0879,-0.9037,-0.9456,77,14.91,287,9.7026,-2.6047,-12.5904,-0.7029,-0.9395,0.5164,70,15.107,291,10.9004,-0.566,-15.6534,-0.6439,-0.2381,1.7149,39,82294.061,1591374,1.2658,-0.0824,-7.7598,1.9306,-1.0924,-2.2891,47
14.961,288,5.6455,1.0477,-10.0479,0.5638,-0.7192,-1.0249,75,14.573,281,7.2727,5.3733,-11.9508,-1.474,-1.3323,-0.5975,77,14.962,288,11.1258,-1.5052,-11.315,-1.1882,-1.3591,0.7778,70,15.159,292,9.484,0.2735,-16.5548,-0.3756,0.5112,1.8551,39,82294.113,1591375,2.2276,3.5673,-9.2759,0.7326,-0.1086,-2.3467,47
15.013,289,5.0543,-0.8675,-15.3299,1.0858,-1.1943,-0.2466,75,14.625,282,9.7401,4.9515,-13.5277,-1.7558,-1.241,-0.569,77,15.014,289,13.3859,-2.2952,-12.9642,-1.5424,-1.6653,0.8499,70,15.211,293,7.2035,1.7813,-16.7267,0.4006,1.058,0.683,39,82294.165,1591376,1.3285,4.0421,-4.6741,-0.1432,0.6094,-2.1561,47
15.065,290,8.7465,1.2242,-11.8351,0.1151,-1.541,0.4842,75,14.676,283,9.1822,3.1515,-13.7005,-0.8145,-0.2266,-1.1016,77,15.066,290,11.3999,-3.339,-15.3705,-1.367,-1.481,0.9327,70,15.263,294,6.6889,3.6242,-17.656,-0.1173,1.4572,-0.1729,39,82294.217,1591377,0.5895,3.5301,-2.3335,-0.7824,1.1334,-2.2326,47
15.116,291,11.4412,0.5927,-6.0467,-0.5934,-0.4422,0.5653,75,14.728,284,6.827,5.7515,-12.5392,0.0773,0.5005,-1.4904,77,15.118,291,8.8065,-1.4213,-13.955,-1.6729,-0.4174,1.2847,70,15.315,295,8.3506,2.4628,-19.6882,-0.7627,1.7472,-0.7976,39,82294.269,1591378,0.0793,3.1547,-0.7315,-1.2489,1.5159,-2.2808,47
15.168,292,10.3221,-0.9798,-5.1474,-1.1104,0.3597,0.4651,75,14.78,285,4.3978,5.4019,-12.3174,0.4268,0.1604,-1.519,77,15.169,292,7.5322,-0.2208,-13.4843,-1.8176,0.3737,1.5953,70,15.366,296,9.5664,1.8654,-21.597,-1.2337,1.7529,-1.2535,39,82294.32,1591379,-0.5518,4.3794,-3.9345,-0.8337,0.8622,-2.0934,47
15.22,293,6.4424,-1.438,-2.9755,-0.9091,0.9449,0.3879,75,14.832,286,2.8688,6.9822,-11.3138,0.5028,-0.4667,-0.8418,77,15.221,293,7.1925,0.8661,-13.6354,-0.983,0.9511,1.663,70,15.418,297,8.3771,0.2796,-23.0753,-1.0831,1.5852,-1.5501,39,82294.372,1591380,-0.398,3.1774,-5.3541,-0.5698,0.4032,-1.9673,47
15.272,294,3.2121,1.1334,-1.4161,0.0109,1.3721,-0.392,75,14.884,287,3.3028,9.1779,-11.7135,-0.313,-1.0133,0.051,77,15.273,294,8.1034,1.2325,-13.9539,-1.0511,1.3725,1.5206,70,15.47,298,7.6872,-3.3328,-20.4036,-1.4676,0.9298,-0.7378,39,82294.424,1591381,-0.245,2.3002,-6.5822,-0.3748,0.0682,-1.8761,47
15.324,295,1.5519,3.3678,-1.9053,-0.2084,1.6838,-0.9612,75,14.936,288,5.3555,9.4578,-13.9375,-0.9085,-1.4122,0.4424,77,15.325,295,9.4047,1.208,-16.1507,-1.4423,1.6801,1.5208,70,15.522,299,9.0693,-7.1158,-12.2837,-1.7482,0.4748,-0.3471,39,82294.476,1591382,-0.1246,1.6593,-7.4638,-0.2312,-0.1753,-1.8109,47
15.375,296,1.5598,4.6481,-0.9376,-0.1766,1.7954,-1.3756,75,14.987,289,5.6276,8.7304,-13.9015,-0.8745,-1.3981,-0.0567,77,15.376,296,9.1112,-0.0534,-18.0163,-1.7279,1.8678,1.3704,70,15.574,300,11.7365,-4.7219,-12.1616,-0.8755,-0.3202,-0.2476,39,82294.527,1591383,-0.0366,1.1995,-8.1059,-0.1255,-0.3517,-1.7633,47
15.427,297,0.8552,1.9815,-4.4083,-0.788,1.1425,-1.4693,75,15.039,290,4.7188,8.0205,-13.2494,-1.3131,-1.4608,-0.379,77,15.428,297,11.4602,-1.0439,-11.7384,-0.8836,0.7093,0.9707,70,15.625,301,11.8079,-5.6545,-12.5242,-0.8208,-0.4874,-0.1698,39,82294.579,1591384,0.0257,0.8604,-8.5977,-0.0457,-0.4806,-1.7284,47
15.479,298,0.7236,2.3447,-8.8245,-0.8344,0.8703,-1.5464,75,15.091,291,3.8634,5.9304,-13.868,-1.6033,-1.4203,-0.5572,77,15.48,298,12.7362,1.6055,-12.6085,-0.1424,-0.1557,0.6665,70,15.677,302,10.8072,-4.3093,-12.5308,-0.576,-0.327,-0.207,39,82294.631,1591385,-3.9901,5.6625,-13.1772,-0.0949,-0.3435,-1.933,47
15.531,299,-1.4871,-1.1123,-12.9903,-1.1564,1.151,-1.8037,75,15.143,292,3.1922,5.116,-12.9976,-0.6338,-1.1775,-0.5541,77,15.532,299,11.6833,-0.7757,-12.8261,-0.7789,-0.4542,0.6543,70,15.729,303,10.3264,-3.1301,-12.3057,-0.2419,-0.3048,-0.2567,39,82294.683,1591386,-0.7425,2.7037,-8.9967,-0.3638,-0.5849,-1.6601,47
15.582,300,-1.4673,-1.5006,-12.1926,-0.8522,0.1707,-1.7898,75,15.195,293,3.9513,7.5277,-11.0932,-1.1426,-1.5313,0.2517,77,15.584,300,11.1011,-1.5276,-12.4142,-0.5472,-0.4536,0.5169,70,15.781,304,9.3432,-2.2112,-12.3553,-0.0429,-0.3705,-0.0866,39,82294.734,1591387,-3.9455,3.8855,-4.0028,-0.9434,-0.5889,-1.0439,47
15.634,301,3.9867,-3.1034,-13.6226,0.0524,-0.5447,-1.9814,75,15.246,294,6.6996,7.6388,-11.8668,-1.5139,-1.7903,0.8491,77,15.635,301,10.7029,-1.9237,-12.309,-0.5655,-0.3634,0.3893,70,15.832,305,9.1889,-2.0494,-12.2397,0.0384,-0.5092,0.2088,39,82294.786,1591388,2.2873,3.1467,-0.5513,-1.3664,-0.8218,-0.0988,47
15.686,302,7.9482,3.1249,-8.6681,-0.344,-0.5654,-1.2819,75,15.298,295,7.3599,6.3382,-12.1497,-0.4697,-0.9468,0.4079,77,15.687,302,10.3011,-2.4735,-11.8861,-0.5789,-0.2825,0.2985,70,15.884,306,9.9888,-1.3366,-12.2792,-0.0299,-0.7939,0.6217,39,82294.838,1591389,2.0823,2.7183,-1.8795,-1.6751,-1.2629,0.6036,47
15.738,303,8.2675,-1.4863,-5.3894,-0.9285,0.2698,-0.2589,75,15.35,296,5.8937,7.9034,-9.7449,0.3289,-0.0119,0.0786,77,15.739,303,10.0114,-2.5641,-11.4752,-0.4757,-0.2857,0.1859,70,15.936,307,10.637,-1.8287,-12.2513,0.0127,-1.1118,1.1275,39,82294.89,1591390,1.941,2.4325,-2.9068,-1.9005,-1.5848,1.1162,47
15.79,304,7.8196,-2.4475,-2.7619,-0.7808,0.8793,0.4877,75,15.402,297,5.0264,8.3663,-8.7859,-0.4379,-0.6219,0.4515,77,15.791,304,9.4492,-2.6264,-11.3008,-0.3865,-0.3455,0.1314,70,15.988,308,12.8806,-1.4532,-11.2651,0.6541,-1.47,1.5033,39,82294.941,1591391,-3.8149,7.1064,-10.147,-1.5775,-1.8197,1.4141,47
15.841,305,5.5853,-3.0354,-2.4444,-0.2704,1.3242,1.0326,75,15.454,298,5.6747,8.3068,-9.2833,0.0783,-0.3187,0.3117,77,15.843,305,8.6254,-3.0873,-11.2891,-0.2904,-0.5126,0.1045,70,16.04,309,11.488,2.535,-12.7022,0.0745,-0.9837,1.7775,39,82294.993,1591392,-1.6082,5.5492,-8.1741,-0.4774,-1.1146,0.356,47
15.893,306,5.8427,-3.5083,-3.0628,0.477,1.6489,1.4302,75,15.505,299,5.3452,8.6346,-9.4073,0.0765,-0.118,0.0463,77,15.894,306,9.0316,-2.6928,-10.2261,-0.6069,-0.8965,0.1277,70,16.091,310,8.8385,-2.3577,-16.0826,-0.6227,-0.1336,1.9776,39,82295.045,1591393,0.0409,4.4388,-6.8718,0.3254,-0.5486,-0.4162,47
15.945,307,7.1838,-3.0714,-4.1672,1.0225,1.422,1.7205,75,15.557,300,4.7899,7.3965,-10.2478,0.6653,0.209,-0.4634,77,15.946,307,10.8667,-1.9654,-10.5474,-0.6436,-1.3276,0.1793,70,16.143,311,6.4091,-0.6198,-15.1861,-0.0752,0.5874,1.7219,39,82295.096,1591394,1.2464,3.6357,-5.8876,0.9114,-0.0923,-0.9798,47
15.997,308,6.9201,2.0291,-3.255,1.3476,0.7133,1.9323,75,15.609,301,4.4495,6.8933,-10.0675,1.1573,0.6864,-0.8569,77,15.998,308,13.1968,-0.797,-10.2862,-1.145,-1.6423,0.3659,70,16.195,312,5.0752,0.2187,-15.1635,0.6099,1.1137,0.6471,39,82295.148,1591395,2.8773,4.2241,-3.3429,1.3391,-0.0495,-1.3912,47
16.049,309,1.1995,6.8709,-10.3721,1.4932,0.0883,2.0869,75,15.661,302,3.8687,6.9772,-9.4221,1.4458,1.0325,-1.04,77,16.05,309,9.9372,-2.6148,-11.8466,-1.5109,-1.6775,0.3915,70,16.247,313,5.2605,0.5384,-15.1899,0.6531,1.4978,-0.1992,39,82295.2,1591396,-2.2169,1.9689,-1.926,1.6512,-0.6992,-0.9962,47
16.1,310,2.6648,5.7451,-13.0713,0.485,-0.6049,0.848,75,15.713,303,3.1644,7.8342,-8.9001,0.384,0.4838,-0.4883,77,16.102,310,9.3282,-1.2511,-9.851,-1.1993,-1.1788,0.6726,70,16.299,314,7.191,-1.0975,-16.3461,-0.2004,1.7672,-0.8168,39,82295.252,1591397,-4.1435,1.7965,0.3602,1.3935,-1.0308,-0.8725,47
16.152,311,7.0025,9.583,-7.4067,0.6057,-1.1108,-0.0562,75,15.765,304,4.2775,7.8444,-9.6487,-0.3839,-0.3183,0.207,77,16.154,311,8.77,-0.2774,-9.4824,-1.5341,-0.1898,0.9247,70,16.35,315,8.6193,-4.8768,-17.9975,-0.8233,1.9747,-1.0378,39,82295.303,1591398,-0.231,-1.4733,2.7608,0.347,-1.1497,-0.8858,47
16.204,312,10.1684,1.7963,-12.6519,-0.2353,-1.0734,0.5768,75,15.816,305,5.2031,7.5288,-9.8774,-0.7408,-0.5863,0.7459,77,16.205,312,9.3968,0.4476,-9.8898,-0.9583,0.5399,1.0738,70,16.402,316,6.9365,-7.3287,-21.1166,-1.1638,1.161,-0.4803,39,82295.355,1591399,-0.0431,-1.0016,0.6291,-0.4246,-1.5022,-0.5416,47
16.256,313,9.8087,-1.3538,-9.4213,-0.8491,-0.6897,1.0331,75,15.868,306,4.8197,7.301,-9.872,-1.2207,-0.8632,1.2098,77,16.257,313,10.1072,1.2209,-10.5432,-0.9082,1.0724,1.0684,70,16.454,317,7.5771,-5.1228,-14.137,-0.9851,0.776,-0.1162,39,82295.407,1591400,0.0691,-0.6311,-0.947,-0.9878,-1.7594,-0.2922,47
16.308,314,5.4272,0.6705,-4.5435,0.0547,-0.1514,0.3444,75,15.92,307,5.1843,6.9029,-10.2951,-1.5709,-1.2229,1.5483,77,16.309,314,10.5753,0.6025,-11.1959,-1.1719,1.461,0.9047,70,16.506,318,10.6474,-4.9891,-13.5876,-1.3961,0.2888,0.2749,39,82295.459,1591401,0.0096,-0.3525,-2.4638,-1.3988,-1.9472,-0.1118,47
16.359,315,6.2693,1.8733,-0.7453,-0.2294,0.5325,-0.4238,75,15.972,308,6.2662,6.8561,-10.4438,-1.8266,-1.5652,1.7954,77,16.361,315,8.0605,-0.7396,-14.1268,-0.8017,1.7447,0.6642,70,16.558,319,10.813,-3.7973,-12.5874,-1.1455,-0.2788,0.2796,39,82295.511,1591402,1.8777,0.1698,-1.3077,-1.6988,-0.9219,0.5941,47
16.411,316,3.6544,1.1266,0.1853,-0.7265,1.0711,-0.6989,75,16.024,309,5.9442,6.3008,-9.8496,-1.9445,-1.2207,1.331,77,16.413,316,9.0224,0.1083,-8.5201,0.0654,0.8154,0.4855,70,16.609,320,10.2395,-2.7361,-12.9838,-0.7122,-0.3968,0.237,39,82295.562,1591403,3.791,0.3583,1.1173,-1.9177,-0.0809,1.1093,47
16.463,317,1.8908,-0.1515,-1.3942,-0.6587,1.4641,-0.6779,75,16.075,310,5.6873,5.1302,-9.6897,-1.776,-0.8376,0.8024,77,16.464,317,1.2608,-1.2419,-12.0853,-0.3756,0.5456,0.184,70,16.661,321,9.8651,-2.5744,-13.0618,-0.5477,-0.4076,0.2048,39,82295.614,1591404,5.1799,0.4454,2.9443,-2.0775,0.6002,1.4853,47
16.515,318,1.0245,-1.169,-4.7718,-0.1105,1.751,-0.7472,75,16.127,311,5.2206,4.0189,-9.7359,-1.1514,-0.3382,0.2963,77,16.516,318,2.8917,-0.8994,-12.6831,-0.5394,-0.1685,0.4403,70,16.713,322,9.5649,-2.0391,-12.7448,-0.247,-0.4274,0.1628,39,82295.666,1591405,6.1932,0.4342,4.2918,-2.1941,1.1266,1.7597,47
16.567,319,1.7779,-2.2837,-11.4792,0.2524,1.3109,-1.2205,75,16.179,312,6.3822,3.3688,-10.5568,-0.1771,0.0411,0.1401,77,16.568,319,3.5947,-0.7158,-14.1567,-0.609,-0.3554,0.677,70,16.765,323,9.0268,-0.9844,-12.5909,0.0048,-0.5967,0.2661,39,82295.718,1591406,6.9186,0.3433,5.2772,-2.2792,1.5109,1.96,47
16.618,320,5.8424,3.7232,-16.0051,0.8586,0.2874,-1.2104,75,16.231,313,7.0505,4.1997,-9.3584,0.3361,0.2958,0.4002,77,16.62,320,4.9893,-1.0975,-14.2802,-0.8267,-0.1322,0.8906,70,16.816,324,8.891,-1.9151,-13.0281,-0.0143,-0.7423,0.4819,39,82295.77,1591407,7.433,0.2119,5.971,-2.3414,1.7914,2.1062,47
16.67,321,2.9479,1.5941,-9.1154,1.261,-0.4596,-0.4721,75,16.283,314,8.086,3.5119,-10.5672,-0.0493,0.0076,0.7304,77,16.671,321,6.4877,-2.8796,-13.62,-1.2786,0.1473,1.1155,70,16.868,325,9.0683,-1.5864,-13.4292,0.2321,-1.0584,0.7195,39,82295.821,1591408,8.4687,5.4857,5.3814,-1.1796,1.7094,1.2764,47
16.722,322,7.2091,6.5534,-7.492,0.9657,-0.9468,-1.0197,75,16.334,315,8.9773,4.6772,-9.9132,0.6357,-0.0192,0.9368,77,16.723,322,6.0793,-3.3343,-13.8321,-1.6084,0.332,1.2267,70,16.92,326,11.6436,-3.1447,-14.8772,0.6854,-1.4392,1.1933,39,82295.873,1591409,6.4593,3.9654,3.0904,-0.187,1.1472,0.2688,47
16.774,323,10.3192,4.3102,-2.8985,0.4015,-1.1738,-0.0978,75,16.386,316,9.3773,5.6586,-9.5861,-0.0892,-0.5675,1.314,77,16.775,323,5.8621,-2.9878,-14.2993,-1.4934,0.2039,0.9445,70,16.972,327,13.6153,-1.9366,-14.9928,1.1749,-1.7051,1.5513,39,82295.925,1591410,5.2536,2.8866,1.0163,0.5374,0.7333,-0.4674,47
16.825,324,10.3261,4.1099,0.4757,-0.3843,-0.1743,0.5344,75,16.438,317,9.1039,4.5532,-10.7124,-0.7451,-0.9536,1.4648,77,16.827,324,7.525,-2.3587,-13.5828,-1.1471,-0.1166,0.5699,70,17.024,328,12.5328,1.8189,-15.2187,0.6272,-1.2494,1.8125,39,82295.977,1591411,5.9444,2.6185,2.4457,0.1993,0.6949,-0.2581,47
16.877,325,11.8314,-0.4085,1.4148,-0.1415,0.5552,1.0666,75,16.49,318,8.4293,3.223,-11.0598,-0.7271,-0.825,0.6787,77,16.879,325,9.2369,-2.3337,-12.7891,-0.8609,-0.7028,0.2242,70,17.075,329,8.9695,-0.5505,-16.7291,-0.2193,-0.4561,2.0032,39,82296.028,1591412,4.6422,1.966,-0.0734,-0.5324,0.6423,0.1942,47
16.929,326,8.987,-0.5513,-0.1046,0.5618,1.0876,1.3712,75,16.542,319,7.4582,2.2816,-11.3128,-0.343,-0.5408,-0.1565,77,16.93,326,12.0073,-2.5833,-11.4788,-1.2787,-1.1863,0.0442,70,17.127,330,7.7614,0.4356,-15.606,-0.4152,0.3521,1.8326,39,82296.08,1591413,3.7099,1.4857,-1.8548,-1.0665,0.6104,0.616,47
16.981,327,5.813,2.2934,-2.4634,1.0844,1.4762,1.6774,75,16.593,320,6.8802,2.5969,-10.5546,-0.208,-0.2696,-0.6577,77,16.982,327,11.9132,-2.3136,-11.8085,-1.2718,-1.5392,-0.2498,70,17.179,331,6.8115,0.9676,-15.428,0.1494,0.9419,0.9576,39,82296.132,1591414,3.0218,1.1356,-3.1747,-1.4562,0.5948,0.925,47
17.033,328,4.0406,3.067,-7.4217,1.4658,1.7598,1.9009,75,16.645,321,7.2131,2.3148,-11.0972,-0.7537,-0.4126,-0.8036,77,17.034,328,11.1072,-3.0732,-10.3245,-1.2711,-1.2731,-0.1706,70,17.231,332,6.6732,1.8316,-15.9441,0.1962,1.3724,0.0275,39,82296.184,1591415,2.5166,0.8648,-4.1396,-1.7407,0.5906,1.1514,47
17.084,329,2.9701,3.0686,-11.0162,1.5995,0.8059,2.0631,75,16.697,322,8.1362,1.6048,-11.6038,-0.6034,-0.3799,-1.0817,77,17.086,329,9.3917,-1.8607,-10.5445,-1.4365,-0.2508,-0.0009,70,17.282,333,8.1631,1.794,-17.0685,-0.5339,1.6866,-0.6513,39,82296.236,1591416,2.1492,0.6741,-4.863,-1.9483,0.5938,1.3169,47
17.136,330,5.0001,3.9317,-14.8355,1.217,-0.0812,1.1073,75,16.749,323,8.6384,2.0927,-11.1473,-0.2144,-0.2825,-0.8983,77,17.138,330,8.0717,-2.6397,-12.1284,-0.8873,0.4953,0.1876,70,17.334,334,9.5555,0.0276,-19.8605,-1.0667,1.9159,-1.1468,39,82296.287,1591417,1.8789,0.4685,-5.522,-2.0998,0.6029,1.4391,47
17.188,331,2.8814,5.7951,-18.8241,0.2109,0.6232,0.4152,75,16.801,324,9.2943,2.9103,-11.2325,-0.8034,-0.2317,-0.4277,77,17.189,331,8.0232,-1.6889,-14.151,0.0289,1.0398,-0.2488,70,17.386,335,9.5836,-4.2955,-21.8416,-0.3101,1.689,-1.5084,39,82296.339,1591418,6.7297,3.0359,-4.0797,-2.2099,0.4235,1.3845,47
17.24,332,0.6935,4.2332,-15.9286,-0.5235,-0.2145,-0.3721,75,16.853,325,10.0182,2.9937,-11.7102,-1.2664,-0.1288,-0.1885,77,17.241,332,8.0058,-1.5364,-16.3568,0.174,1.4373,-0.5725,70,17.438,336,8.2366,-6.0417,-23.9222,-0.9034,0.5661,-0.4205,39,82296.391,1591419,9.9794,3.7984,-2.1852,-2.2907,-0.354,0.7822,47
17.292,333,5.5637,1.6648,-15.2305,-1.0594,-0.6451,-0.0009,75,16.905,326,9.9561,3.367,-11.8257,-0.5506,0.4166,-0.7506,77,17.293,333,6.9019,0.6338,-19.6978,-0.4851,1.7272,-0.2651,70,17.49,337,0.9401,-4.8995,-23.7337,-0.4128,0.5545,0.2929,39,82296.443,1591420,9.2638,3.5629,-3.0237,-1.8849,-0.9214,-0.0981,47
17.343,334,9.1183,1.3528,-9.764,-1.4506,-0.2389,-0.2403,75,16.956,327,8.7035,3.5357,-11.6334,-0.1562,0.8246,-0.9544,77,17.345,334,8.9273,1.1433,-21.3427,0.0279,1.1117,-0.3161,70,17.541,338,1.989,-4.0472,-21.5421,-0.2758,0.0152,0.2775,39,82296.494,1591421,6.7227,2.1913,-4.0271,-1.4913,-1.3356,-0.7477,47
17.395,335,7.2646,1.647,-6.2998,-1.7361,0.508,-0.8505,75,17.008,328,6.8833,3.1819,-11.3615,0.2406,0.76,-0.817,77,17.397,335,10.0343,0.9538,-19.6538,-0.1068,0.5613,-0.0656,70,17.593,339,3.6391,-3.2167,-19.8332,0.2405,-0.313,0.0706,39,82296.546,1591422,4.8158,1.1781,-4.7321,-1.1804,-1.6379,-1.2217,47
17.447,336,7.2397,0.6779,-4.2122,-1.9444,1.0532,-1.129,75,17.06,329,5.7589,3.1789,-10.9301,0.5821,0.4329,-0.651,77,17.448,336,9.7882,-0.0511,-17.4208,-0.4266,0.3515,0.0136,70,17.645,340,4.4425,-2.7816,-18.7317,0.4798,-0.3095,0.0116,39,82296.598,1591423,3.7889,2.5056,-0.8903,-0.2112,-1.8585,-0.216,47
17.499,337,5.6404,-0.916,-3.0451,-1.2633,1.4511,-1.1675,75,17.112,330,6.0206,3.2746,-10.819,-0.0339,0.0501,-0.3062,77,17.5,337,9.3822,-0.1714,-16.0256,-0.363,0.185,-0.0278,70,17.697,341,4.7976,-2.2267,-17.061,0.5574,-0.2231,0.159,39,82296.649,1591424,2.5913,2.6539,-1.5518,0.5197,-2.0195,0.5181,47
17.551,338,4.3649,-1.159,-2.8953,-0.7921,1.7415,-0.9066,75,17.164,331,6.9682,2.9814,-11.8045,-0.1894,0.0268,-0.2494,77,17.552,338,9.2407,-0.1748,-14.8137,-0.1407,-0.062,-0.0448,70,17.749,342,5.8684,-2.4583,-15.1329,0.3903,-0.2744,0.4326,39,82296.701,1591425,1.7093,2.7658,-1.9027,1.0532,-2.137,1.0538,47
17.602,339,3.6607,-2.9466,-5.2013,-1.2153,1.9534,-0.1854,75,17.215,332,6.7364,4.3934,-11.1098,0.5335,0.2695,-0.4145,77,17.604,339,9.6095,-0.3088,-14.1291,-0.2034,-0.3518,-0.0088,70,17.801,343,7.507,-1.9319,-14.3741,0.3968,-0.7224,0.7492,39,82296.753,1591426,1.0994,2.8582,-2.1823,1.4425,-2.2228,1.4448,47
17.654,340,1.6955,-2.2429,-7.0079,-0.5682,2.1081,0.5401,75,17.267,333,6.3284,5.2887,-10.0946,0.2316,-0.038,0.0476,77,17.656,340,9.7705,-0.7567,-13.6734,-0.1575,-0.6418,-0.0545,70,17.852,344,10.5963,-1.6614,-14.4551,0.675,-1.194,1.0947,39,82296.805,1591427,0.6827,2.9396,-2.3904,1.7267,-2.2854,1.7302,47
17.706,341,-4.2948,1.0247,-11.0573,-0.4622,2.0605,0.6089,75,17.319,334,5.8197,5.5307,-9.395,-0.2439,-0.4617,0.3286,77,17.708,341,10.2874,-0.4163,-13.2301,-0.2684,-0.983,-0.0989,70,17.904,345,8.584,-1.0253,-15.4667,0.8819,-1.3356,0.9893,39,82296.856,1591428,0.402,2.9977,-2.5671,1.9341,-2.331,1.9384,47
17.758,342,-3.3611,2.1936,-13.2517,0.2753,0.8345,0.2568,75,17.371,335,6.466,5.0509,-9.1495,-0.3996,-0.6453,0.4378,77,17.759,342,11.7272,-0.0239,-11.985,-0.4483,-1.3908,-0.1964,70,17.956,346,7.3779,1.3766,-13.6954,1.3183,-0.9869,0.0506,39,82296.908,1591429,0.2115,3.0425,-2.7198,2.0855,-2.3644,2.0905,47
17.81,343,-0.0083,1.4416,-17.6682,-0.4764,0.0312,-0.4877,75,17.423,336,6.5078,4.003,-9.367,-0.0003,-0.3411,0.4481,77,17.811,343,13.8248,-1.476,-12.1796,-0.7514,-1.6885,-0.3431,70,18.008,347,7.1666,1.2291,-12.8707,1.0344,-0.4362,-0.6345,39,82296.96,1591430,0.5454,-3.0373,0.5784,1.7098,-2.2765,2.2014,47
17.861,344,2.0003,-2.8999,-20.8915,0.1792,-0.6465,-0.4986,75,17.474,337,6.9765,5.497,-8.8115,-0.4003,-0.2498,0.7218,77,17.863,344,11.2127,-2.4215,-12.7943,-0.3463,-1.7022,-0.3883,70,18.059,348,7.8179,0.7721,-12.7778,0.174,0.1138,-1.1345,39,82297.012,1591431,-4.8335,-7.4746,-2.5527,0.7312,-2.2983,2.2824,47
17.913,345,6.5175,3.2735,-14.4819,-0.2087,-0.0825,-0.8635,75,17.526,338,7.5862,6.0952,-10.6617,0.358,0.4544,-0.1596,77,17.915,345,8.8326,-1.159,-11.5891,-0.3063,-0.7781,-0.5134,70,18.111,349,8.6217,-0.0027,-13.0784,-0.2271,0.5151,-1.4994,39,82297.063,1591432,-3.1375,-5.3363,-4.0802,-0.1442,-1.7345,2.3364,47
17.965,346,9.8144,-2.8086,-12.7994,-0.7488,0.6222,0.0464,75,17.578,339,5.8708,7.7794,-10.3414,0.8855,0.6991,-0.782,77,17.967,346,7.5313,-1.3957,-11.7567,-0.4027,0.1105,-0.6002,70,18.163,350,10.6042,-1.4523,-14.3066,-0.6224,0.9838,-1.7657,39,82297.115,1591433,-1.87,-3.7602,-5.2374,-0.7831,-1.3132,2.3808,47
18.016,347,8.5037,-2.149,-8.8072,-0.5282,1.1365,0.6973,75,17.63,340,5.8498,7.481,-10.9508,1.0421,0.1747,-0.7409,77,18.018,347,7.4352,-2.9487,-12.8253,0.3174,0.759,-0.7699,70,18.215,351,7.4636,-4.1454,-14.1322,-0.0282,0.7926,-1.6195,39,82297.167,1591434,-6.5964,-7.2201,-2.475,-0.2464,-1.5001,1.0616,47
18.068,348,5.5633,-1.1315,-6.8742,-0.5035,1.5119,0.5013,75,17.682,341,6.4548,7.4192,-11.1175,0.3592,-0.4369,-0.5644,77,18.07,348,8.1313,-2.9008,-13.8437,0.9082,1.2323,-0.9844,70,18.267,352,6.0134,-3.0773,-18.2955,-0.6481,0.5682,-0.5672,39,82297.219,1591435,-4.5101,-5.7415,-4.1574,0.1123,-1.758,0.0987,47
18.12,349,2.0879,-1.5414,-4.5474,0.3069,1.5968,0.4408,75,17.733,342,7.3533,6.4363,-11.6932,-0.4178,-0.9404,-0.4657,77,18.122,349,8.6188,-2.4964,-16.858,0.1698,1.5777,-0.4244,70,18.318,353,6.809,-2.5377,-15.6968,0.0402,0.7523,0.1492,39,82297.271,1591436,-2.9582,-4.5846,-5.4484,0.4056,-1.9461,-0.604,47
18.172,350,0.8932,-1.8866,-5.0348,0.8872,1.8371,0.8496,75,17.785,343,7.7714,5.803,-11.2824,-0.564,-1.0159,-0.4906,77,18.174,350,7.0071,-0.3702,-20.3086,-0.2243,0.6808,0.0323,70,18.37,354,10.0868,-4.8067,-14.8243,-0.3339,-0.1177,0.1183,39,82297.323,1591437,-1.8186,-3.7295,-6.3855,0.6444,-2.0835,-1.1169,47
18.224,351,1.4588,0.213,-5.4028,1.2505,1.6149,0.4132,75,17.837,344,7.1849,5.0392,-11.0376,-0.8883,-0.8972,-0.4764,77,18.226,351,3.7599,-3.7815,-18.113,0.5123,-0.0364,-0.0262,70,18.422,355,10.2225,-3.8142,-13.586,-0.2717,-0.3053,0.197,39,82297.374,1591438,-0.975,-3.0961,-7.0788,0.8473,-2.1837,-1.4912,47
18.275,352,0.9714,-0.2549,-9.646,0.2353,1.4241,0.4412,75,17.889,345,6.5277,3.9174,-10.8653,-0.764,-0.4414,-0.3609,77,18.277,352,3.9608,-6.2311,-17.5848,0.3685,-0.4797,0.0417,70,18.474,356,9.462,-2.809,-13.7079,0.0832,-0.3187,0.1201,39,82297.426,1591439,-0.3527,-2.6219,-7.5844,1.0245,-2.2568,-1.7644,47
18.327,353,-4.7445,-2.981,-4.4489,-0.4691,0.6483,0.043,75,17.941,346,5.1101,3.4472,-10.4994,-0.3756,0.1356,-0.0659,77,18.329,353,5.876,-4.3814,-16.4392,0.1694,-0.6735,0.1543,70,18.525,357,8.962,-2.1202,-14.0919,0.2849,-0.2816,0.1206,39,82297.478,1591440,0.1061,-2.2621,-7.9601,1.177,-2.3102,-1.9638,47
18.379,354,-6.1216,-3.7987,-5.1485,0.332,0.7142,0.4388,75,17.992,347,4.8214,4.2509,-9.3535,-0.1923,0.2313,0.5951,77,18.381,354,6.9941,-3.5246,-15.4168,-0.0578,-0.7556,0.2418,70,18.577,358,8.5878,-1.5221,-13.2117,0.4875,-0.3141,0.2023,39,82297.53,1591441,3.0124,1.1637,-8.36,0.2226,-1.3392,-1.6793,47
18.431,355,-3.1817,-3.061,-1.1664,0.5633,-0.1481,-0.0214,75,18.044,348,6.8616,4.7623,-10.1707,-0.2763,-0.4286,1.0997,77,18.433,355,7.7646,-2.9002,-14.5693,-0.208,-0.8805,0.2469,70,18.629,359,8.6934,-1.1989,-13.03,0.4113,-0.4861,0.4856,39,82297.581,1591442,5.1495,3.8456,-5.3732,-0.5154,-0.3045,-1.3764,47
18.483,356,2.7355,-4.309,-5.7144,1.0855,-0.7774,0.1318,75,18.096,349,8.6597,2.9308,-12.3355,0.4678,0.0942,1.2982,77,18.484,356,8.354,-2.5084,-14.2424,-0.342,-1.1438,0.2473,70,18.681,360,10.6825,-0.7091,-12.9413,0.3302,-0.9853,0.9994,39,82297.633,1591443,4.1417,2.6248,-4.9338,-1.0541,0.4664,-0.5357,47
18.534,357,4.718,0.4588,-5.7563,0.1186,0.0252,0.3516,75,18.148,350,8.8698,2.8219,-12.3201,1.0131,0.371,0.8386,77,18.536,357,8.8413,-1.5673,-14.1296,-0.5031,-1.4533,0.2256,70,18.732,361,12.9139,0.9228,-12.7307,0.8147,-1.3859,1.4098,39,82297.685,1591444,3.3676,1.6941,-4.6467,-1.4472,1.0291,0.097,47
18.586,358,6.9572,0.4995,-3.2995,-0.5889,0.6658,0.5118,75,18.2,351,8.0517,3.7247,-11.5696,1.1961,0.3343,0.9077,77,18.588,358,10.9231,0.3595,-13.1961,-0.7476,-1.7341,0.0781,70,18.784,362,10.4695,0.2139,-12.6854,0.6876,-1.3417,1.4486,39,82297.737,1591445,2.912,1.1691,-4.7276,-1.7341,1.4397,0.558,47
18.638,359,7.485,1.119,-1.4209,0.0757,1.1683,0.2643,75,18.252,352,7.7384,3.3694,-12.0684,0.8261,0.1422,0.9236,77,18.64,359,13.2379,-1.9804,-13.3237,-0.7193,-1.939,-0.1629,70,18.836,363,9.006,2.9325,-10.9916,0.3805,-0.9295,0.6624,39,82297.788,1591446,2.7821,1.5232,-5.3544,-0.5917,0.3877,0.6528,47
18.69,360,8.3945,-0.0866,-1.9322,-0.6221,1.5351,0.3687,75,18.303,353,7.1277,3.3979,-12.0284,1.2381,0.1794,0.3962,77,18.692,360,11.3857,-2.7358,-13.9643,-0.1398,-1.8327,-0.547,70,18.888,364,8.3303,2.5667,-10.5587,-0.0712,-0.1127,-0.188,39,82297.84,1591447,2.0655,1.4796,-3.2729,0.242,-0.3801,0.7254,47
18.741,361,7.6747,-1.9285,-4.4219,-1.1314,1.8028,0.8963,75,18.355,354,6.7119,4.2578,-11.7172,1.5176,0.1549,0.0238,77,18.743,361,9.7724,-1.5294,-12.9145,-0.2747,-1.0818,-0.8648,70,18.94,365,8.6341,1.3465,-11.3206,0.1392,0.6027,-0.8086,39,82297.892,1591448,1.5529,1.4478,-1.7406,0.8505,-0.9405,0.7811,47
18.793,362,4.137,-3.1277,-5.7485,-1.2937,1.9982,1.2074,75,18.407,355,6.0713,4.0992,-11.5701,1.2264,-0.0746,-0.1378,77,18.795,362,8.7716,-2.4895,-13.2995,-0.6303,-0.1112,-1.1427,70,18.991,366,9.2173,-1.3818,-12.1733,0.7381,1.1248,-1.2615,39,82297.943,1591449,1.186,1.4285,-0.6319,1.2946,-1.3495,0.8259,47
18.845,363,2.729,-4.2375,-9.7257,-0.7158,1.845,1.5578,75,18.459,356,7.573,4.1511,-11.7394,1.0342,-0.3731,-0.1687,77,18.847,363,8.5786,-2.4082,-13.0933,-0.2237,0.5972,-1.261,70,19.043,367,9.8449,-3.3813,-15.7552,1.2134,1.0772,-1.5921,39,82297.995,1591450,0.9078,1.4291,0.2004,1.6187,-1.648,0.8631,47
18.897,364,3.2446,-4.0462,-15.082,-0.2019,0.6773,1.5761,75,18.511,357,8.7654,2.7204,-12.505,0.5853,-0.2991,-0.3404,77,18.899,364,9.3958,-2.6875,-14.3778,0.5133,1.1142,-1.3294,70,19.095,368,8.4034,-5.2461,-19.4801,1.0704,0.3362,-0.7955,39,82298.047,1591451,0.7098,1.4334,0.8195,1.8553,-1.8659,0.8941,47
18.949,365,1.1295,-6.8266,-8.4163,0.1929,-0.1435,1.1345,75,18.562,358,9.5761,2.1397,-11.7098,0.338,-0.2811,-0.7565,77,18.951,365,9.1262,-3.9626,-16.835,1.0511,1.4915,-1.2528,70,19.147,369,10.6375,-5.931,-17.2254,0.1041,-0.0771,0.0997,39,82298.099,1591452,-0.7538,-0.1435,1.5165,2.028,-2.0249,-0.0235,47
19.0,366,5.882,-10.1801,-8.247,0.8151,-0.774,0.7332,75,18.614,359,10.1519,1.3665,-11.7405,-0.4333,-0.5819,-0.2601,77,19.003,366,7.3578,-6.8721,-20.2918,1.3863,1.1313,-0.888,70,19.199,370,12.618,-5.0371,-15.3953,0.3975,-0.7231,0.5343,39,82298.15,1591453,2.3481,-3.1875,-5.4895,1.4116,-2.1409,-0.6932,47
19.052,367,9.3505,-2.0399,-3.4665,1.2693,0.1175,1.2118,75,18.666,360,9.5862,-0.1499,-12.3927,-0.4531,-0.5911,0.1622,77,19.054,367,6.346,-1.1716,-20.4056,1.287,0.3302,-0.5382,70,19.25,371,11.461,-4.5692,-15.6332,0.3802,-0.8208,0.7379,39,82298.202,1591454,1.3257,-3.272,-3.6772,0.3523,-2.2256,-1.182,47
19.104,368,9.892,0.9117,-1.7903,0.4771,0.2248,0.5705,75,18.718,361,8.3713,-0.2071,-12.0453,0.1335,-0.4532,0.3265,77,19.106,368,6.9622,0.069,-19.115,1.2391,-0.146,-0.2821,70,19.302,372,9.3817,-3.8368,-15.7179,0.4644,-0.7816,0.6713,39,82298.254,1591455,0.646,-3.3518,-2.3557,-0.4207,-2.2875,-1.5387,47
19.156,369,8.5353,2.1895,-0.0014,0.2131,0.8465,0.4699,75,18.77,362,8.2766,-0.2487,-11.6362,0.2508,-0.6959,0.6832,77,19.158,369,7.6474,0.1152,-17.8272,0.8908,-0.2305,-0.1108,70,19.354,373,7.8392,-2.8629,-16.0327,0.4706,-0.6548,0.5381,39,82298.306,1591456,0.2028,-3.4004,-1.4016,-0.9849,-2.3326,-1.7991,47
19.208,370,7.5077,2.9071,0.6178,-0.3713,1.3002,0.3371,75,18.821,363,7.1884,-1.5188,-12.0405,0.8209,-0.4229,0.4856,77,19.21,370,8.4912,0.2624,-16.0931,0.6333,-0.3814,-0.0819,70,19.406,374,7.8948,-2.5018,-15.6963,0.4025,-0.5103,0.5541,39,82298.357,1591457,-5.0835,1.4826,-5.3923,-0.8534,-1.0415,-0.7292,47
19.259,371,8.5442,0.5478,0.2781,-0.8078,1.6314,0.5352,75,18.873,364,7.6286,-0.8012,-13.0097,1.2709,-0.0289,-0.1905,77,19.262,371,9.1535,0.7073,-14.7719,0.3985,-0.7822,-0.1383,70,19.458,375,7.0482,-2.2851,-15.3314,0.4194,-0.5509,0.5737,39,82298.409,1591458,-3.593,0.8868,-5.3669,-0.6867,-0.0714,-0.0999,47
19.311,372,9.5605,-1.4331,-1.1514,-1.2647,1.8731,1.0578,75,18.925,365,8.514,0.5598,-13.0314,1.5993,0.4533,-0.6988,77,19.313,372,10.9607,0.9799,-13.596,0.1339,-1.2443,-0.298,70,19.509,376,10.2614,-1.9823,-14.948,0.7656,-1.0585,0.4806,39,82298.461,1591459,-2.487,0.4348,-5.4517,-0.5535,0.6365,0.3592,47
19.363,373,8.1347,-3.128,-4.2215,-1.6004,2.0495,1.4487,75,18.977,366,8.1391,1.9284,-12.2965,1.8389,0.3617,-0.849,77,19.365,373,13.0184,0.2744,-12.752,-0.0266,-1.5816,-0.6898,70,19.561,377,9.3662,-1.9953,-15.2434,1.2334,-1.0764,0.1571,39,82298.513,1591460,-1.6785,0.1039,-5.5076,-0.4412,1.1532,0.6942,47
19.415,374,5.0419,-2.4069,-11.0775,-1.3698,2.1782,1.7339,75,19.029,367,7.1697,2.5695,-11.3566,1.7476,0.3205,-1.0905,77,19.417,374,9.365,-2.499,-13.4429,0.6276,-1.3952,-1.1775,70,19.613,378,5.9735,-0.5859,-12.635,1.5749,-1.3528,-0.5562,39,82298.565,1591461,-1.1083,-0.1498,-5.5347,-0.3442,1.5303,0.9381,47
19.467,375,0.6576,0.0758,-16.0814,-0.8806,0.9204,1.4257,75,19.08,368,7.5372,2.6201,-10.9048,1.8971,0.1524,-0.993,77,19.469,375,7.6278,-2.1257,-12.64,1.1345,-0.9418,-1.5334,70,19.665,379,5.8654,0.5048,-10.948,1.8241,-0.78,-1.0773,39,82298.616,1591462,-0.7115,-0.324,-5.5486,-0.2615,1.8056,1.116,47
19.518,376,1.4314,-0.7493,-19.7334,-0.3062,0.1889,0.37,75,19.132,369,6.5201,2.6982,-10.69,2.0563,0.2059,-1.0063,77,19.52,376,7.4817,-3.3052,-12.6601,1.4029,-0.1187,-1.7932,70,19.717,380,7.0234,0.2601,-11.3604,1.6015,-0.1549,-1.4577,39,82298.668,1591463,4.839,-5.4944,-12.0752,-0.1755,1.6778,1.1192,47
19.57,377,5.6509,-2.6042,-17.6629,0.4509,-0.5315,0.6159,75,19.184,370,8.9998,3.183,-11.2685,1.725,0.0214,-0.619,77,19.572,377,7.8384,-3.9927,-12.7235,1.3483,0.5918,-1.9827,70,19.768,381,6.653,-2.2661,-16.2725,1.8407,0.4013,-1.7353,39,82298.72,1591464,3.8854,-5.0353,-11.1712,-0.5071,0.7179,0.9287,47
19.622,378,9.1819,-3.0969,-15.4805,0.8049,-0.9446,1.1262,75,19.236,371,9.56,0.7906,-12.7685,1.838,0.1222,-0.5202,77,19.624,378,8.5237,-4.6217,-13.8408,1.1602,1.1102,-1.7974,70,19.82,382,9.9729,-5.9135,-9.2686,2.0181,-0.3725,-1.4358,39,82298.772,1591465,2.9605,-3.4627,-9.5864,-0.7755,-0.1391,1.0081,47
19.674,379,11.759,0.3254,-10.4684,-0.0879,-0.0617,1.212,75,19.288,372,9.7672,1.7428,-12.1166,2.0132,-0.0022,-0.9989,77,19.676,379,8.6723,-5.63,-16.8247,1.5233,1.4887,-1.1485,70,19.872,383,5.1877,-9.2224,-10.9212,0.7958,0.4131,-0.3676,39,82298.823,1591466,2.3251,-2.325,-8.4123,-0.9809,-0.7646,1.0689,47
19.725,380,13.6398,-0.4437,-8.0307,-0.7415,0.6374,1.1136,75,19.339,373,9.9609,1.4039,-12.1635,1.7947,0.0373,-0.6252,77,19.728,380,8.1054,-3.8759,-18.3695,1.7883,1.7402,-1.005,70,19.924,384,7.0856,-7.4539,-11.9597,0.776,0.2735,-0.1679,39,82298.875,1591467,1.9516,-1.3564,-6.8904,-1.3539,-0.3132,0.8666,47
19.777,381,11.0698,-1.7207,-5.7359,-1.1905,1.1476,1.2489,75,19.391,374,9.083,1.4274,-11.5574,1.9796,0.2397,-0.5553,77,19.779,381,7.6776,-4.5659,-16.0034,1.3027,0.6299,-0.4182,70,19.975,385,7.0906,-5.6264,-13.214,0.8205,0.0986,-0.1242,39,82298.927,1591468,1.6949,-1.1412,-6.8561,-1.666,0.46,0.9299,47
19.829,382,7.575,-3.2112,-8.3848,-1.2358,1.52,1.511,75,19.443,375,8.6139,2.1954,-11.0205,2.075,0.3097,-0.398,77,19.831,382,9.8743,-2.8549,-14.2994,1.6273,-0.007,-0.3801,70,20.027,386,7.9079,-3.7667,-13.7737,0.9981,-0.065,-0.246,39,82298.978,1591469,1.5041,-0.9829,-6.8565,-1.8938,1.0244,1.1358,47
19.881,383,5.2263,-4.2854,-12.8158,-0.2276,0.9102,1.4366,75,19.495,376,7.7825,2.7718,-10.9829,2.1096,0.5504,-0.5847,77,19.883,383,11.102,-2.1888,-13.5039,1.0938,-0.2781,-0.1328,70,20.079,387,7.4884,-1.9822,-14.3759,1.2162,-0.0181,-0.2657,39,82299.03,1591470,1.3462,-0.871,-6.8763,-2.0601,1.4363,1.2902,47
19.933,384,2.7244,-3.0804,-14.9429,0.3385,0.7823,1.7067,75,19.547,377,6.5841,4.0764,-10.444,1.8089,0.8213,-0.8555,77,19.935,384,11.3332,-1.414,-13.4796,1.0516,-0.4867,-0.1368,70,20.131,388,7.1697,-1.109,-14.6112,1.1499,0.0511,-0.149,39,82299.082,1591471,1.2468,-0.7961,-6.8985,-2.1814,1.737,1.4041,47
19.984,385,7.046,-7.4459,-8.3148,0.7036,-0.0984,1.9218,75,19.599,378,7.5717,3.4439,-10.5264,1.0921,0.5664,-0.8325,77,19.986,385,10.1342,-1.1935,-13.8374,1.0237,-0.379,-0.1582,70,20.183,389,6.617,-1.494,-14.3329,0.8952,0.0358,0.0736,39,82299.134,1591472,1.1739,-0.7241,-6.9314,-2.2699,1.9564,1.488,47
20.036,386,5.5305,-6.6778,-9.2203,0.8821,-0.2083,2.0793,75,19.65,379,7.9773,1.9347,-10.7112,1.2861,0.755,-1.0736,77,20.038,386,9.3212,-1.4042,-13.7446,0.9731,-0.3295,-0.26,70,20.234,390,7.0741,-3.0068,-13.0206,0.8677,-0.1575,0.157,39,82299.186,1591473,0.6251,-0.1525,-6.6227,-1.8998,1.799,1.1439,47
20.088,387,4.5968,-3.9072,-10.9698,0.0955,-0.8214,1.9983,75,19.702,380,8.8711,2.0933,-10.1454,1.1095,0.7503,-0.6795,77,20.09,387,8.3254,-1.8469,-13.1449,0.4216,-0.3514,-0.1901,70,20.286,391,8.0447,-0.8699,-13.6525,1.1101,-0.5857,0.1076,39,82299.237,1591474,1.307,4.5086,-9.9374,-1.8084,1.9247,0.2015,47
20.14,388,8.4125,-8.0494,-11.9056,0.6866,-0.5996,1.4685,75,19.754,381,9.6519,0.6873,-11.6874,1.3978,0.7726,-0.6345,77,20.142,388,7.9204,-1.3737,-12.84,-0.3621,-0.6,-0.1094,70,20.338,392,9.8174,-0.3455,-13.6097,1.4849,-1.0943,0.2015,39,82299.289,1591475,0.6262,2.8389,-10.8069,-1.3357,1.319,-0.529,47
20.191,389,11.1974,-8.2435,-11.512,-0.1762,0.2448,1.7484,75,19.806,382,8.5526,3.8425,-10.0568,1.461,0.9642,-0.3721,77,20.194,389,11.0464,-1.0059,-12.2347,-0.9327,-1.1095,-0.0941,70,20.39,393,9.5322,-0.1425,-14.4013,1.4434,-1.2098,0.194,39,82299.341,1591476,0.5765,2.0485,-10.5882,-0.9738,0.8658,-1.0621,47
20.243,390,11.1469,-5.8532,-9.9248,-0.269,0.8611,1.4182,75,19.858,383,6.8743,4.431,-9.9214,1.2035,0.7861,-0.152,77,20.246,390,9.5191,-1.4657,-14.2965,-1.21,-1.111,0.0164,70,20.441,394,8.2723,0.332,-12.1534,1.5776,-0.4814,-0.512,39,82299.393,1591477,5.7791,-3.7628,-5.427,-1.3724,0.4016,-1.4364,47
20.295,391,6.4417,-0.9082,-9.8298,0.4657,1.3109,0.3599,75,19.909,384,5.429,5.1047,-9.2712,1.1271,0.6493,-0.094,77,20.297,391,8.2085,-1.0561,-14.3504,-0.7654,-0.717,0.0126,70,20.493,395,8.4617,1.1539,-11.0054,1.8261,0.0547,-1.0451,39,82299.444,1591478,4.1103,-2.7531,-6.4388,-1.6795,-0.2055,-1.4774,47
20.347,392,3.3582,-1.4537,-9.6148,-0.3375,1.3086,-0.4124,75,19.961,385,6.1909,5.3489,-8.4781,0.712,0.1199,0.0645,77,20.349,392,8.3964,1.9661,-15.9788,-0.8279,-0.4632,0.1602,70,20.545,396,9.7232,0.7356,-10.3665,1.2856,0.7249,-1.4342,39,82299.496,1591479,2.8999,-2.0194,-6.7946,-1.9037,-0.6572,-1.5085,47
20.399,393,3.4963,-6.2587,-11.3199,-0.6061,1.2996,0.0362,75,20.013,386,7.2362,4.6235,-9.4066,-0.1604,-0.3657,0.334,77,20.401,393,7.7004,0.4366,-15.5092,-0.6749,-0.4899,0.1014,70,20.597,397,10.5593,-0.1816,-11.4852,0.4185,1.214,-1.7181,39,82299.548,1591480,2.0108,-1.4864,-7.0584,-2.0673,-0.9987,-1.5321,47
20.45,394,2.9098,-8.3654,-12.459,0.232,1.6309,0.7031,75,20.065,387,8.9812,3.6318,-10.6318,-0.3825,-0.4828,0.1031,77,20.453,394,8.2841,2.2094,-14.5706,-0.5954,-0.498,0.0084,70,20.649,398,8.1376,-5.4293,-16.3636,-0.0974,1.3698,-1.2616,39,82299.6,1591481,1.3695,-1.0885,-7.2471,-2.1866,-1.257,-1.5506,47
20.502,395,1.8718,-0.7155,-15.7872,0.8437,1.7925,1.1898,75,20.117,388,10.3931,2.9925,-11.3156,0.0205,-0.3063,-0.5745,77,20.505,395,8.7628,1.7187,-14.3161,-0.4133,-0.6669,-0.1633,70,20.701,399,10.6416,-5.8613,-18.3906,-0.4546,0.6381,-0.4007,39,82299.651,1591482,0.8808,-0.8011,-7.3886,-2.2738,-1.4575,-1.5654,47
20.554,396,2.3478,-5.7199,-8.9311,-0.0592,0.6389,1.1894,75,20.168,389,9.7876,4.1916,-10.9531,-0.2979,-0.1393,-0.9648,77,20.557,396,9.3211,0.7902,-14.2488,0.0863,-0.7543,-0.3293,70,20.752,400,8.6933,-5.3439,-17.5827,-0.4575,0.056,-0.0641,39,82299.703,1591483,5.9894,-1.945,-2.8292,-1.9899,-1.068,-0.9969,47
20.606,397,6.7711,-9.3724,-11.4478,0.6312,-0.203,1.1358,75,20.22,390,9.0637,6.493,-12.1749,-0.1266,-0.2215,-1.3905,77,20.608,397,8.9527,1.1781,-12.8034,0.4702,-0.4641,-0.4175,70,20.804,401,8.345,-4.1566,-16.8751,-0.3844,-0.0837,-0.0487,39,82299.755,1591484,-0.8602,-6.6774,-1.0455,-0.9153,-0.4673,-0.0574,47
20.658,398,9.7501,-1.4504,-16.3516,1.1351,-0.8175,0.4429,75,20.272,391,8.5431,9.1336,-14.1157,0.5693,-0.3892,-1.7013,77,20.66,398,8.7744,0.0971,-12.4202,0.3989,0.1175,-0.3919,70,20.856,402,8.4569,-3.5121,-15.8437,-0.2354,-0.0058,0.0201,39,82299.807,1591485,-0.5636,-5.1953,-3.1583,-0.5569,0.3476,0.6338,47
20.71,399,12.1737,-2.5868,-15.7855,0.151,-1.266,-0.2284,75,20.324,392,7.3141,9.4715,-16.3484,0.9844,-0.9568,-1.928,77,20.712,399,9.6845,-0.3003,-12.1802,0.7568,0.7641,-0.4572,70,20.908,403,8.4113,-2.6312,-15.4212,-0.1244,-0.0419,-0.0078,39,82299.858,1591486,-0.3222,-4.1622,-4.77,-0.2715,0.9423,1.1383,47
20.761,400,9.9894,-2.3622,-12.0442,-0.5671,-0.2416,0.4858,75,20.376,393,6.428,6.7004,-18.0999,1.3902,-1.371,-2.0935,77,20.764,400,10.7419,-0.7375,-12.3559,1.1928,1.2361,-0.4368,70,20.96,404,8.1698,-2.0234,-14.8348,-0.1927,-0.0429,0.0318,39,82299.91,1591487,0.0134,-3.4309,-6.0162,-0.0327,1.3764,1.5064,47
20.813,401,7.6447,-3.1475,-11.1983,-0.7271,0.5061,1.0312,75,20.427,394,5.0406,6.9239,-17.7333,1.6864,-1.6733,-2.2143,77,20.815,401,11.4075,-0.7128,-12.361,1.4591,1.5805,-0.4618,70,21.011,405,9.4721,-1.1618,-14.2029,-0.2493,-0.1081,0.034,39,82299.962,1591488,0.8801,-0.8137,-5.8045,-0.0837,1.6932,0.4234,47
20.865,402,3.757,-2.0665,-9.7533,-0.7071,1.0518,1.4292,75,20.479,395,4.0693,6.66,-16.8073,1.9025,-1.8939,-2.0272,77,20.867,402,11.0506,-1.0373,-13.0066,1.5685,1.8319,-0.408,70,21.063,406,9.0572,-0.5949,-13.8948,-0.2439,-0.1368,0.0432,39,82300.013,1591489,0.7416,1.6024,-4.5985,-0.2305,1.9245,-0.367,47
20.917,403,-1.2813,-2.8094,-9.9963,-0.0958,1.4501,1.7198,75,20.531,396,4.47,5.5274,-14.3149,2.0603,-1.9392,-1.8298,77,20.919,403,9.5847,-1.5019,-14.9671,1.7075,1.9676,-0.3291,70,21.115,407,7.9374,-1.1069,-14.3511,-0.4333,-0.004,0.1572,39,82300.066,1591490,0.556,3.3461,-3.6776,-0.4353,2.0932,-0.9439,47
20.969,404,-2.189,-2.4892,-7.1622,-0.3056,0.3902,1.8863,75,20.583,397,2.1441,5.5176,-14.2992,1.9418,-1.1219,-1.6438,77,20.971,404,7.4051,-2.6992,-18.9285,1.9228,0.9842,-0.2284,70,21.167,408,9.6484,-1.3773,-13.1181,-0.7257,-0.1865,0.2011,39,82300.117,1591491,0.3152,4.5908,-2.9952,-0.701,2.2164,-1.365,47
