right_hand_timestamp,right_hand_index,right_hand_accel_x,right_hand_accel_y,right_hand_accel_z,right_hand_gyro_x,right_hand_gyro_y,right_hand_gyro_z,right_hand_battery_percentage,left_hand_timestamp,left_hand_index,left_hand_accel_x,left_hand_accel_y,left_hand_accel_z,left_hand_gyro_x,left_hand_gyro_y,left_hand_gyro_z,left_hand_battery_percentage,right_leg_timestamp,right_leg_index,right_leg_accel_x,right_leg_accel_y,right_leg_accel_z,right_leg_gyro_x,right_leg_gyro_y,right_leg_gyro_z,right_leg_battery_percentage,left_leg_timestamp,left_leg_index,left_leg_accel_x,left_leg_accel_y,left_leg_accel_z,left_leg_gyro_x,left_leg_gyro_y,left_leg_gyro_z,left_leg_battery_percentage,ball_timestamp,ball_index,ball_accel_x,ball_accel_y,ball_accel_z,ball_gyro_x,ball_gyro_y,ball_gyro_z,ball_battery_percentage
0.181,3,10.0178,-5.9245,-6.9903,-0.5612,-1.9243,-1.7571,75,0.439,8,-1.3398,9.335,-18.14,-1.7895,0.2226,-1.3685,77,0.645,12,9.1135,-1.7642,-9.8694,-0.0583,0.0361,-0.0522,73,0.105,2,8.2631,1.1363,-11.9591,-0.615,0.686,0.0732,39,82517.564,1595695,-2.8595,2.6873,-19.0622,-0.2311,0.2528,0.1458,47
0.232,4,10.2387,-4.8741,-7.3734,-0.5427,-1.5994,-1.385,75,0.49,9,-1.9216,6.05,-17.3161,-1.986,0.0554,-1.5639,77,0.697,13,10.0349,-1.8918,-9.2106,-0.2613,-0.4245,-0.283,73,0.157,3,5.318,-2.042,-7.0917,-0.3936,0.6066,-0.1126,39,82517.616,1595696,-2.924,2.8015,-20.3543,-0.2154,0.2616,0.1101,47
0.284,5,9.7811,-4.1192,-7.874,-0.9161,-1.0555,-0.9111,75,0.542,10,-2.6706,4.786,-16.7327,-2.1295,-0.3184,-1.3935,77,0.748,14,10.9168,-3.3132,-8.5527,-0.3263,-0.7911,-0.3728,73,0.209,4,5.4771,-1.1864,-7.6371,-0.54,0.4396,-0.1491,39,82517.667,1595697,-3.2745,2.9588,-21.374,-0.2019,-0.0497,-0.5676,47
0.336,6,9.5466,-3.3249,-8.0666,-1.1885,-0.665,-0.4054,75,0.594,11,-3.1474,3.0046,-16.7266,-2.2342,-0.8865,-1.0128,77,0.8,15,10.1056,-3.5121,-7.7496,-0.6099,-0.3506,-0.1496,73,0.26,5,6.7496,-0.5761,-7.9356,-0.1824,0.3742,-0.216,39,82517.719,1595698,-2.8246,3.1253,-20.3921,0.0653,-0.6774,-1.0903,47
0.388,7,9.478,-2.3918,-8.5902,-1.1833,-0.5035,-0.043,75,0.646,12,-1.6888,1.7561,-16.063,-2.3107,-1.3197,-0.6813,77,0.852,16,9.8014,-3.4967,-7.7099,-0.9612,0.1877,0.2008,73,0.312,6,7.2795,0.2248,-8.3309,-0.1613,0.1703,-0.2035,39,82517.771,1595699,-2.0296,3.0145,-18.6421,0.5931,-1.1575,-1.4718,47
0.439,8,9.8213,-1.3835,-9.3934,-1.0594,-0.3597,0.3165,75,0.698,13,2.3192,-1.0642,-9.0873,-2.3665,-1.6358,-1.0207,77,0.904,17,9.3261,-2.7723,-9.0946,-0.8443,0.6057,0.5756,73,0.364,7,7.703,0.7586,-9.0341,-0.1365,-0.0548,-0.1197,39,82517.823,1595700,-1.1023,2.1842,-16.2272,1.0764,-1.5079,-1.7503,47
0.491,9,9.4938,-0.6263,-9.757,-0.8088,-0.2855,0.4792,75,0.75,14,6.6125,-2.219,-7.7776,-1.0554,-1.8666,-1.2743,77,0.956,18,9.0444,-1.8713,-10.4918,-0.8488,0.6349,0.5814,73,0.416,8,8.0931,0.9107,-9.3087,-0.136,-0.2252,-0.0472,39,82517.875,1595701,-0.3128,1.6094,-14.4697,1.4595,-1.7636,-1.9535,47
0.543,10,9.8546,0.1251,-10.1783,-0.646,-0.2412,0.5593,75,0.801,15,9.746,-2.954,-6.1713,-0.8562,-0.6832,-0.6015,77,1.008,19,7.2835,0.6394,-13.5849,-0.4391,0.2315,0.2342,73,0.468,9,8.2495,1.1331,-9.8521,-0.0365,-0.4031,-0.021,39,82517.927,1595702,0.3382,1.1362,-13.1541,1.7391,-1.9502,-2.1018,47
0.595,11,9.5047,0.5772,-10.3781,-0.5222,-0.0623,0.5502,75,0.853,16,10.2984,-0.7635,-4.6809,-0.9553,0.0923,-0.8083,77,1.059,20,9.5517,1.8004,-17.4651,-0.2874,0.1525,-0.3718,73,0.519,10,8.7468,0.9772,-9.9291,0.079,-0.7777,0.0875,39,82517.978,1595703,0.8917,0.6539,-12.0172,1.9431,-2.0864,-2.21,47
0.646,12,9.1493,0.8041,-10.408,-0.4562,0.0058,0.4449,75,0.905,17,7.9403,-0.3455,-2.0597,-1.1395,0.7465,-0.882,77,1.111,21,7.289,-0.2575,-18.2907,0.1601,0.7081,-0.4945,73,0.571,11,11.2265,1.6988,-8.6422,0.33,-1.2344,0.331,39,82518.03,1595704,0.9577,0.4062,-11.4972,2.0921,-2.0575,-2.289,47
0.698,13,8.8346,0.7226,-10.4094,-0.4313,0.0558,0.3317,75,0.957,18,6.3033,-0.0801,-0.2372,-0.7834,1.2239,-0.8729,77,1.163,22,8.308,-2.1426,-18.6908,0.1364,0.535,-0.3752,73,0.623,12,12.3808,2.6513,-8.9798,0.5735,-1.5677,0.6866,39,82518.082,1595705,0.36,1.2384,-12.4951,2.2008,-1.8294,-2.3467,47
0.75,14,8.4847,0.3035,-10.5522,-0.3182,0.0874,0.2301,75,1.009,19,3.9438,-2.3615,-0.0949,-1.2518,1.5723,-0.623,77,1.215,23,8.8022,-3.5041,-15.1504,0.1544,0.2683,-0.3892,73,0.675,13,10.8073,3.0103,-6.8224,-0.2351,-1.7335,0.9846,39,82518.134,1595706,-0.2122,0.8506,-11.7121,1.9468,-1.9909,-2.3888,47
0.802,15,7.8358,-0.0431,-10.6057,-0.3229,0.1369,0.1318,75,1.06,20,2.1008,-1.8453,-0.3277,-0.8935,1.8266,-0.1281,77,1.267,24,9.5324,-3.3055,-13.6778,0.3046,-0.0918,-0.502,73,0.727,14,9.8838,2.8084,-5.4596,-0.4502,-1.0097,1.1549,39,82518.185,1595707,-0.0203,0.2427,-10.5184,1.2935,-2.1161,-2.4195,47
0.854,16,7.9186,-0.4966,-10.6373,-0.467,0.1615,-0.0363,75,1.112,21,-1.115,-1.9326,-3.7423,0.017,1.8633,0.1751,77,1.318,25,7.6301,-2.9136,-13.6834,0.3185,0.0643,-0.4936,73,0.778,15,9.5039,3.0236,-5.6647,-0.6418,-0.0519,1.2329,39,82518.237,1595708,5.3435,-5.0807,-5.1134,1.2254,-1.3866,-2.1273,47
0.905,17,8.1745,-0.9391,-10.6739,-0.4258,0.1998,-0.1162,75,1.164,22,-0.6274,2.3118,-9.5152,0.1588,0.6872,0.147,77,1.37,26,8.4207,-1.8113,-13.735,0.2811,-0.0105,-0.489,73,0.83,16,9.9007,3.2274,-6.8573,-1.0342,0.6471,1.1006,39,82518.289,1595709,3.7974,-3.1429,-4.3868,1.1876,-0.3233,-2.1061,47
0.957,18,9.0144,-0.7899,-10.7638,-0.6549,0.4011,0.0065,75,1.216,23,0.071,6.271,-12.8224,0.5663,0.2578,-0.1167,77,1.422,27,8.7795,-1.4432,-13.4365,0.2399,-0.4766,-0.5261,73,0.882,17,10.6551,3.2996,-7.987,-1.4319,1.1572,0.8866,39,82518.341,1595710,2.9209,-1.804,-4.0932,1.1367,0.4527,-2.1286,47
1.009,19,9.7334,0.0295,-11.082,-0.4549,-0.1612,0.301,75,1.268,24,0.1847,6.3031,-17.2433,-0.2667,-0.4775,-0.3062,77,1.474,28,9.1067,-1.7118,-13.0398,0.1354,-0.9293,-0.4701,73,0.934,18,11.5732,3.6806,-8.9837,-1.7221,1.5296,0.7254,39,82518.392,1595711,2.2776,-0.8301,-3.9064,1.0726,1.019,-2.1419,47
1.061,20,10.9066,1.3202,-11.0404,-0.6009,0.025,0.4931,75,1.319,25,2.2204,2.1993,-11.6991,-0.8747,-1.0212,-0.9099,77,1.526,29,9.6895,-1.7274,-13.099,0.0158,-1.2448,-0.469,73,0.986,19,12.0794,3.3912,-12.0923,-1.7125,1.8013,0.6132,39,82518.444,1595712,3.0517,-0.8246,-5.2539,0.9637,1.4324,-2.0213,47
1.113,21,10.2709,2.1232,-10.7343,-0.7104,-0.2699,0.4172,75,1.371,26,6.5404,4.2003,-6.5559,-0.9139,-1.418,-0.6506,77,1.577,30,10.6966,-1.4455,-13.4006,-0.2688,-1.515,-0.5082,73,1.037,20,10.2949,3.5556,-15.7465,-1.0166,1.7159,0.2646,39,82518.496,1595713,4.0301,0.7003,-5.7084,0.7945,1.7341,-2.1338,47
1.164,22,10.0373,2.6265,-10.5611,-0.7402,-0.4133,0.2209,75,1.423,27,9.6415,4.7349,-5.1414,-0.8866,-0.3558,-0.5081,77,1.629,31,12.0544,-1.0865,-14.2418,-0.8104,-1.7791,-0.6407,73,1.089,21,5.3316,3.7833,-16.5324,-0.183,1.0092,0.1028,39,82518.547,1595714,4.2646,0.8538,-6.0222,0.7084,1.9543,-2.2334,47
1.216,23,9.7891,2.5551,-10.549,-0.9827,-0.3371,-0.0877,75,1.475,28,9.7457,1.6585,-3.7191,-1.3271,0.4194,-0.3805,77,1.681,32,12.0015,-2.6118,-14.2279,-1.0258,-1.9719,-0.7072,73,1.141,22,9.0085,5.8519,-13.7183,-0.8106,0.0698,-0.1471,39,82518.599,1595715,6.4205,-1.1258,-7.0102,0.5882,2.115,-2.3061,47
1.268,24,9.1712,2.074,-10.5371,-1.0856,-0.2568,-0.3657,75,1.527,29,8.4875,-0.1602,-1.4399,-0.9019,0.9504,-0.2353,77,1.733,33,9.405,-3.1646,-13.1912,-0.8003,-1.4453,-0.3397,73,1.193,23,9.2528,4.5848,-13.5552,-0.6963,-0.5407,-0.3135,39,82518.651,1595716,8.4085,-2.3393,-7.8117,0.2536,2.2323,-1.7419,47
1.32,25,8.6612,1.5088,-10.4172,-1.0988,-0.3763,-0.6207,75,1.578,30,6.3725,-1.2945,0.2045,-0.3979,1.3727,-0.0239,77,1.784,34,8.1576,-3.8893,-12.6847,-0.4085,-0.832,0.245,73,1.245,24,10.0439,2.7528,-12.6835,-0.6546,-0.647,-0.4621,39,82518.703,1595717,10.4771,-1.0535,-8.4429,0.2955,2.1442,-0.8033,47
1.371,26,8.0391,0.7886,-9.9879,-1.1448,-0.4132,-0.775,75,1.63,31,7.687,3.7335,2.7971,-0.7688,1.681,-0.0817,77,1.836,35,8.1831,-2.3269,-11.9075,-0.0677,-0.4217,0.8487,73,1.296,25,9.436,3.2548,-11.8991,-0.2597,-0.5739,-0.4332,39,82518.754,1595718,13.005,-2.3149,-12.3982,0.8896,1.1575,0.0768,47
1.423,27,7.5974,-0.1868,-9.6005,-1.1204,-0.3642,-0.8126,75,1.682,32,2.3783,3.1537,-2.2459,-0.298,1.58,0.0343,77,1.888,36,9.042,0.0486,-11.1543,-0.6389,0.3706,1.2972,73,1.348,26,9.1995,2.6784,-11.1682,-0.2733,-0.4961,-0.3462,39,82518.806,1595719,9.2617,-1.3633,-11.2489,1.3082,0.1817,0.7317,47
1.475,28,7.566,-1.0681,-9.4825,-0.9857,-0.2455,-0.622,75,1.734,33,1.2305,4.8057,-7.2499,-0.3903,1.8248,0.0701,77,1.94,37,9.9609,1.6234,-10.4799,-0.7877,0.9488,1.6245,73,1.4,27,9.1146,1.6181,-10.5858,-0.3234,-0.528,-0.2439,39,82518.858,1595720,1.5281,-0.0249,-16.1846,1.6023,-0.5305,1.2097,47
1.527,29,8.8881,-1.6949,-9.1898,-0.5307,-0.4122,-0.2974,75,1.786,34,0.2508,7.3233,-12.4392,0.105,0.6749,-0.1664,77,1.992,38,11.0986,3.166,-10.2494,-0.9602,1.3709,1.8349,73,1.452,28,9.172,1.3842,-10.4114,-0.244,-0.5621,-0.1931,39,82518.91,1595721,1.4642,-0.4577,-15.122,1.59,0.3015,1.4528,47
1.579,30,9.0814,-0.8253,-10.3672,-0.257,0.0278,0.2635,75,1.837,35,-2.8477,6.5869,-13.196,-0.3964,-0.0878,-0.7817,77,2.043,39,11.7766,3.4223,-9.9801,-0.9278,1.6789,1.7968,73,1.504,29,9.2027,1.1943,-10.3032,-0.1363,-0.5921,-0.1347,39,82518.961,1595722,1.0563,-0.6271,-12.6503,1.6023,0.9087,1.6637,47
1.63,31,10.886,0.4914,-10.8939,-0.0748,0.1893,0.8258,75,1.889,36,2.8415,5.4662,-6.9832,-0.9693,-0.7367,-1.2569,77,2.095,40,12.4364,2.9574,-11.0361,-0.6257,1.9037,1.3683,73,1.555,30,9.1754,1.0141,-10.3131,-0.024,-0.6646,-0.0644,39,82519.013,1595723,0.76,-0.7425,-10.8143,1.6323,1.3519,1.8136,47
1.682,32,10.682,2.0943,-11.9204,-0.2052,0.3909,1.0077,75,1.941,37,6.9937,-0.7324,-2.4488,-0.8425,0.1346,-0.4574,77,2.147,41,11.0155,2.0819,-14.6125,-0.2261,2.0677,0.9399,73,1.607,31,9.0985,0.8104,-10.4666,0.0845,-0.8335,0.0653,39,82519.065,1595724,-0.1405,-2.857,-8.1898,1.8283,1.6753,1.7912,47
1.734,33,10.819,2.4257,-12.2571,-0.4228,0.5349,0.9586,75,1.993,38,9.5961,-0.111,-3.2564,0.0568,0.7773,-0.4716,77,2.199,42,8.7316,1.4591,-18.6697,0.1602,1.3842,0.5677,73,1.659,32,9.162,0.9195,-10.8416,0.1414,-1.142,0.277,39,82519.117,1595725,-0.2543,-3.2514,-6.6002,2.0014,1.9114,1.8544,47
1.786,34,9.8604,2.5545,-12.0431,-0.5862,0.6368,0.7187,75,2.045,39,8.9666,-2.0588,-2.3051,0.1684,1.2464,-0.3932,77,2.251,43,10.5863,4.2315,-21.0066,-0.5209,1.3507,0.0887,73,1.711,33,10.6145,0.6613,-10.7445,0.2287,-1.5003,0.4855,39,82519.169,1595726,0.7208,-4.8147,-4.5589,1.9261,1.8484,1.8264,47
1.837,35,8.6645,2.0251,-11.5005,-0.5531,0.5134,0.4333,75,2.096,40,6.2412,-2.878,-1.4832,0.3177,1.5885,-0.1288,77,2.302,44,11.0778,3.0857,-17.0787,0.1007,1.2302,-0.1914,73,1.763,34,12.8643,1.8115,-10.23,0.1652,-1.7617,0.5933,39,82519.22,1595727,-1.542,-5.0872,-2.2741,1.3201,1.6479,1.4927,47
1.889,36,7.6916,1.1783,-10.9056,-0.4579,0.4412,0.1766,75,2.148,41,4.4192,0.9564,0.4332,-0.0861,1.8384,0.1976,77,2.354,45,11.304,-0.3281,-16.9736,0.0483,0.7982,-0.1223,73,1.814,35,13.4325,4.2963,-9.7566,-0.3516,-1.9526,0.8366,39,82519.272,1595728,-1.9672,-5.2023,0.5927,0.3956,1.1186,1.1781,47
1.941,37,7.5162,0.1781,-10.563,-0.3623,0.3021,-0.0434,75,2.2,42,-0.528,2.9378,-4.151,0.372,2.0208,0.3706,77,2.406,46,10.8651,-0.0541,-15.6822,0.0918,0.3475,-0.1892,73,1.866,36,13.8666,2.8477,-7.4472,-0.7625,-1.4787,0.9676,39,82519.324,1595729,-0.3632,-4.3335,-1.1414,-0.3891,0.1533,0.8311,47
1.993,38,8.0501,-1.4126,-10.3687,-0.1271,0.3278,-0.2001,75,2.252,43,0.8036,3.6349,-10.0898,0.5359,2.1006,0.4881,77,2.458,47,10.57,-0.3778,-14.5894,-0.0271,0.0905,-0.1743,73,1.918,37,11.4401,3.6338,-7.6975,-0.6828,-0.4913,0.9452,39,82519.376,1595730,-0.1594,-3.0258,-2.7591,-0.9619,-0.5512,0.5558,47
2.045,39,9.7254,-1.0834,-10.5057,0.4344,0.0375,-0.1983,75,2.304,44,-1.4935,1.2827,-15.1939,0.6934,1.5019,0.6036,77,2.51,48,9.9964,-1.267,-13.8219,0.0345,-0.2337,-0.2095,73,1.97,38,9.9999,3.3772,-8.1955,-0.6053,0.3264,0.7769,39,82519.427,1595731,-2.063,-3.1233,-3.4191,-0.0281,0.2864,1.0814,47
2.096,40,8.8142,-0.703,-10.458,0.3597,0.5409,0.028,75,2.356,45,-3.0893,1.0353,-16.7036,0.2091,0.4235,0.421,77,2.561,49,9.8559,-1.1338,-13.194,0.0548,-0.5156,-0.2438,73,2.021,39,9.4657,3.4661,-8.8614,-0.6154,0.9232,0.2974,39,82519.479,1595732,-1.9913,-2.9286,-3.5925,0.6533,0.8977,1.4649,47
2.148,41,10.0285,0.5853,-10.5429,0.327,-0.0593,0.3144,75,2.407,46,-0.2769,-0.6044,-9.5432,-0.1334,-0.3636,0.0071,77,2.613,50,9.7109,-1.4971,-13.0146,-0.0483,-0.7785,-0.249,73,2.073,40,10.2967,2.5911,-10.0598,-0.6402,1.3587,-0.2575,39,82519.531,1595733,-1.9879,-2.7406,-3.6658,1.1507,1.3438,1.7449,47
2.2,42,9.7224,1.4369,-10.8083,0.143,0.4669,0.3202,75,2.459,47,4.7178,-5.7019,-13.1243,-0.5768,-0.938,-0.146,77,2.665,51,10.0472,-1.5042,-13.0007,-0.2069,-1.1812,-0.3061,73,2.125,41,12.3703,2.0266,-13.0821,-0.0496,1.6766,-0.741,39,82519.582,1595734,-1.7969,-2.5543,-1.4673,1.5137,1.6695,1.9492,47
2.252,43,9.1469,1.1707,-10.5453,0.1557,0.2822,0.1144,75,2.511,48,8.3632,-2.5171,-10.8369,0.2508,-0.0055,-0.2161,77,2.717,52,12.0267,-1.4247,-12.926,-0.4925,-1.5355,-0.4135,73,2.177,42,12.2591,0.9302,-17.5291,0.6385,1.5646,-0.9104,39,82519.634,1595735,-2.1998,-1.6036,-3.834,1.7787,1.8907,2.0983,47
2.304,44,8.5158,1.0213,-10.0691,0.317,0.2377,-0.0888,75,2.563,49,7.4743,-2.0959,-8.6845,-0.3227,0.675,-0.3437,77,2.768,53,14.0433,-2.3952,-11.6495,-1.0347,-1.4053,-0.4871,73,2.229,43,13.6781,5.9711,-10.1857,0.978,0.4751,-0.1688,39,82519.686,1595736,-2.19,-0.8359,-5.8667,1.7222,1.7131,2.2071,47
2.355,45,8.1636,0.8349,-9.6637,0.2038,0.3144,-0.2311,75,2.615,50,4.9486,-2.8162,-5.8472,-0.4621,1.1718,-0.2215,77,2.82,54,14.0387,-4.5162,-11.9061,-0.8662,-1.44,-0.8332,73,2.28,44,8.9099,-0.8128,-12.6334,0.141,-0.2509,-0.1921,39,82519.738,1595737,-2.2171,1.9006,-9.2869,1.1248,1.0223,1.7691,47
2.407,46,7.6517,0.4016,-9.2919,0.0868,0.4273,-0.3856,75,2.667,51,2.6623,-3.13,-4.2153,-0.6945,1.5343,0.1039,77,2.872,55,13.6619,-2.4879,-6.5511,-0.3243,-1.3438,-0.621,73,2.332,45,10.5322,-0.4842,-12.0426,0.122,-0.5797,-0.0792,39,82519.789,1595738,-4.572,4.5423,-9.5768,0.373,0.3701,1.3134,47
2.459,47,7.5129,-0.1961,-9.0349,0.1192,0.425,-0.5251,75,2.718,52,0.1461,-2.582,-3.464,-0.9147,1.7989,0.2944,77,2.924,56,11.8348,-3.169,-7.4178,-0.5754,-0.3024,-0.5794,73,2.384,46,10.6421,-0.8352,-12.0792,-0.1386,-0.7432,-0.01,39,82519.841,1595739,-5.935,6.2102,-8.1239,-0.4025,-0.0868,1.1505,47
2.511,48,6.681,-0.5265,-9.1064,0.2297,0.3613,-0.5323,75,2.77,53,-2.5437,-3.421,-1.6269,-1.2124,1.992,0.4856,77,2.976,57,10.4777,-3.9212,-8.7389,-0.2875,0.4576,-0.2817,73,2.436,47,10.1243,0.2025,-11.5295,-0.0984,-0.6875,0.0333,39,82519.893,1595740,-4.3173,4.326,-7.9413,-0.9716,-0.719,0.7143,47
2.563,49,7.7095,-0.617,-9.3326,-0.1183,0.3023,-0.308,75,2.822,54,-1.4164,0.7217,-4.5172,-0.57,1.5449,0.2537,77,3.027,58,10.9093,-4.0229,-9.9283,0.4667,1.0124,0.0916,73,2.487,48,9.6117,0.6611,-11.2899,-0.018,-0.7394,0.1104,39,82519.945,1595741,2.2074,-2.1005,-7.0151,-0.214,-0.2479,1.1584,47
2.614,50,8.0044,-1.1847,-9.4529,-0.3482,0.2291,-0.0044,75,2.874,55,-1.5271,1.7313,-7.5723,-1.037,0.5597,0.2961,77,3.079,59,11.7396,-3.4178,-11.0,1.0148,1.4172,0.331,73,2.539,49,9.3278,0.8298,-11.1462,0.0913,-0.8434,0.148,39,82519.996,1595742,-0.4534,-1.842,-2.9399,0.5177,0.5078,1.5212,47
2.666,51,10.8268,0.2982,-9.9176,-0.0424,0.0224,0.5858,75,2.926,56,-0.0402,3.5924,-13.4664,-0.9715,0.8503,0.3861,77,3.131,60,12.768,-4.8074,-13.2206,1.3973,1.7127,0.6,73,2.591,50,9.2762,1.0236,-11.2705,0.1557,-1.0365,0.1718,39,82520.048,1595743,-2.3316,-1.5822,-0.1721,1.0517,1.0592,1.7859,47
2.718,52,10.69,0.4199,-9.8768,-0.1624,0.053,0.8023,75,2.977,57,-0.5691,1.0382,-14.5011,-1.389,-0.0521,-0.3734,77,3.183,61,10.8957,-1.9775,-16.3267,1.4149,1.9284,0.6273,73,2.643,51,9.0349,0.9346,-11.5508,0.2129,-1.2426,0.1559,39,82520.1,1595744,-3.6964,-1.2737,1.8212,1.4415,1.4618,1.9791,47
2.77,53,10.7914,0.4383,-9.5717,0.3202,-0.3834,0.6459,75,3.029,58,4.5046,-4.5031,-12.4548,-0.3939,-0.7107,-0.9589,77,3.235,62,8.5248,-0.3452,-19.9208,1.3971,0.8453,0.6232,73,2.695,52,9.7263,0.9914,-11.714,0.2118,-1.5348,0.2314,39,82520.152,1595745,-4.687,-0.9665,3.2707,1.7259,1.7555,2.1201,47
2.821,54,10.5724,0.7442,-9.3947,0.7547,-0.2533,0.4225,75,3.081,59,8.2075,-2.1368,-8.6292,-0.2513,-0.0152,-0.4444,77,3.286,63,11.4875,-2.598,-21.4332,1.3583,-0.0565,0.6341,73,2.746,53,11.2864,0.9254,-11.9197,0.3063,-1.7869,0.2674,39,82520.204,1595746,-3.743,-3.204,3.2266,1.9335,1.963,2.2231,47
2.873,55,9.1864,0.2176,-9.1713,0.9655,-0.1125,0.2571,75,3.133,60,10.4301,-6.0407,-7.1176,-0.3688,0.668,-0.2752,77,3.338,64,12.9688,2.4236,-13.0589,1.2363,-0.7146,0.3115,73,2.798,54,13.3546,1.2896,-11.0528,0.8039,-1.971,-0.0151,39,82520.255,1595747,-2.6149,-4.7485,3.0936,2.0851,2.1214,2.2982,47
2.925,56,8.746,-0.3385,-9.3698,1.3378,-0.0908,0.0515,75,3.185,61,9.6527,-7.1262,-5.4559,0.2522,1.1386,-0.0095,77,3.39,65,14.5417,5.1855,-12.8357,1.1769,-0.1921,0.5901,73,2.85,55,12.971,3.0324,-11.6954,1.1875,-2.1053,0.1949,39,82520.307,1595748,-1.6375,-8.5135,3.5455,2.1956,2.2369,2.353,47
2.977,57,8.1781,-0.5923,-9.5865,1.619,0.0131,-0.084,75,3.236,62,8.8982,-8.4898,-4.225,0.4012,1.5101,0.6048,77,3.442,66,12.1752,2.228,-11.7417,1.5355,-0.4557,0.4599,73,2.902,56,10.8706,1.6552,-14.1204,0.5616,-1.8472,-0.0364,39,82520.359,1595749,-2.4044,-8.576,3.7795,2.267,2.3213,2.1365,47
3.029,58,7.9718,-0.6833,-9.896,1.4516,0.2552,-0.1174,75,3.288,63,6.2716,-8.8597,-5.3264,0.8565,1.7812,1.1068,77,3.494,67,11.7043,1.5179,-12.0868,1.4763,-0.4762,0.3625,73,2.954,57,9.3185,0.2369,-12.0122,0.4525,-0.7555,-0.4505,39,82520.411,1595750,-1.9524,-11.517,5.0519,1.8782,2.3828,1.7609,47
3.08,59,7.4378,-1.4248,-10.1613,1.4311,0.5363,-0.0774,75,3.34,64,7.4509,-5.15,-7.7143,0.3393,1.5079,1.4732,77,3.545,68,10.9974,0.6159,-12.2329,1.1192,-0.7091,0.1379,73,3.005,58,8.0297,-0.0804,-12.2996,0.0986,0.1335,-0.9099,39,82520.462,1595751,-1.3184,-8.2694,1.4499,0.6929,2.25,1.0629,47
3.132,60,7.4325,-1.3987,-10.4382,1.3798,0.4339,-0.0233,75,3.392,65,4.6041,-6.2965,-10.2196,0.8558,1.7796,1.7406,77,3.597,69,10.6706,0.2557,-12.3107,0.8195,-0.8567,0.0344,73,3.057,59,7.7892,-2.0202,-12.4617,0.0153,0.7824,-1.183,39,82520.514,1595752,-0.7935,-5.9408,-1.2438,-0.1722,2.1443,0.5436,47
3.184,61,6.3517,-2.6872,-10.8074,1.6346,0.0065,0.2749,75,3.444,66,-0.0231,-0.2627,-15.3985,0.2505,1.8794,1.9357,77,3.649,70,10.0215,0.0495,-12.5492,0.5615,-0.9449,0.0124,73,3.109,60,8.975,-2.5471,-13.3444,0.6747,1.256,-1.4599,39,82520.566,1595753,-0.0309,-5.0206,1.6556,0.5482,0.9019,0.3252,47
3.235,62,9.6934,-0.9997,-11.3692,1.8443,-0.1309,0.5783,75,3.495,67,-1.6973,3.0426,-18.38,0.0353,0.699,1.4195,77,3.701,71,10.1844,0.249,-12.5152,0.2534,-1.217,-0.0558,73,3.161,61,10.1634,-2.1562,-14.0808,1.1671,1.6017,-1.6729,39,82520.617,1595754,0.1095,-3.6359,-0.3847,1.074,-0.0048,0.1556,47
3.287,63,8.4628,-0.7308,-11.7365,1.4341,0.3503,0.8784,75,3.547,68,3.5365,-2.6146,-11.3574,-0.0167,-0.1625,0.3518,77,3.753,72,11.3947,0.5596,-12.736,-0.1767,-1.5616,-0.2224,73,3.213,62,10.9448,-2.8292,-15.4276,1.5265,1.8539,-1.7983,39,82520.669,1595755,0.26,-2.6358,-1.893,1.4577,-0.6666,0.0334,47
3.339,64,9.8279,-0.5271,-11.8102,1.721,-0.3498,0.6709,75,3.599,69,7.501,-3.6048,-5.6413,-0.0625,-0.7913,0.2694,77,3.805,73,13.5821,0.3836,-12.7727,-0.7423,-1.8131,-0.4046,73,3.264,63,10.6217,-2.9363,-17.7631,1.7888,1.8618,-1.4668,39,82520.721,1595756,0.3569,-1.9042,-3.0023,1.7378,-1.1496,-0.0548,47
3.391,65,9.2179,0.6393,-11.4797,1.7603,-0.1937,0.5206,75,3.651,70,9.5546,-5.3196,-3.7317,0.5626,-0.0502,0.2539,77,3.856,74,12.3086,-2.4062,-13.1371,-0.2957,-1.6523,-0.9641,73,3.316,64,12.8694,-3.649,-16.796,0.6284,0.7921,-0.4497,39,82520.773,1595757,1.5597,-4.0315,-0.424,1.9422,-1.5021,-0.0496,47
3.443,66,9.4802,0.2901,-11.11,1.6617,-0.157,0.3517,75,3.703,71,7.6332,-6.3695,-3.0052,0.2732,0.5065,0.5553,77,3.908,75,9.9146,-3.3916,-15.1704,0.4607,-0.9689,-1.3777,73,3.368,65,13.2968,-2.5632,-15.3234,1.0378,-0.0187,-0.1573,39,82520.825,1595758,2.9939,-3.1543,-0.7843,1.5525,-1.255,0.1439,47
3.494,67,8.9506,0.3791,-10.7804,1.5013,-0.0142,0.1735,75,3.755,72,5.8806,-6.0827,-2.1009,-0.0347,0.3562,0.825,77,3.96,76,8.7236,-2.2123,-13.1935,0.0546,-0.0288,-1.672,73,3.42,66,12.0257,-0.2754,-14.2436,0.695,-0.4492,0.0132,39,82520.876,1595759,6.0842,-1.0207,-0.2769,0.8975,-1.1154,-0.2025,47
3.546,68,8.0121,-0.2602,-10.4416,1.4768,0.0135,-0.0226,75,3.806,73,5.3892,-5.4904,-1.7358,-0.0223,0.6511,1.0623,77,4.012,77,7.7878,-2.7239,-15.2887,0.1953,0.6573,-1.8943,73,3.472,67,11.0757,0.8273,-13.7643,0.8662,-0.6011,-0.0964,39,82520.928,1595760,6.0118,1.36,1.3836,0.2158,-0.4973,-0.8239,47
3.598,69,8.0531,-0.2115,-10.4703,1.4504,0.0774,-0.0936,75,3.858,74,2.795,-9.0393,0.3937,-0.6963,1.1543,1.4277,77,4.063,78,8.9154,-4.1574,-15.6621,0.819,1.1581,-1.6406,73,3.523,68,10.0474,2.3476,-13.1021,0.6779,-0.557,0.0695,39,82520.98,1595761,3.3172,-0.3356,3.0958,-0.0689,0.0639,-1.2769,47
3.65,70,7.6949,-1.2469,-10.3017,1.0358,0.2575,0.0125,75,3.91,75,1.0722,-5.5506,-3.7938,-0.5165,0.3713,1.3933,77,4.115,79,10.1911,-5.8864,-15.988,1.2743,1.5236,-1.3299,73,3.575,69,10.006,2.162,-12.5013,0.6277,-0.5669,0.2255,39,82521.032,1595762,2.372,-0.0807,-0.0125,-0.6653,0.7353,-1.4214,47
3.702,71,7.6055,-2.1208,-10.1462,0.9109,0.0332,0.1468,75,3.962,76,4.1759,-2.4616,-8.4221,-0.2044,-0.2731,1.3012,77,4.167,80,10.9376,-6.258,-15.3233,1.6066,1.7903,-1.0814,73,3.627,70,9.2955,2.2686,-12.5475,0.4885,-0.6677,0.2896,39,82521.083,1595763,7.0895,5.2722,-8.0347,-0.8878,0.9363,-1.5632,47
3.753,72,8.3795,-3.1446,-10.128,1.3029,-0.4137,0.3453,75,4.013,77,3.4875,-1.5029,-12.8188,0.3286,-0.7633,1.1963,77,4.219,81,11.5865,-5.759,-14.9085,1.8491,1.985,-0.7601,73,3.678,71,8.6848,2.64,-12.5106,0.573,-0.776,0.3051,39,82521.135,1595764,5.4048,4.1891,-7.0962,0.0259,0.0203,-0.5804,47
3.805,73,10.6245,-2.6922,-10.4449,1.4023,-0.2489,0.5812,75,4.065,78,1.6874,-0.3739,-13.246,0.158,-1.2298,1.1695,77,4.271,82,10.9542,-4.821,-17.4149,2.0261,2.1271,-0.4608,73,3.73,72,8.3179,1.9708,-12.6204,0.6111,-0.9164,0.2921,39,82521.187,1595765,3.8923,3.4048,-6.4969,0.6928,-0.6483,0.1406,47
3.857,74,10.1075,-3.1345,-11.0785,1.4927,-0.3732,0.6928,75,4.117,79,6.1514,-5.1203,-11.2955,0.78,-1.5702,0.1671,77,4.322,83,8.9545,-4.8046,-20.5249,1.6207,1.6041,-0.0294,73,3.782,73,8.8769,1.9293,-12.8904,0.4937,-1.1265,0.3101,39,82521.239,1595766,2.7701,2.8438,-6.0292,1.1795,-1.1362,0.6716,47
3.909,75,10.0558,-2.5037,-11.7078,1.7638,-0.4764,0.6044,75,4.169,80,9.4095,-5.6953,-8.1213,0.6951,-1.0874,0.6044,77,4.374,84,11.8012,-1.0632,-12.3959,0.5077,1.6708,0.5925,73,3.834,74,10.1803,2.7901,-12.7116,0.6502,-1.4587,0.128,39,82521.291,1595767,3.8311,2.4834,-5.8481,1.5347,-1.4924,0.3369,47
3.961,76,9.9041,-1.7918,-11.9997,1.9282,-0.3334,0.4815,75,4.221,81,10.3189,-6.9328,-5.1803,0.6127,-0.1146,0.747,77,4.426,85,9.2197,1.8139,-15.0558,0.3672,0.546,0.7407,73,3.886,75,12.5362,2.2755,-12.0716,1.1492,-1.7314,-0.4473,39,82521.342,1595768,4.3397,1.0152,-6.0248,1.7845,-1.7523,0.3066,47
4.012,77,9.6517,-1.5697,-12.2056,1.865,0.0009,0.3552,75,4.273,82,8.8954,-9.2729,-4.4557,0.6082,0.5955,1.1,77,4.478,86,9.8877,-1.2547,-15.3984,0.2893,-0.0367,0.5853,73,3.937,76,12.8919,3.227,-13.2595,1.5134,-1.9301,-0.4874,39,82521.394,1595769,4.2262,-0.2506,-6.1453,1.5077,-1.942,0.4757,47
4.064,78,8.6405,-1.2808,-12.1403,1.6146,0.2944,0.2296,75,4.324,83,8.9267,-9.6242,-6.05,1.1036,0.9094,1.4494,77,4.53,87,10.0275,-1.1896,-14.5184,0.6007,-0.3156,0.5084,73,3.989,77,10.0392,2.5649,-12.9649,0.9891,-1.4357,-0.7556,39,82521.446,1595770,5.8327,-1.1696,-6.8951,0.7579,-1.1906,0.5449,47
4.116,79,8.3286,-1.6975,-12.0097,1.5234,0.1985,0.0095,75,4.376,84,7.1057,-8.1568,-7.5311,1.2174,1.2799,1.7232,77,4.581,88,10.1671,-1.7423,-13.7149,0.4528,-0.3152,0.443,73,4.041,78,8.9423,2.0217,-11.7108,0.8657,-0.5138,-1.2229,39,82521.498,1595771,9.5633,-0.492,-5.8784,-0.1245,-0.1966,0.7812,47
4.168,80,8.0647,-1.7053,-11.7724,1.6429,0.1927,-0.2564,75,4.428,85,5.4052,-4.519,-6.8829,0.9972,1.379,1.9136,77,4.633,89,10.0369,-0.8776,-13.1688,0.1733,-0.423,0.3622,73,4.093,79,9.2531,-0.1049,-11.7257,0.5823,0.31,-1.5639,39,82521.549,1595772,5.9004,0.205,-2.8954,-0.7687,0.5452,0.6315,47
4.219,81,8.5159,-1.654,-11.7587,1.6991,0.0407,-0.305,75,4.48,86,3.5229,-0.9473,-6.7137,1.3756,1.6856,1.6241,77,4.685,90,9.6162,-1.3452,-12.8774,0.1002,-0.5325,0.3162,73,4.144,80,9.1067,-1.6744,-11.8216,1.0996,0.9112,-1.8128,39,82521.601,1595773,4.3588,0.2103,-2.9631,-1.2389,1.0866,0.465,47
4.271,82,9.5023,-0.816,-11.638,1.2071,0.3686,-0.057,75,4.532,87,0.5157,-0.7686,-9.9362,1.351,1.3984,1.2783,77,4.737,91,9.273,-2.244,-12.9825,0.3724,-0.6138,0.1517,73,4.196,81,10.096,-1.515,-11.5052,1.4772,1.35,-1.9945,39,82521.653,1595774,0.4691,-5.1044,-10.1882,-1.4823,0.795,1.0151,47
4.323,83,7.5261,-0.8855,-10.6726,1.0668,0.2811,0.0361,75,4.584,88,-0.2486,-0.9035,-13.1412,1.0666,0.3748,1.2064,77,4.789,92,9.5711,-0.9352,-12.2364,0.3773,-0.7034,-0.0058,73,4.248,82,11.408,-3.1336,-11.6978,1.7528,1.6703,-2.0836,39,82521.705,1595775,0.6696,-3.632,-9.484,-1.7597,0.6132,1.4166,47
4.375,84,8.9391,-0.0178,-9.6565,1.1928,-0.4287,-0.1486,75,4.635,89,-1.9911,-3.2052,-13.3117,0.9482,-0.3991,0.9612,77,4.84,93,10.469,-0.3021,-12.4186,0.3459,-0.8763,-0.1448,73,4.3,83,12.1237,-2.6952,-11.5816,1.954,1.904,-1.876,39,82521.756,1595776,0.8829,-2.5597,-9.3005,-1.9622,0.4947,1.7096,47
4.427,85,8.4051,-0.4224,-9.5374,1.4929,-0.3577,-0.359,75,4.687,90,3.4667,0.0077,-16.1948,1.3235,-0.964,0.1159,77,4.892,94,11.2461,0.4493,-12.5675,0.006,-1.313,-0.2938,73,4.352,84,11.5682,-3.5444,-12.2003,2.0959,2.0746,-1.552,39,82521.808,1595777,1.0538,-1.7825,-9.1591,-2.11,0.427,1.9234,47
4.478,86,8.8998,-0.3672,-9.6645,1.7552,-0.644,-0.4464,75,4.739,91,7.45,2.8821,-10.4961,1.1466,-0.0538,0.1964,77,4.944,95,12.3938,0.4552,-12.6729,-0.3092,-1.5923,-0.6306,73,4.403,85,9.7099,-2.8877,-14.256,2.2044,2.1388,-1.1067,39,82521.86,1595778,1.4277,-2.0737,-8.7178,-2.2178,0.3735,2.0795,47
4.53,87,9.1488,-0.0415,-10.1362,1.8154,-0.3589,-0.3872,75,4.791,92,7.3596,-0.5281,-6.874,0.4897,0.6398,0.0912,77,4.996,96,14.3113,-1.3362,-8.9034,-0.7126,-1.8355,-1.0637,73,4.455,86,11.8112,3.1846,-7.7969,1.865,1.7158,-0.7372,39,82521.911,1595779,0.6844,-3.6506,-8.5531,-1.6285,0.8793,2.0212,47
4.582,88,9.0209,0.2784,-10.5193,1.547,-0.068,-0.2279,75,4.842,93,4.7374,-3.9957,-6.2459,0.0858,1.1461,0.1067,77,5.047,97,13.2468,-2.5958,-9.9403,0.0076,-1.7599,-1.4502,73,4.507,87,10.2641,3.3001,-9.5226,1.9878,0.5855,-0.2582,39,82521.963,1595780,0.5427,-4.6335,-8.9483,-1.1628,1.2141,2.0704,47
4.634,89,8.2724,0.6183,-10.6002,1.294,0.0693,-0.2074,75,4.894,94,2.6563,-5.0575,-6.3516,-0.2304,1.2701,0.5202,77,5.099,98,10.9964,-1.3479,-9.0908,0.6821,-1.5127,-1.7304,73,4.559,88,10.3331,2.8825,-10.5821,1.9115,-0.0335,-0.1547,39,82522.015,1595781,-1.1172,-6.3223,-8.8857,-0.4148,1.2236,2.1868,47
4.685,90,7.7364,0.661,-10.3723,1.2231,0.0331,-0.263,75,4.946,95,2.4942,-3.8774,-6.7261,-0.2928,1.5174,0.7339,77,5.151,99,10.5394,-3.9836,-10.2933,0.5584,-0.4257,-1.9369,73,4.611,89,10.1054,2.9732,-11.5175,1.4184,-0.2842,0.0461,39,82522.067,1595782,-4.0612,-4.6522,-6.4301,0.3711,1.3697,2.2717,47
4.737,91,7.3429,0.7293,-10.4558,1.0021,0.1767,-0.1908,75,4.998,96,1.5172,-3.8711,-6.7481,-0.5265,1.4892,0.7999,77,5.203,100,9.4635,-6.6932,-12.2013,0.7563,0.3677,-1.9872,73,4.662,90,9.7917,3.4839,-11.4079,1.0805,-0.2335,0.1228,39,82522.118,1595783,-4.2761,-3.3806,-6.3337,0.9448,1.4403,2.3337,47
4.789,92,7.7428,-0.1683,-10.8296,0.6185,0.1155,-0.082,75,5.05,97,6.0272,-3.8036,-2.2772,-1.0565,1.4557,1.2371,77,5.255,101,10.0304,-8.4662,-13.4853,1.2285,0.9467,-1.3338,73,4.714,91,9.4043,3.5033,-11.3587,0.7259,-0.1988,0.1814,39,82522.17,1595784,-4.3875,-2.4381,-6.2869,1.3634,1.4232,2.3789,47
4.841,93,8.389,-1.6946,-11.2571,0.9046,-0.1708,0.0117,75,5.102,98,2.5489,0.8174,-9.6018,-0.4157,1.183,1.197,77,5.307,102,10.9202,-8.4242,-14.0386,1.5731,1.3693,-0.665,73,4.766,92,9.0087,3.3126,-11.5796,0.4947,-0.2476,0.257,39,82522.222,1595785,2.1562,-7.0373,-12.614,1.6405,1.7273,1.2394,47
4.892,94,11.1803,-0.6119,-11.3245,1.3081,-0.6206,0.495,75,5.153,99,0.6959,0.8798,-14.9477,-0.4543,0.7923,1.1684,77,5.358,103,11.6842,-8.6063,-15.2622,1.6162,1.6777,0.0245,73,4.818,93,8.8924,3.1436,-11.6673,0.417,-0.3485,0.2852,39,82522.274,1595786,1.9141,-4.6588,-9.8254,1.8712,1.9494,0.3426,47
4.944,95,11.0775,0.6816,-11.8025,0.8624,-0.2829,0.9956,75,5.205,100,2.3137,-4.0919,-9.3532,-0.4102,-0.0944,0.1664,77,5.41,104,11.4268,-7.0591,-18.2074,1.3794,1.9028,0.5776,73,4.869,94,8.6715,3.2203,-11.5975,0.5002,-0.5029,0.2781,39,82522.326,1595787,1.7097,-2.9331,-7.6586,2.0396,2.1114,-0.3124,47
4.996,96,11.0819,0.5803,-12.0877,1.112,-0.4653,0.9342,75,5.257,101,6.6086,0.4942,-11.6867,0.3724,-0.7416,-0.5649,77,5.462,105,10.6345,-3.1336,-20.2726,0.6648,1.2991,0.8459,73,4.921,95,8.8722,2.5456,-11.6437,0.5757,-0.7449,0.3302,39,82522.377,1595788,1.5344,-1.6882,-6.0396,2.1624,2.2297,-0.7872,47
5.048,97,9.5694,1.6221,-11.6658,1.3956,-0.3569,0.7335,75,5.309,102,9.1655,-2.1532,-7.7707,0.8023,0.1378,-0.5409,77,5.514,106,13.0273,-6.9433,-22.795,1.1618,0.2747,1.0324,73,4.973,96,10.2585,2.1306,-11.8611,0.5656,-1.2104,0.349,39,82522.429,1595789,1.3892,-0.7663,-4.8705,2.2521,2.316,-1.1316,47
5.1,98,8.6996,1.5247,-11.1844,1.311,-0.4489,0.5715,75,5.361,103,8.376,-3.1555,-5.3414,0.6805,0.7295,0.0238,77,5.566,107,14.7736,-6.3298,-20.0696,0.2813,-0.4729,1.146,73,5.025,97,12.6044,3.2905,-10.4281,1.0786,-1.5502,0.1687,39,82522.481,1595790,2.8332,-1.866,-5.583,2.3176,2.379,-0.8953,47
5.152,99,7.4961,1.2763,-11.1676,1.165,-0.1909,0.3715,75,5.412,104,4.7804,-1.924,-2.8518,0.2779,1.2115,0.3194,77,5.617,108,12.2083,-4.136,-17.8898,0.15,-0.7883,0.7368,73,5.077,98,13.2375,4.5127,-13.2947,1.4619,-1.7982,0.2209,39,82522.533,1595791,5.1888,-3.6204,-9.0988,2.0023,2.4062,-0.4544,47
5.203,100,7.3758,0.6473,-11.4857,0.9432,-0.0352,0.1807,75,5.464,105,2.4023,-2.7778,-1.757,-0.3185,1.5633,0.8123,77,5.669,109,10.9302,-1.2389,-16.7079,-0.4716,-1.1327,0.6343,73,5.128,99,11.8443,4.0285,-13.7592,0.7045,-1.7466,-0.0208,39,82522.584,1595792,9.1454,-5.1932,-11.207,1.024,2.149,0.0786,47
5.255,101,7.6199,0.1036,-11.9297,0.8124,0.1548,0.1347,75,5.516,106,0.7632,-1.064,-1.9123,-0.6504,1.82,1.1515,77,5.721,110,10.0248,-1.357,-14.9767,0.2767,-1.2635,0.3007,73,5.18,100,9.4546,2.6573,-12.1107,0.5274,-0.5899,-0.3542,39,82522.636,1595793,11.0647,-4.7561,-15.9664,0.8223,1.2117,-0.1209,47
5.307,102,8.3456,-0.3525,-11.8946,0.3458,0.4066,0.2644,75,5.568,107,3.115,-3.3501,-2.278,0.1821,1.9376,0.9401,77,5.773,111,10.0263,-1.4063,-14.1461,0.1597,-1.0627,0.1265,73,5.232,101,8.4126,1.5926,-11.0246,0.1831,0.2544,-0.5111,39,82522.688,1595794,7.9813,-3.5354,-13.8013,0.2719,0.2212,-0.5535,47
5.359,103,8.4371,-0.273,-12.0371,-0.1515,0.8337,0.5051,75,5.62,108,2.0065,-4.8353,-6.3683,0.7262,1.3597,0.6659,77,5.825,112,9.5191,-0.8524,-13.7595,0.1998,-1.1896,0.0494,73,5.284,102,8.7109,1.0432,-10.2869,-0.0491,0.8707,-0.6899,39,82522.74,1595795,0.9367,-2.3176,-7.5094,0.141,0.4024,-0.6634,47
5.41,104,10.1417,-0.5287,-11.1403,-0.325,-0.0608,0.7608,75,5.672,109,0.2183,-2.9711,-12.0392,0.8932,0.959,0.7677,77,5.876,113,8.9676,-1.4419,-13.9576,0.1355,-1.2999,-0.0044,73,5.335,103,9.5159,0.6019,-10.3067,-0.1606,1.3204,-0.7574,39,82522.791,1595796,0.6643,-0.7752,-4.7814,-0.575,0.9824,-1.013,47
5.462,105,12.0879,0.8708,-11.032,-0.2992,0.2214,0.894,75,5.723,110,0.0165,-3.3181,-14.3708,0.1332,0.0273,0.3562,77,5.928,114,9.3612,-1.1978,-13.8001,-0.0793,-1.5046,-0.0896,73,5.387,104,11.0522,0.613,-11.9106,-0.1363,1.6487,-0.7047,39,82522.843,1595797,0.465,0.3231,-2.7157,-1.0975,1.4056,-1.406,47
5.514,106,11.1461,0.88,-10.4917,-0.6738,0.223,0.8034,75,5.775,111,4.9319,-1.3573,-9.3392,-0.5524,-0.6528,-0.3712,77,5.98,115,10.962,-1.0281,-13.2363,-0.4156,-1.7715,-0.2509,73,5.439,105,12.2174,-0.1763,-16.0567,0.0146,1.8882,-0.7293,39,82522.895,1595798,0.3189,1.1217,-1.212,-1.4789,1.7146,-1.7023,47
5.566,107,10.1135,0.3049,-10.036,-0.4657,0.0494,0.2908,75,5.827,112,8.5194,-3.7238,-7.3828,0.2666,-0.5709,-0.6223,77,6.031,116,13.2663,-0.3676,-14.5828,-0.9785,-1.9663,-0.3263,73,5.491,106,9.4756,-0.8408,-19.7001,0.1536,1.0962,-0.5363,39,82522.946,1595799,0.2252,1.6824,-0.1097,-1.7572,1.94,-1.9184,47
5.618,108,8.9894,-0.385,-9.4926,-0.1785,-0.0289,-0.0859,75,5.879,113,11.1377,-2.7819,-5.0899,0.3205,0.2624,-0.5214,77,6.083,117,12.979,-3.4722,-13.5509,-0.7727,-1.9845,-0.7605,73,5.543,107,4.0298,-3.8836,-22.3592,-0.3298,0.4607,-0.2555,39,82522.998,1595800,1.11,2.1055,0.9855,-1.9604,2.1046,-2.0762,47
5.669,109,7.5718,-0.2668,-9.2334,-0.1004,0.0913,-0.2997,75,5.931,114,9.4797,-4.0181,-4.9332,0.1584,0.8706,-0.1709,77,6.135,118,10.6812,-4.2387,-15.3969,-1.1331,-0.9354,-0.3101,73,5.594,108,3.8984,-4.8754,-21.4745,-0.8082,0.0186,-0.2303,39,82523.05,1595801,2.5497,2.197,3.2135,-2.1086,2.2247,-2.1914,47
5.721,110,7.1979,-0.5796,-9.5698,-0.0737,-0.0585,-0.4912,75,5.982,115,4.4975,-4.2482,-4.4361,0.0768,1.3145,0.2429,77,6.187,119,8.9329,-2.8923,-12.9351,-0.8915,-0.0794,0.0064,73,5.646,109,5.6957,-3.5267,-18.6338,-0.8357,-0.1765,-0.055,39,82523.102,1595802,2.1148,0.1883,3.3964,-1.7148,2.0872,-2.1549,47
5.773,111,7.2532,-1.5554,-10.1768,0.2148,-0.0916,-0.6026,75,6.034,116,0.0153,-4.5507,-4.1179,-0.1833,1.6384,0.6457,77,6.239,120,7.0376,-1.2526,-13.5412,-0.0178,0.6204,0.4404,73,5.698,110,6.7821,-1.9298,-16.5094,-0.5557,-0.1817,0.0942,39,82523.154,1595803,-0.6978,-2.5597,3.9931,-0.8332,1.4463,-1.5047,47
5.825,112,7.3806,-1.3408,-10.44,0.1871,0.0411,-0.4069,75,6.086,117,0.7421,-0.3215,-1.1957,-0.0791,1.8749,0.5015,77,6.29,121,6.1959,-0.3238,-14.4522,-0.4111,1.1312,0.7778,73,5.75,111,7.4542,-2.0149,-14.805,-0.5391,-0.0888,0.1674,39,82523.205,1595804,-2.1934,2.8325,2.2851,0.0657,0.9176,-0.4225,47
5.877,113,7.0007,-1.8717,-10.6574,-0.2471,0.232,-0.0988,75,6.138,118,-1.6955,-3.4997,-4.6762,-0.4834,1.8149,0.4731,77,6.342,122,9.0399,-0.3877,-14.0251,0.0581,1.5039,1.0732,73,5.802,112,7.7377,-1.0882,-13.3101,-0.3593,-0.0394,0.0462,39,82523.257,1595805,-2.029,2.3666,-0.4781,0.7219,0.5085,0.3673,47
5.928,114,6.5672,-1.9544,-11.0031,-0.3329,0.2297,0.1405,75,6.19,119,-1.2631,-2.1716,-9.8939,-0.5768,1.5139,0.7964,77,6.394,123,10.9643,-0.9581,-13.9353,0.3029,1.7275,1.2505,73,5.854,113,7.7019,0.0844,-12.3727,-0.2433,-0.0363,0.0424,39,82523.309,1595806,-0.917,2.132,0.7748,-0.151,0.8627,-0.4053,47
5.98,115,7.96,-2.495,-11.2235,-0.4494,0.0552,0.2855,75,6.241,120,-0.1961,1.6748,-13.536,-0.2944,0.4322,0.977,77,6.446,124,11.0292,-1.8437,-14.0027,0.5873,1.704,1.2745,73,5.905,114,8.0016,0.44,-11.6214,-0.1188,-0.1928,0.1179,39,82523.361,1595807,-0.8158,1.7905,-1.8805,-0.7881,1.1046,-0.9718,47
6.032,116,9.2223,-2.6804,-11.4142,-0.1847,-0.1008,0.4028,75,6.293,121,0.1866,1.6904,-14.8365,-0.2275,-0.3572,0.6874,77,6.497,125,9.9852,-0.5647,-13.9188,0.1542,1.3999,1.2861,73,5.957,115,8.152,0.8439,-11.2183,-0.0649,-0.3194,0.1296,39,82523.412,1595808,-0.7792,1.5286,-3.7278,-1.2531,1.2688,-1.3854,47
6.084,117,10.1751,-1.2808,-11.701,-0.3179,0.0409,0.6818,75,6.345,122,2.7774,-0.3739,-8.1805,-0.5798,-0.9334,-0.1847,77,6.549,126,8.4154,-0.6626,-15.0211,0.1424,1.1497,0.9847,73,6.009,116,8.2411,1.1645,-10.6969,-0.0046,-0.5444,0.233,39,82523.464,1595809,-1.1015,1.3341,-4.9896,-1.5924,1.3641,-1.6872,47
6.135,118,9.7774,-1.2905,-11.793,-0.7107,0.1158,0.6989,75,6.397,123,5.5896,-5.5337,-13.9103,0.2485,-1.3539,-0.8212,77,6.602,127,7.6325,2.1354,-18.9679,0.7737,0.1657,0.2919,73,6.061,117,8.4411,1.0365,-10.8364,0.1592,-0.9,0.2633,39,82523.516,1595810,-1.2415,-1.0514,-7.613,-1.3897,1.6842,-1.9074,47
6.187,119,9.0087,-1.4659,-11.5502,-0.6596,-0.1025,0.4603,75,6.449,124,6.1705,-4.6397,-8.8208,-0.4986,-0.3091,0.066,77,6.653,128,3.3667,-3.6786,-13.6068,0.4046,0.7288,0.5529,73,6.112,118,10.0329,1.4806,-10.8698,0.4047,-1.3236,0.2454,39,82523.568,1595811,-0.6182,-0.909,-7.8761,-1.1095,1.9179,-2.0682,47
6.239,120,8.5691,-1.3246,-11.2993,-0.4788,-0.1043,0.1704,75,6.501,125,6.1713,-2.2329,-6.1952,0.3078,0.218,-0.6035,77,6.705,129,5.7282,-0.9316,-12.4215,-0.024,0.0981,0.5814,73,6.164,119,12.4398,1.3624,-9.3021,0.6196,-1.6328,0.2759,39,82523.619,1595812,0.3634,-3.4832,-7.6552,-1.1187,1.8107,-2.1494,47
6.291,121,8.2378,-1.381,-11.287,-0.6804,0.0729,-0.0075,75,6.552,126,5.6065,-1.9587,-3.8237,-0.4554,0.7407,-0.3761,77,6.757,130,6.3872,0.4404,-12.984,0.2595,-0.6018,0.1958,73,6.216,120,11.9579,2.8638,-11.7351,0.8714,-1.8585,0.4764,39,82523.671,1595813,-0.2251,-5.4341,-6.8138,-0.6595,1.8373,-1.5462,47
6.342,122,7.4925,-1.4668,-11.5808,-0.9273,0.4207,-0.0547,75,6.604,127,5.6834,0.6264,-4.5122,-0.2746,0.6872,-0.8441,77,6.809,131,6.4717,-2.0839,-15.9144,0.1496,-0.8838,0.0005,73,6.268,121,11.4472,0.9489,-12.3584,0.1844,-1.9062,0.4643,39,82523.723,1595814,-0.4364,-6.8838,-5.4318,0.178,2.0143,-0.7287,47
6.394,123,7.911,-1.572,-11.9352,-1.2944,0.7273,0.0517,75,6.656,128,7.8833,4.1317,-11.233,0.4713,1.1806,-1.3024,77,6.861,132,5.1311,-1.2067,-11.8612,0.5935,-0.9446,0.0068,73,6.32,122,10.5475,0.6322,-9.4592,-0.1644,-0.761,0.6118,39,82523.775,1595815,-4.6709,-7.346,-3.92,0.8038,1.8685,0.1439,47
6.446,124,8.3252,-1.3559,-11.8203,-1.6174,1.177,0.2331,75,6.708,129,6.7779,4.7033,-13.7113,-0.193,0.6374,-1.6347,77,6.912,133,6.4833,-0.6932,-12.1095,0.5384,-1.1324,-0.2301,73,6.371,123,10.2385,0.8781,-8.827,-0.3089,0.1295,0.9283,39,82523.827,1595816,-4.2768,-5.2974,-4.6783,1.2605,1.8074,0.7807,47
6.498,125,8.1182,-1.4811,-11.543,-1.8578,1.1452,0.3227,75,6.76,130,3.1992,4.2794,-15.5962,-0.4622,1.1443,-1.8794,77,6.964,134,7.1784,-0.5685,-12.6308,0.2444,-1.2716,-0.211,73,6.423,124,10.2861,1.7865,-9.1878,-0.6579,0.7795,1.1237,39,82523.878,1595817,-3.826,-3.7451,-5.4367,1.5939,1.7152,1.2455,47
6.55,126,9.7436,-2.5421,-10.8146,-1.9817,0.4308,0.1119,75,6.811,131,0.069,1.69,-16.9565,-0.3238,0.5922,-2.0581,77,7.016,135,7.8912,-0.7299,-13.2072,-0.1004,-1.3372,-0.1266,73,6.475,125,12.6245,2.0931,-10.0131,-1.1572,1.2539,1.2356,39,82523.93,1595818,-3.3447,-3.179,-9.204,0.5244,0.5888,0.2329,47
6.602,127,10.6259,-2.603,-10.0903,-1.4391,0.0139,-0.2581,75,6.863,132,-1.4186,1.9687,-17.7426,-0.2385,-0.2391,-2.1863,77,7.067,136,9.1577,-0.6871,-13.7393,-0.6374,-1.3108,0.017,73,6.526,126,11.7607,5.9962,-15.2892,-1.5217,1.6001,1.5485,39,82523.982,1595819,-2.5729,-2.7335,-8.773,-0.2505,-0.2334,-0.506,47
6.654,128,10.436,-2.4204,-9.7503,-1.6592,-0.1166,-0.3399,75,6.915,133,2.7329,1.5608,-11.0622,-0.833,-0.8472,-2.28,77,7.119,137,11.9494,-0.7925,-16.9246,-1.1404,-1.079,0.5512,73,6.578,127,8.6099,3.9582,-19.1399,-1.7877,0.8661,1.5507,39,82524.034,1595820,-2.004,-2.3902,-8.4824,-0.7948,-0.8334,-1.0454,47
6.705,129,9.2645,-2.1122,-9.7212,-1.7181,-0.1448,-0.5354,75,6.967,134,6.9145,6.1514,-12.1481,-1.2374,-1.291,-2.3504,77,7.171,138,12.7928,-2.852,-16.6806,-1.5075,-1.4609,0.4996,73,6.63,128,11.4012,6.9048,-17.6242,-1.0268,0.3722,0.4619,39,82524.085,1595821,-5.1241,-1.8978,-5.9082,-1.2579,-1.2714,-1.439,47
6.757,130,8.1102,-1.967,-9.7041,-1.687,-0.4508,-0.7272,75,7.019,135,8.7792,2.9073,-6.2184,-1.5831,-0.3853,-1.5373,77,7.223,139,12.405,-0.8264,-17.5084,-1.7755,-1.7396,0.918,73,6.682,129,10.756,7.1201,-14.9997,-1.3309,-0.3525,0.2409,39,82524.137,1595822,-6.7942,-1.0606,-5.1441,-1.596,-1.591,-1.7263,47
6.809,131,7.9602,-2.0254,-10.2756,-1.8944,-0.2897,-0.7231,75,7.07,136,8.1039,4.443,-4.4906,-1.4521,0.3979,-1.4286,77,7.275,140,11.2843,-4.0882,-14.7199,-1.1346,-1.847,1.3475,73,6.734,130,10.8094,4.5697,-14.5676,-0.9077,-0.4904,-0.1851,39,82524.189,1595823,-2.629,-0.7646,-3.0623,-1.6757,-0.7375,-1.3694,47
6.86,132,8.3216,-2.4094,-10.6517,-2.06,0.0037,-0.5858,75,7.122,137,7.5541,1.8476,-2.8844,-1.725,0.9646,-1.2405,77,7.326,141,12.0947,0.4293,-12.8224,-0.1515,-0.8163,1.6612,73,6.785,131,10.3824,3.5255,-13.9334,-0.9323,-0.397,-0.2436,39,82524.24,1595824,2.175,-1.1465,-2.8419,-1.1764,-0.446,-0.3866,47
6.912,133,7.2177,-2.9087,-10.693,-2.1808,0.1828,-0.5002,75,7.174,138,7.5973,-0.0237,-2.4386,-1.6444,1.3831,-0.846,77,7.378,142,13.1188,5.6653,-11.2822,-0.7711,0.0826,1.8902,73,6.837,132,10.0192,2.0974,-13.3017,-0.7082,-0.1728,-0.425,39,82524.292,1595825,1.8443,-3.5225,-2.9986,-0.6167,-0.7617,0.3936,47
6.964,134,6.9046,-4.0309,-10.1889,-2.1499,-0.119,-0.5328,75,7.226,139,8.4776,-5.2781,0.8681,-1.6805,1.6885,0.048,77,7.43,143,14.4789,5.9463,-10.0312,-1.238,0.7386,2.0573,73,6.889,133,9.6515,0.8741,-12.7195,-0.5256,-0.0309,-0.6333,39,82524.344,1595826,-0.6191,-7.5826,-0.7987,-0.568,-0.5641,0.9629,47
7.016,135,6.8804,-4.8068,-9.9926,-1.4937,-0.2981,-0.6103,75,7.278,140,5.8989,-1.7548,-2.4983,-0.5548,0.6535,-0.4325,77,7.482,144,15.3492,5.8367,-8.3524,-1.5788,1.2175,2.0754,73,6.941,134,9.2609,1.5511,-11.9719,-0.3168,-0.0963,-0.5559,39,82524.396,1595827,-0.1475,-5.663,-2.9384,-0.9433,0.2277,1.3785,47
7.068,136,7.85,-4.5684,-10.565,-0.6644,-0.7682,-0.1195,75,7.329,141,3.7607,4.0461,-6.1879,-0.5114,1.1152,0.1395,77,7.534,145,14.4032,4.116,-7.6974,-1.8,1.5669,1.903,73,6.992,135,9.2734,1.3623,-11.4699,-0.2639,-0.328,-0.4027,39,82524.447,1595828,0.2525,-4.1178,-4.6974,-1.2056,0.821,1.6818,47
7.119,137,10.7869,-1.276,-11.0352,-0.8394,-0.2873,0.5895,75,7.381,142,1.5042,5.9463,-12.0066,0.0806,0.7954,-0.2191,77,7.585,146,13.7321,3.8443,-9.1496,-1.57,1.8219,1.7893,73,7.044,136,9.1849,1.1088,-11.2902,-0.2221,-0.639,-0.1487,39,82524.499,1595829,1.037,-2.8529,-3.5382,-0.206,-0.0639,0.5937,47
7.171,138,11.4361,0.708,-12.3051,-1.29,0.067,1.1069,75,7.433,143,-0.2664,6.3647,-15.1384,-0.4528,-0.0922,-0.818,77,7.637,147,11.5416,4.8209,-13.2576,-1.821,2.0081,1.5048,73,7.096,137,8.9832,1.0314,-11.8006,-0.2146,-0.9659,0.097,39,82524.551,1595830,1.2142,-2.2553,-4.2985,0.5235,-0.7097,-0.2427,47
7.223,139,11.3753,2.1189,-12.534,-1.6189,0.1852,1.2195,75,7.485,144,4.7254,-0.6155,-10.173,-1.0078,-0.7399,-1.2834,77,7.689,148,10.5908,7.5223,-17.6809,-2.0043,1.0761,0.7946,73,7.148,138,9.6456,0.4995,-12.0686,0.0049,-1.1421,0.2833,39,82524.603,1595831,1.3402,-1.8319,-4.8427,1.0559,-1.1811,-0.8532,47
7.275,140,11.1695,2.3923,-12.4424,-1.8505,0.2183,0.8662,75,7.537,145,8.3687,4.689,-6.022,-1.3011,-0.1731,-0.6077,77,7.741,149,7.0661,5.4654,-19.7622,-1.2528,0.6932,0.1128,73,7.2,139,11.42,-0.5064,-11.0427,0.2324,-1.49,0.5601,39,82524.654,1595832,1.4304,-3.6896,-2.7322,1.4446,-1.5251,-0.9927,47
7.326,141,10.5697,1.6525,-12.3037,-1.9637,0.3112,0.3775,75,7.588,146,11.0277,6.5616,-5.196,-0.2836,0.5528,-0.8763,77,7.793,150,9.428,3.5853,-18.6157,-1.1121,1.0365,0.073,73,7.252,140,13.4521,-1.0236,-9.8564,0.2218,-1.7542,0.9305,39,82524.706,1595833,0.5863,-4.0656,-2.4355,1.679,-1.7762,-1.0327,47
7.378,142,9.4313,0.9796,-12.1322,-1.9655,0.5674,-0.0516,75,7.64,147,10.0546,5.149,-4.6847,-0.887,1.0825,-0.885,77,7.844,151,9.9312,1.5451,-17.238,-1.0907,0.5269,0.3171,73,7.303,141,11.8772,1.1993,-10.087,-0.5152,-1.8442,1.3595,39,82524.758,1595834,-0.4004,0.3917,-0.4747,1.0923,-1.6828,-1.1007,47
7.43,143,8.1829,-0.0933,-12.0981,-2.0544,0.6227,-0.3317,75,7.692,148,6.9671,3.8377,-3.6335,-1.1879,1.0845,-1.1849,77,7.896,152,9.9026,-4.1094,-18.5605,-0.9386,0.5973,0.1598,73,7.355,142,11.4244,0.6681,-8.8258,-1.0531,-1.7492,1.6726,39,82524.81,1595835,0.6952,4.2496,2.2169,0.9008,-0.8918,-1.4727,47
7.482,144,7.4591,-1.2758,-11.9411,-1.8262,0.5446,-0.4385,75,7.744,149,2.0649,3.7362,-3.5548,-1.2314,1.4706,-1.4163,77,7.948,153,9.6606,-5.3562,-16.3879,-0.747,0.2617,-0.0659,73,7.407,143,9.9432,3.094,-8.7196,-0.906,-0.689,1.9011,39,82524.861,1595836,0.6878,2.9287,4.1814,0.8755,0.0378,-1.2608,47
7.534,145,7.4586,-1.1899,-12.0028,-1.8484,0.6498,-0.2626,75,7.796,150,0.125,3.6943,-3.625,-1.5745,1.2625,-1.7201,77,8.0,154,8.975,-5.1747,-16.2645,-0.6122,0.1997,-0.1978,73,7.459,144,9.7357,5.0072,-9.2887,-0.9868,0.1821,2.0678,39,82524.913,1595837,-1.817,-3.095,4.9881,0.0441,0.7162,-0.2958,47
7.585,146,8.0034,-1.3763,-12.5218,-2.0264,0.6775,0.0836,75,7.848,151,0.5346,8.0231,0.0021,-0.9612,1.6005,-1.9401,77,8.052,155,8.7407,-4.2062,-15.0895,-0.4182,0.0815,-0.376,73,7.511,145,9.0529,7.2377,-10.3145,-1.3973,0.8179,2.1196,39,82524.965,1595838,-0.9373,-2.6272,2.1338,-0.6457,1.2114,0.4593,47
7.637,147,7.2265,-1.4987,-12.3504,-1.8917,0.388,0.2417,75,7.899,152,0.1324,10.0032,-7.9383,-0.4751,0.9701,-2.0915,77,8.103,156,8.755,-3.4624,-14.0376,-0.2815,-0.1597,-0.4419,73,7.562,146,9.5759,8.3368,-10.8671,-1.6969,1.2819,1.7232,39,82525.017,1595839,0.3421,-2.6259,-0.6486,0.2026,1.5728,1.0109,47
7.689,148,10.1758,-1.8484,-11.3983,-1.5766,-0.3861,0.4343,75,7.951,153,-0.9855,9.8567,-12.7674,-0.0159,0.4718,-1.9456,77,8.155,157,9.0868,-3.163,-13.3904,-0.2985,-0.6044,-0.4176,73,7.614,147,10.5186,7.91,-11.4065,-1.9155,1.6205,1.3608,39,82525.069,1595840,-0.2838,-2.2157,0.029,0.8218,1.8366,1.4135,47
7.741,149,9.6139,-0.1046,-10.9241,-1.828,0.1686,0.6298,75,8.003,154,3.5017,9.3255,-9.351,-0.6749,-0.3283,-2.1064,77,8.207,158,9.4215,-2.6121,-13.4098,-0.5693,-1.0852,-0.2787,73,7.666,148,10.9328,8.6309,-13.6973,-2.0751,1.8677,0.9529,39,82525.12,1595841,-0.7724,-1.8707,0.5913,1.2736,2.0291,1.7073,47
7.793,150,8.7272,-1.9253,-10.1544,-1.6774,-0.3608,0.3264,75,8.055,155,7.4756,7.3903,-14.7646,-1.1726,-0.9123,-2.1582,77,8.259,159,10.5687,-2.4293,-13.8471,-1.0907,-1.4436,-0.0969,73,7.718,149,9.8744,6.9013,-17.3404,-2.0138,1.9163,0.5413,39,82525.172,1595842,-1.1383,-1.5917,1.007,1.6034,2.1696,1.9218,47
7.844,151,8.5435,-0.0222,-9.724,-0.9365,-0.6676,0.0717,75,8.107,156,10.3591,4.766,-10.6587,-0.2257,0.0132,-1.6931,77,8.311,160,11.7636,-1.6628,-15.7944,-1.4713,-1.3404,0.127,73,7.769,150,12.324,9.7679,-10.2007,-1.8644,0.7325,-0.0275,39,82525.224,1595843,-1.5615,-1.5945,1.7968,1.8441,2.2721,2.0783,47
7.896,152,8.5066,-0.3729,-9.7761,-1.3578,-0.5046,0.0654,75,8.158,157,9.1399,4.1492,-9.514,-0.5969,0.6888,-1.6819,77,8.362,161,9.6457,-2.8483,-15.5791,-1.6064,-1.486,0.4174,73,7.821,151,11.7907,5.7684,-12.3827,-1.8818,-0.1321,-0.6707,39,82525.276,1595844,-0.3369,-3.3607,-4.1219,2.0198,2.347,1.7341,47
7.948,153,8.3127,-1.1672,-10.2117,-1.5542,-0.3238,0.0036,75,8.21,158,7.4825,1.1593,-7.7292,-1.1156,1.1818,-1.3431,77,8.414,162,8.4567,-1.9627,-12.3696,-1.847,-0.927,0.9651,73,7.873,152,11.6748,4.1649,-11.9857,-1.2559,-0.4236,-0.767,39,82525.327,1595845,1.6737,-4.8937,-9.2284,2.148,2.3551,1.0744,47
8.0,154,8.1269,-1.8589,-10.0944,-1.6281,-0.199,-0.02,75,8.262,159,5.4412,-0.6043,-5.4014,-1.4135,1.5416,-0.9865,77,8.466,163,8.6013,-1.6753,-11.568,-2.0233,-0.3328,1.3816,73,7.925,153,11.1852,1.9459,-11.8932,-0.8597,-0.4074,-0.7196,39,82525.379,1595846,1.9151,-6.5278,-13.6291,1.9117,1.806,0.397,47
8.052,155,8.3783,-2.547,-9.6301,-1.5061,-0.3064,0.1668,75,8.314,160,-0.9955,1.653,-5.4595,-1.3777,1.8042,-1.2607,77,8.518,164,9.0389,-0.1139,-10.9514,-1.6966,0.4311,1.6861,73,7.977,154,10.5275,1.4363,-11.2323,-0.6019,-0.3345,-0.6308,39,82525.431,1595847,2.0835,-7.1316,-17.9727,1.1352,0.9869,0.3618,47
8.103,156,8.0693,-2.2379,-9.1825,-1.6905,-0.0451,0.546,75,8.366,161,3.7796,2.9335,-11.9244,-1.1579,1.6806,-1.3075,77,8.57,165,10.2722,1.4787,-10.246,-1.716,0.993,1.8886,73,8.028,155,9.9134,1.8057,-10.6998,-0.2829,-0.3133,-0.5132,39,82525.483,1595848,1.6451,-5.173,-14.8379,0.1506,0.0572,0.4314,47
8.155,157,9.5125,-2.7672,-9.1685,-1.5949,0.004,0.6718,75,8.417,162,-0.345,6.6446,-16.6261,-0.6825,1.6958,-1.3208,77,8.621,166,10.871,1.7338,-9.8123,-1.8376,1.4031,1.8856,73,8.08,156,9.7114,1.4523,-10.5067,-0.2336,-0.397,-0.4187,39,82525.534,1595849,1.2558,-3.5952,-12.0473,-0.5679,-0.6213,0.4765,47
8.207,158,8.9271,-0.7315,-10.4572,-1.7119,0.6127,1.005,75,8.469,163,-0.5123,3.712,-20.0743,-0.8237,0.565,-1.4707,77,8.673,167,11.1909,1.0601,-10.381,-1.6132,1.7024,1.6501,73,8.132,157,9.4128,1.8951,-10.3571,-0.098,-0.5558,-0.2672,39,82525.586,1595850,1.2435,-2.785,-7.0948,0.2393,-0.9931,0.1151,47
8.259,159,10.7974,-1.2274,-11.2225,-1.8167,0.117,0.7682,75,8.521,164,4.5379,-2.5516,-12.0033,-1.2812,-0.2603,-1.7598,77,8.725,168,11.1138,0.0958,-12.8445,-1.3999,1.9208,1.4857,73,8.184,158,9.1168,2.2735,-10.531,-0.0883,-0.8174,-0.0274,39,82525.638,1595851,1.6168,-1.9782,-6.0021,0.8485,-1.3849,-0.4864,47
8.311,160,10.8934,0.0638,-11.5603,-1.3113,0.177,0.4164,75,8.573,165,8.2319,0.1154,-6.1303,-0.2634,-0.3033,-1.2673,77,8.777,169,10.0223,1.0786,-16.6937,-1.4276,1.3411,1.331,73,8.235,159,9.236,1.9513,-11.0798,-0.1495,-0.8634,0.225,39,82525.69,1595852,0.197,-5.593,-6.535,1.2932,-1.6714,-1.006,47
8.362,161,10.869,-0.0758,-11.3966,-1.3695,0.1824,0.2012,75,8.625,166,10.9279,4.2552,-5.0222,-0.7398,0.4577,-1.4105,77,8.829,170,6.3679,3.8604,-20.1887,-0.9314,0.6311,0.5808,73,8.287,160,9.3176,1.0853,-10.9643,-0.0852,-1.1884,0.4411,39,82525.741,1595853,-0.3547,-8.7519,-7.275,1.6177,-1.641,-1.4076,47
8.414,162,9.2838,-0.0056,-10.7558,-1.2983,0.2479,-0.0208,75,8.676,167,10.6564,1.8709,-6.4717,-0.0952,1.0132,-1.7158,77,8.88,171,7.8794,4.7423,-18.3901,-0.5189,-0.2128,0.3904,73,8.339,161,10.0922,0.101,-11.14,-0.141,-1.5341,0.6028,39,82525.793,1595854,-0.5404,-8.6571,-8.2266,1.8545,-1.5957,-1.4277,47
8.466,163,8.0344,-0.9336,-10.1849,-0.8696,-0.0293,-0.3294,75,8.728,168,5.3825,-1.7875,-7.1208,-0.1015,1.4185,-1.9387,77,8.932,172,7.2465,4.6427,-21.1124,-0.7877,0.3335,0.6671,73,8.391,162,11.7674,0.7904,-11.7694,-0.2546,-1.7865,1.0336,39,82525.845,1595855,0.7591,-11.5762,-5.0776,1.7109,-1.4837,-1.1467,47
8.518,164,7.6254,-1.338,-10.0831,-0.3389,-0.0046,-0.4568,75,8.78,169,-1.3428,-6.5654,-7.1718,0.3322,1.2171,-1.3992,77,8.984,173,8.0444,2.7516,-18.153,-0.3103,0.3438,0.2033,73,8.443,163,11.6409,2.468,-11.0409,-0.8629,-1.9168,1.2425,39,82525.897,1595856,1.2585,-13.7067,-4.0983,1.1356,-1.7128,-1.3153,47
8.569,165,7.8774,-1.9593,-10.5148,-0.3476,0.2846,-0.3171,75,8.832,170,-1.7715,-9.4785,-5.5491,0.1468,1.039,-0.3558,77,9.036,174,9.2565,1.1948,-16.3284,-0.4513,0.5592,0.1011,73,8.494,164,10.7198,2.4807,-9.398,-1.3068,-1.422,1.5416,39,82525.948,1595857,1.8709,-14.778,-7.2961,0.1903,-1.9131,-1.636,47
8.621,166,7.7437,-2.4044,-10.7278,-0.3834,0.4878,-0.061,75,8.884,171,2.2853,-11.3243,-11.913,-0.5729,0.9216,0.4057,77,9.088,175,9.0943,0.7706,-14.754,-0.2891,0.3628,-0.0272,73,8.546,165,9.4758,2.832,-9.8443,-1.1556,-0.3529,1.6953,39,82526.0,1595858,0.8886,-10.8446,-7.4678,-0.539,-2.0594,-1.8701,47
8.673,167,8.3802,-3.264,-10.8534,-0.169,0.3789,0.0456,75,8.936,172,2.268,-2.9381,-16.6345,-0.0932,0.0478,0.9615,77,9.139,176,9.1217,0.5471,-13.2341,-0.2622,0.3339,-0.127,73,8.598,166,8.8598,3.9191,-10.2773,-1.0096,0.4274,1.5401,39,82526.052,1595859,-3.7171,-5.2922,-13.4759,0.029,-0.9164,-2.0409,47
8.725,168,8.7176,-2.5557,-10.604,0.2689,0.4577,0.1432,75,8.988,173,-0.6677,0.2687,-18.4771,-0.3988,-0.5995,1.1646,77,9.191,177,9.3179,-0.5063,-12.4654,-0.1672,0.0137,-0.0857,73,8.65,167,8.6953,4.2885,-10.494,-1.2062,0.9969,1.1095,39,82526.104,1595860,-2.2211,-2.9255,-11.8518,0.6274,0.0198,-2.1656,47
8.777,169,9.4129,-1.657,-10.4558,0.3524,-0.0396,0.439,75,9.039,174,-1.5368,-1.1709,-13.7451,0.3658,-1.1102,0.3045,77,9.243,178,8.2146,-1.8262,-13.0633,-0.0795,-0.2482,-0.1258,73,8.702,168,9.0439,4.3176,-11.0658,-1.5392,1.4126,0.5672,39,82526.155,1595861,-1.1311,-1.1743,-10.6685,1.0203,0.7031,-2.2566,47
8.828,170,9.3147,-1.4023,-10.7202,0.5361,-0.0619,0.4723,75,9.091,175,3.7983,0.6197,-10.2158,0.9387,-1.4829,-0.4641,77,9.295,179,9.1794,-1.1492,-12.2779,-0.3619,-0.6455,-0.1751,73,8.754,169,9.2461,2.5021,-12.5252,-0.8037,1.7159,0.1554,39,82526.207,1595862,-0.3473,0.1201,-9.8071,1.269,1.2018,-2.323,47
8.88,171,9.3423,-0.2745,-10.6567,0.6446,-0.0402,0.4376,75,9.143,176,7.692,-4.8085,-7.4183,0.8746,-0.4032,-0.0254,77,9.346,180,10.745,-0.9998,-12.2047,-0.2123,-1.1445,-0.1824,73,8.805,170,9.6576,2.6987,-16.2089,0.0881,1.9373,-0.2546,39,82526.259,1595863,0.196,1.0737,-9.1576,1.404,1.5658,-2.3715,47
8.932,172,8.9393,-0.0892,-10.6769,0.6491,0.0827,0.3669,75,9.195,177,5.5625,-2.3322,-6.6291,1.1366,0.3848,0.2204,77,9.398,181,12.6202,-1.4646,-10.2245,-0.8296,-1.5048,-0.2906,73,8.857,171,10.089,-1.6398,-19.8112,0.2402,0.8217,-0.1307,39,82526.311,1595864,-0.5038,5.6083,-7.175,1.6564,1.8315,-2.4069,47
8.984,173,8.6114,0.0949,-10.73,0.5615,0.2851,0.2786,75,9.247,178,0.877,-0.2964,-4.9189,0.1495,0.9599,0.1784,77,9.45,182,11.1897,-4.1362,-12.6397,-0.9783,-1.4623,-0.6913,73,8.909,172,5.5606,-4.1383,-15.2918,-0.5018,0.0714,0.1172,39,82526.362,1595865,-0.9334,7.5716,-7.4197,1.5543,1.7218,-2.2365,47
9.036,174,8.3054,-0.4189,-10.684,0.3894,0.4211,0.1965,75,9.298,179,-0.138,-2.8353,-2.2997,-0.5709,0.6101,0.3332,77,9.502,183,8.5257,-3.7326,-12.7824,-0.1725,-0.8404,-0.6432,73,8.961,173,6.8327,-3.422,-14.4495,0.2484,-0.216,0.0319,39,82526.414,1595866,-3.2241,7.5314,-4.4811,1.2687,0.9437,-1.6986,47
9.087,175,7.7111,-0.5915,-10.5561,0.1141,0.6073,0.1658,75,9.35,180,-0.8506,-1.6155,-2.4726,-0.6706,1.1244,0.7249,77,9.554,184,7.868,-2.7443,-11.617,-0.4789,0.065,-0.6177,73,9.013,174,7.7821,-1.6401,-13.5099,0.0825,-0.5213,-0.0265,39,82526.466,1595867,-3.3119,6.5544,-0.7071,0.248,0.0256,-1.7614,47
9.139,176,7.0029,-1.6076,-10.4401,0.0352,0.533,0.1024,75,9.402,181,0.7227,-4.8474,-6.7013,-0.3623,1.4937,1.168,77,9.606,185,7.4201,-3.1669,-11.7755,-0.2069,0.7258,-0.3052,73,9.064,175,7.7532,-0.0874,-13.0171,0.3622,-0.4796,-0.1345,39,82526.518,1595868,-2.2464,4.8694,-1.6408,-0.4968,-0.6444,-1.2747,47
9.191,177,7.5882,-2.621,-10.222,0.1817,0.2016,0.0439,75,9.454,182,1.676,-2.4879,-10.5739,-0.3359,0.4439,1.2764,77,9.657,186,8.4047,-3.5934,-12.0225,0.5255,1.2081,0.1077,73,9.116,176,7.8898,0.7978,-12.3445,0.2089,-0.5776,-0.0218,39,82526.569,1595869,-6.8711,-1.7039,-9.2231,-1.0398,-0.9679,-1.1626,47
9.243,178,8.0266,-3.7781,-10.1488,0.3067,0.2384,0.1179,75,9.506,183,0.5115,1.116,-15.6571,-0.1122,0.7303,1.1901,77,9.709,187,10.8956,-3.1329,-12.2273,1.0601,1.5601,0.2606,73,9.168,177,7.9713,1.3642,-11.9146,0.1965,-0.7365,0.1267,39,82526.622,1595870,-5.4096,-0.9778,-6.8342,-1.394,-0.0177,-1.0818,47
9.294,179,10.8537,-3.5386,-10.4985,0.7429,-0.2992,0.3876,75,9.558,184,-1.935,0.9432,-12.8709,-0.7318,-0.1397,0.2626,77,9.761,188,11.573,-4.3639,-14.1156,1.4502,1.817,0.4709,73,9.22,178,8.2411,1.5202,-11.8402,0.1917,-0.9985,0.1811,39,82526.673,1595871,-3.739,-0.4582,-5.2147,-1.6827,0.6757,-1.0166,47
9.346,180,10.7292,-2.2458,-10.9624,0.6402,0.1089,0.7005,75,9.609,185,-0.2621,-3.4565,-6.7459,-0.5473,-0.7746,-0.4947,77,9.813,189,10.1512,-2.9414,-16.8792,1.72,2.0044,0.433,73,9.272,179,8.7308,1.4926,-11.8879,0.074,-1.2565,0.2411,39,82526.725,1595872,-2.5577,-0.0908,-4.0107,-1.9011,1.1818,-0.963,47
9.398,181,10.4153,-2.1248,-11.0374,0.6657,0.0237,0.7497,75,9.661,186,4.7286,2.8042,-8.315,0.2723,-0.8473,-0.9114,77,9.865,190,12.2442,2.171,-17.9441,1.0584,1.1929,0.303,73,9.323,180,9.2946,1.6016,-12.3032,0.1559,-1.5839,0.1945,39,82526.777,1595873,-1.7057,0.1757,-3.1301,-2.064,1.5512,-0.9198,47
9.45,182,9.0929,-0.9044,-10.725,0.8677,0.0603,0.6227,75,9.713,187,8.371,1.1313,-6.0739,-0.4688,0.0607,-0.6323,77,9.916,191,14.1977,1.7473,-21.1013,1.449,0.1972,-0.4527,73,9.375,181,10.0788,1.9803,-12.3645,0.402,-1.8228,0.0753,39,82526.828,1595874,-1.0118,0.2224,-5.2866,-1.5661,1.8208,-1.1189,47
9.502,183,8.2128,-1.1957,-10.4254,0.9739,-0.0117,0.3891,75,9.765,188,6.4231,-3.2772,-5.9201,-0.7538,0.7234,-0.2233,77,9.968,192,13.0943,-0.4862,-13.8462,1.1076,-0.5295,-0.4618,73,9.427,182,12.4732,2.3771,-9.9317,0.9539,-1.9971,-0.1731,39,82526.88,1595875,-0.7602,0.2366,-9.2267,-1.271,1.7818,-1.0536,47
9.553,184,7.6239,-1.1806,-10.4107,1.1344,0.0605,0.133,75,9.817,189,4.5841,-4.9371,-6.1198,-0.9607,0.818,0.4023,77,10.02,193,13.1958,-0.7344,-13.3443,1.0648,-0.7244,-0.3804,73,9.479,183,12.238,4.7731,-9.8794,1.1026,-2.1244,0.0232,39,82526.932,1595876,-1.327,1.1667,-12.7487,-1.0172,0.6791,-0.7591,47
9.605,185,7.0397,-1.6783,-10.4881,1.1084,0.1622,-0.0527,75,9.868,190,5.1003,-4.7872,-4.5234,-1.3634,0.8131,0.959,77,10.072,194,11.9849,-0.859,-12.4007,0.2019,-0.6557,-0.1022,73,9.531,184,10.0791,2.8172,-14.172,0.138,-1.4268,-0.2458,39,82526.984,1595877,-5.1289,1.2805,-16.1843,-0.637,-0.1675,-0.455,47
9.657,186,7.5435,-1.677,-10.9432,1.1177,0.1412,-0.0949,75,9.92,191,3.1509,-5.7772,-3.5345,-0.6079,1.2725,1.3653,77,10.124,195,11.4224,-1.41,-12.1656,0.3662,-0.8399,-0.244,73,9.582,185,10.3357,1.2729,-11.7413,-0.0065,-0.3683,-0.5173,39,82527.035,1595878,-3.922,1.3361,-12.8107,-0.5712,-0.7853,-0.4669,47
9.709,187,7.6275,-2.1542,-10.9054,0.7239,0.3319,0.0626,75,9.972,192,1.3945,-4.6146,-7.356,0.228,0.3917,1.5675,77,10.175,196,10.9423,-1.085,-12.3278,0.2018,-0.9261,-0.2796,73,9.634,186,9.2799,-0.2928,-11.4666,-0.0152,0.4161,-0.9014,39,82527.087,1595879,-2.6393,0.8627,-10.4906,-0.5541,-1.2362,-0.4738,47
9.761,188,8.0784,-1.9853,-10.7232,0.332,0.4252,0.2053,75,10.024,193,2.769,1.2498,-11.0286,-0.2064,-0.3868,1.3395,77,10.227,197,10.936,-0.7063,-12.1408,0.2499,-1.2626,-0.3003,73,9.686,187,9.9054,-1.7736,-11.5181,0.3898,0.9887,-1.1234,39,82527.139,1595880,-0.587,-1.8109,-15.6821,0.2483,-0.2136,0.3299,47
9.812,189,6.5476,-3.2851,-10.1225,0.4661,-0.1619,0.2479,75,10.076,194,2.982,2.9934,-13.034,0.0961,-0.5726,1.1813,77,10.279,198,9.9833,-1.03,-12.266,0.0817,-1.5949,-0.3627,73,9.738,188,11.0419,-2.0142,-11.6893,0.7944,1.4065,-1.2549,39,82527.191,1595881,-0.8043,-2.603,-11.6383,0.8551,0.5328,0.9165,47
9.864,190,9.8363,-3.7044,-9.1962,0.9843,-0.7875,0.2798,75,10.127,195,2.8794,3.7944,-14.4591,0.1445,-1.0743,0.9627,77,10.331,199,10.6151,-0.412,-12.2293,-0.2534,-1.7745,-0.3601,73,9.79,189,12.6648,-2.2377,-12.3438,1.1871,1.7115,-1.3551,39,82527.242,1595882,-1.0493,-3.0839,-8.6605,1.298,1.0775,1.3446,47
9.916,191,9.7194,-3.4624,-9.2548,1.0418,-0.4884,0.3854,75,10.179,196,3.6852,4.2235,-13.3893,-0.5448,-1.4567,0.3107,77,10.383,200,13.0131,-0.1041,-12.8611,-0.7858,-1.8474,-0.3255,73,9.841,190,12.9491,-3.1146,-15.0529,1.5411,1.9341,-1.2674,39,82527.294,1595883,-0.3661,-1.6823,-9.9501,1.6212,1.4751,1.657,47
9.967,192,9.7349,-3.8759,-9.4781,1.4188,-0.7977,0.2009,75,10.231,197,7.6095,-2.1783,-12.1534,0.1403,-1.7359,-0.4596,77,10.434,201,14.7633,0.0944,-12.075,-1.2487,-2.0217,-0.5348,73,9.893,191,10.6477,-1.9872,-18.9675,1.7994,1.7356,-0.8972,39,82527.346,1595884,1.6012,-1.0899,-10.2604,1.8571,1.7652,1.8851,47
10.019,193,9.5647,-3.1928,-9.9932,1.7099,-1.121,-0.1194,75,10.283,198,10.4736,0.0603,-8.5423,0.5963,-1.2362,-0.1373,77,10.486,202,12.4592,-3.766,-12.9298,-0.4401,-2.0028,-1.0643,73,9.945,192,12.8884,-4.6123,-21.8245,0.6362,0.5999,-0.0026,39,82527.398,1595885,1.3494,-1.1658,-9.0078,1.9712,1.977,2.0031,47
10.071,194,9.465,-2.9479,-10.3325,1.9223,-0.9222,-0.3704,75,10.335,199,10.1066,-3.4701,-6.2012,1.107,-0.2231,-0.3319,77,10.538,203,10.2118,-1.3335,-12.7704,0.3311,-1.5453,-1.392,73,9.997,193,10.0156,0.7821,-19.4218,1.139,-0.1464,0.1345,39,82527.449,1595886,5.1321,-0.9626,-10.0362,1.8926,2.1316,1.6878,47
10.123,195,8.9786,-2.6253,-10.8901,2.0774,-0.611,-0.5168,75,10.386,200,9.0305,-4.9208,-4.784,0.5462,0.4082,0.2991,77,10.59,204,8.9189,-2.815,-12.8481,0.1015,-0.4495,-1.6639,73,10.049,194,11.0615,1.2,-17.3466,0.7459,-0.5256,0.1906,39,82527.501,1595887,7.3673,-1.4657,-11.8498,1.5075,1.7503,1.305,47
10.175,196,8.4172,-2.4528,-11.4483,2.1905,-0.3801,-0.6395,75,10.438,201,7.2043,-6.2211,-4.3788,0.6622,0.7341,0.8647,77,10.642,205,8.067,-4.0688,-13.3251,0.5749,0.3503,-1.6322,73,10.101,195,10.44,1.6308,-16.0662,0.9209,-0.6591,-0.1272,39,82527.553,1595888,7.5465,-1.7056,-13.1172,0.9384,1.1113,1.1342,47
10.226,197,7.4714,-2.5113,-11.6934,2.2731,-0.236,-0.6659,75,10.49,202,5.777,-4.2617,-3.9468,0.6804,1.1911,1.2965,77,10.693,206,8.0887,-5.8578,-13.9813,0.9544,0.934,-1.4731,73,10.152,196,9.5424,2.3313,-15.2068,0.7249,-0.5792,-0.267,39,82527.605,1595889,8.9389,-0.5377,-15.9603,0.3223,0.3126,1.166,47
10.278,198,7.7087,-2.0168,-11.9328,2.2638,-0.1087,-0.4856,75,10.542,203,6.462,-8.3712,-0.5849,0.6797,1.4227,1.6114,77,10.745,207,9.4435,-6.9586,-16.0915,1.0233,1.36,-0.7018,73,10.204,197,9.2332,3.0669,-14.3183,0.8666,-0.453,-0.3248,39,82527.656,1595890,8.3894,0.2,-15.764,0.0117,-0.435,1.0482,47
10.33,199,7.481,-2.085,-12.201,1.6733,0.2813,-0.0616,75,10.594,204,3.3061,-0.8324,-6.8718,0.6853,1.3963,1.8354,77,10.797,208,10.1982,-9.0243,-17.4396,1.4234,1.671,-0.0515,73,10.256,198,8.4314,3.3471,-13.7471,0.9364,-0.3664,-0.2904,39,82527.708,1595891,6.0847,0.2874,-13.0262,-0.2446,-0.9805,0.8935,47
10.382,200,7.4271,-2.9919,-12.3421,1.5408,0.2218,0.2593,75,10.645,205,4.0494,1.0345,-10.2899,0.6562,1.1927,1.4673,77,10.849,209,11.6002,-7.5103,-17.1122,1.7154,1.8979,0.4688,73,10.308,199,8.2495,3.5163,-13.4588,0.7907,-0.3692,-0.1146,39,82527.76,1595892,9.7992,-5.0481,-6.9437,-0.1853,-0.848,0.6064,47
10.434,201,9.1702,-2.8196,-12.498,1.7985,-0.4849,0.5561,75,10.697,206,1.361,2.0479,-14.6118,0.9366,0.8451,1.1708,77,10.901,210,11.3524,-7.9649,-17.7728,1.9285,1.8346,0.8337,73,10.359,200,8.0747,3.3511,-13.0859,0.7488,-0.4314,-0.0555,39,82527.812,1595893,6.8069,-3.4077,-5.6501,-0.8131,-0.1844,0.3573,47
10.485,202,9.5394,-1.9983,-12.5559,1.5222,-0.115,0.8335,75,10.749,207,-1.1156,-0.0989,-15.2832,0.0035,-0.0559,0.6583,77,10.953,211,10.1254,-6.3032,-18.944,2.084,1.7548,0.9174,73,10.411,201,7.7292,3.4197,-13.0057,0.7221,-0.5951,-0.0775,39,82527.863,1595894,4.6582,-2.2262,-4.9242,-1.2713,0.2708,-0.0974,47
10.537,203,9.6811,-2.2882,-12.7096,1.7733,-0.7088,0.6706,75,10.801,208,4.1057,-1.5617,-16.2585,0.1762,-0.7135,-0.2059,77,11.005,212,9.5611,-7.1486,-21.5418,2.112,1.613,0.9085,73,10.463,202,8.2839,3.3514,-12.7963,0.8337,-0.7894,-0.2045,39,82527.915,1595895,3.0887,-1.3643,-4.4167,-1.6057,0.5685,-0.609,47
10.589,204,9.6117,-1.3876,-12.7339,1.9686,-1.0051,0.399,75,10.853,209,7.9164,1.5716,-13.3566,0.8003,0.0353,-0.6496,77,11.056,213,12.2439,-6.4402,-20.0128,2.1477,0.5757,0.4232,73,10.515,203,8.8651,3.3396,-12.6133,1.2377,-1.0465,-0.4658,39,82527.967,1595896,5.3897,1.5588,-5.0543,-1.8498,0.4564,-0.2708,47
10.641,205,9.5496,-1.4428,-12.4918,2.0589,-0.9156,0.2092,75,10.905,210,9.4566,-1.6772,-10.5009,1.0357,0.7048,-0.2734,77,11.108,214,12.5242,-3.8581,-18.0193,1.4491,-0.2533,0.4133,73,10.567,204,9.5367,2.3549,-13.9237,1.578,-1.4119,-0.805,39,82528.019,1595897,4.2063,3.7859,-4.5186,-2.0279,-0.0113,0.335,47
10.692,206,8.9573,-1.2691,-12.3366,2.1462,-0.6704,0.0105,75,10.956,211,8.4545,-3.0497,-8.3178,1.4276,1.1935,0.2585,77,11.16,215,11.9985,-3.3022,-16.7908,1.3587,-0.5487,0.289,73,10.618,205,9.0818,2.8911,-14.6413,1.8264,-1.3524,-0.9625,39,82528.071,1595898,2.7549,7.2079,-4.9832,-2.158,-0.2731,0.0193,47
10.744,207,8.5227,-1.4254,-12.3539,2.2136,-0.5568,-0.1894,75,11.008,212,5.0738,-3.9724,-6.7968,1.2996,1.5501,0.854,77,11.212,216,11.4996,-2.5167,-15.5061,0.7703,-0.7376,0.3005,73,10.67,206,7.5465,2.2947,-15.4336,1.6273,-0.9168,-1.3681,39,82528.122,1595899,3.3003,7.7007,-2.1028,-1.8922,-0.5621,-0.3303,47
10.796,208,8.6538,-1.3862,-12.5816,2.2694,-0.3761,-0.2847,75,11.06,213,0.7495,-4.8944,-6.0201,0.6134,1.8104,1.2887,77,11.263,217,11.249,-1.9741,-14.4174,0.5272,-0.8449,0.13,73,10.722,207,10.0935,-0.1716,-13.1922,1.8623,-0.1275,-1.6668,39,82528.174,1595900,-0.5802,7.2934,0.4598,-2.0589,-0.5954,-0.6324,47
10.848,209,8.8497,-1.1174,-13.0426,1.889,-0.0132,-0.0947,75,11.112,214,-0.8324,-5.594,-6.2836,0.0366,1.5543,1.6059,77,11.315,218,10.8088,-1.7203,-13.784,0.5869,-0.9761,-0.1262,73,10.774,208,9.5928,-0.3152,-11.8321,1.9142,0.5919,-1.8879,39,82528.226,1595901,-1.0532,5.7556,-1.6668,-2.1806,0.0678,-1.1376,47
10.9,210,8.9844,-1.1353,-13.2384,1.4292,0.2579,0.1769,75,11.163,215,-1.0629,-2.3683,-8.3355,0.6984,1.8134,1.6018,77,11.367,219,10.1274,-1.5527,-13.7431,0.5075,-0.953,-0.1884,73,10.826,209,10.2153,-1.5007,-11.5229,1.9351,1.1169,-2.0493,39,82528.278,1595902,-1.3476,4.5519,-3.3291,-2.2693,0.521,-1.5063,47
10.952,211,7.4417,-0.9809,-12.5371,1.0722,0.4298,0.3799,75,11.215,216,1.5412,-0.346,-11.7747,0.7487,0.6509,1.1892,77,11.419,220,9.8301,-1.4695,-13.5958,0.4373,-0.9669,-0.3118,73,10.877,210,10.796,-2.0264,-11.3022,2.087,1.5002,-2.1671,39,82528.33,1595903,-0.4916,3.2103,-3.2559,-2.3341,1.0686,-1.1555,47
11.003,212,8.6446,-1.6211,-11.761,1.1522,-0.3556,0.459,75,11.267,217,0.5381,-0.1408,-14.0063,0.6349,-0.1976,0.6164,77,11.47,221,9.512,-0.8607,-13.9156,0.385,-0.9809,-0.3897,73,10.929,211,11.5435,-1.8394,-11.0729,2.1979,1.7798,-2.148,39,82528.381,1595904,-0.2425,2.564,-2.862,-2.3814,1.4686,-0.901,47
11.055,213,9.4965,-0.854,-11.3602,1.1089,-0.0583,0.4213,75,11.319,218,0.4453,-0.7498,-13.1082,-0.2069,-0.8169,0.0347,77,11.522,222,10.0088,-0.1302,-13.4415,0.0649,-1.1489,-0.5106,73,10.981,212,11.0877,-2.6939,-13.0451,2.1724,1.984,-1.8288,39,82528.433,1595905,-0.0399,2.1059,-2.6034,-2.4159,1.7605,-0.7145,47
11.107,214,8.3337,-1.8779,-11.1304,0.8873,-0.1827,0.2951,75,11.371,219,5.2449,-0.5228,-16.5476,0.5207,-1.2689,-0.6611,77,11.574,223,11.888,-0.5518,-11.4016,-0.1159,-1.5015,-0.7864,73,11.033,213,9.7041,-2.8471,-16.3925,2.2602,2.133,-1.3768,39,82528.485,1595906,0.1198,1.785,-2.3884,-2.4411,1.9735,-0.5777,47
11.159,215,8.2671,-2.0474,-10.916,1.322,-0.6036,0.0299,75,11.422,220,8.7478,-0.2124,-10.4525,0.8164,-0.247,0.0782,77,11.626,224,13.9421,-1.5745,-11.92,-0.6859,-1.4333,-1.0515,73,11.084,214,10.0893,2.9582,-9.3562,1.9143,1.6723,-0.8478,39,82528.537,1595907,-0.2938,1.3061,-3.1018,-2.4595,2.129,-0.5694,47
11.21,216,8.4868,-1.6468,-10.7114,1.4635,-0.6254,-0.0921,75,11.474,221,8.1055,-1.0176,-7.836,0.7132,0.4988,0.2035,77,11.678,225,12.2866,-3.3276,-11.6075,0.1289,-1.2268,-1.4414,73,11.136,215,10.1486,-1.5453,-8.2893,1.5718,0.5537,-0.4323,39,82528.588,1595908,0.0546,1.2609,-5.4372,-2.4729,2.2425,-0.3131,47
11.262,217,8.2703,-1.6038,-10.9866,1.3968,-0.3751,-0.1044,75,11.526,222,5.8835,-3.8329,-7.1894,-0.0004,1.0431,0.5583,77,11.729,226,10.3702,-1.071,-11.1751,0.7706,-1.1058,-1.719,73,11.188,216,10.209,-0.2456,-9.877,1.4832,-0.0529,-0.1887,39,82528.64,1595909,0.0573,1.8872,-9.5554,-2.4251,1.8992,0.1208,47
11.314,218,7.9103,-1.28,-11.1958,1.2462,-0.2725,-0.1264,75,11.578,223,4.7247,-5.7818,-8.0541,0.2205,1.1692,0.9304,77,11.781,227,9.0683,-3.0863,-11.6893,0.6379,-0.1287,-1.9231,73,11.24,217,10.3654,0.7438,-10.2158,0.9805,-0.3082,-0.006,39,82528.692,1595910,-1.1964,0.7102,-13.3325,-1.5175,0.9641,0.141,47
11.366,219,7.4303,-0.9708,-11.1415,1.1296,-0.2066,-0.2554,75,11.63,224,3.7024,-5.5096,-8.3801,0.3313,1.3482,1.3444,77,11.833,228,7.8401,-5.023,-12.8118,0.8037,0.5844,-1.9296,73,11.292,218,9.7993,2.2238,-10.669,0.8545,-0.2913,-0.077,39,82528.744,1595911,-2.2198,-0.6904,-14.8582,-0.8249,0.0406,0.045,47
11.418,220,6.8954,-1.3437,-11.2984,1.2107,-0.1889,-0.4543,75,11.681,225,1.4775,-5.0591,-5.5731,-0.0146,1.663,1.6466,77,11.885,229,8.2469,-6.7366,-13.7109,1.2631,1.1049,-1.3954,73,11.343,219,9.2562,2.6465,-10.7886,0.8903,-0.2573,-0.0535,39,82528.795,1595912,-1.4473,-0.14,-11.9432,-0.08,-0.6335,0.3942,47
11.469,221,7.8517,-1.3073,-11.8049,0.9896,-0.3195,-0.392,75,11.733,226,-3.0625,-2.546,-5.7458,-0.4804,1.8928,1.4253,77,11.937,230,8.9709,-7.6223,-14.3926,1.5984,1.4847,-0.7493,73,11.395,220,9.0576,2.6747,-10.7779,0.7962,-0.2881,0.033,39,82528.847,1595913,-0.6577,0.3449,-9.7385,0.4423,-1.1254,0.6523,47
11.521,222,8.8117,-2.1976,-12.4832,0.5984,-0.0617,-0.0512,75,11.785,227,-3.0456,0.2662,-10.1068,-0.6351,0.7788,0.6379,77,11.988,231,10.2614,-7.3347,-14.056,1.8431,1.762,-0.0275,73,11.447,221,8.761,3.2659,-11.0631,0.5931,-0.4095,0.1292,39,82528.899,1595914,0.1057,-0.2985,-8.7666,-0.3342,-0.138,1.1518,47
11.573,223,10.2154,-1.7952,-12.2695,0.5525,-0.3618,0.4568,75,11.837,228,-1.1554,0.3657,-15.0909,0.2082,-0.1043,-0.1656,77,12.04,232,10.8454,-6.4721,-14.1732,1.93,1.9643,0.5714,73,11.499,222,8.3712,3.1664,-11.2826,0.7087,-0.4874,0.1037,39,82528.951,1595915,0.6645,-0.7772,-8.437,-0.9058,0.5879,1.5163,47
11.625,224,10.3949,-0.656,-11.9895,0.0957,-0.2107,0.8206,75,11.889,229,-2.2951,0.6109,-15.6881,0.1339,-0.7481,-0.2858,77,12.092,233,10.4863,-6.1768,-16.6165,1.7515,2.112,0.8058,73,11.551,223,8.3297,2.9796,-11.5496,0.8187,-0.6324,0.049,39,82529.002,1595916,1.045,-1.1483,-8.1615,-1.3029,1.1178,1.7824,47
11.676,225,9.8943,-0.9845,-11.6816,0.0342,-0.4345,0.6505,75,11.94,230,3.2448,-2.587,-11.9592,-0.3825,-1.2187,-0.8949,77,12.144,234,8.201,-2.6319,-20.1323,1.2716,2.1234,0.8472,73,11.602,224,8.5188,2.9069,-11.7243,0.8083,-0.8438,0.0523,39,82529.054,1595917,1.2923,-1.4431,-7.9606,-1.5543,1.5045,1.9765,47
11.728,226,9.5094,-1.4525,-11.4586,0.6788,-0.7118,0.2415,75,11.992,231,7.2881,-4.0116,-9.0496,0.1281,-0.62,-0.6115,77,12.196,235,11.2512,-4.3926,-22.6984,1.6046,0.8764,0.0357,73,11.654,225,9.4755,3.0108,-11.6544,0.828,-1.2034,0.0475,39,82529.106,1595918,6.3016,1.2831,-10.5352,-1.8024,1.7867,2.1183,47
11.78,227,9.1668,-1.282,-11.0421,0.7449,-0.6293,0.0781,75,12.044,232,7.0188,-4.7766,-7.0933,0.7652,0.2266,-0.5104,77,12.247,236,10.5362,-3.7723,-21.728,0.4959,0.4174,0.1659,73,11.706,226,12.0329,2.7772,-10.3876,1.0831,-1.5451,-0.0728,39,82529.158,1595919,6.6074,2.1594,-10.9479,-1.9877,1.5147,2.2217,47
11.832,228,8.2465,-1.267,-10.9989,0.9634,-0.431,-0.0109,75,12.096,233,6.7994,-5.3583,-6.1644,0.9154,0.8444,-0.0416,77,12.3,237,10.5096,-2.6394,-18.8328,0.8117,-0.1611,-0.0702,73,11.758,227,13.6037,4.0467,-11.0173,1.4651,-1.7945,-0.0583,39,82529.209,1595920,5.2537,2.1041,-10.3804,-2.081,1.1095,2.2972,47
11.884,229,7.8205,-0.6678,-10.9635,0.8057,-0.3408,-0.1777,75,12.147,234,5.0013,-5.7697,-5.3401,0.7809,1.2954,0.501,77,12.352,238,10.2605,-2.7652,-16.9967,0.3023,-0.2443,-0.1613,73,11.809,228,11.907,3.6745,-11.935,1.0534,-1.8427,0.0077,39,82529.261,1595921,9.1928,6.8668,-15.6016,-1.9344,0.6241,2.3523,47
11.935,230,7.5627,-1.1809,-11.3114,0.6547,-0.0544,-0.3118,75,12.199,235,3.6169,-4.134,-4.923,0.5482,1.6214,0.9213,77,12.403,239,9.9423,-2.0372,-16.4675,0.4909,-0.1886,-0.2949,73,11.861,229,10.5351,2.1308,-11.5177,0.793,-1.3139,-0.1322,39,82529.313,1595922,9.9354,8.4893,-13.716,-1.8224,0.7073,2.2876,47
11.987,231,7.5459,-1.1197,-11.7795,0.5837,0.0892,-0.3507,75,12.251,236,1.4832,-3.0963,-4.281,-0.0174,1.8624,1.0828,77,12.455,240,9.996,-1.873,-15.1286,0.2793,-0.4205,-0.2374,73,11.913,230,9.802,1.1409,-10.8331,0.3989,-0.2834,-0.1969,39,82529.365,1595923,6.1409,7.9602,-11.5716,-2.0058,0.9043,1.4396,47
12.039,232,8.5279,-1.4312,-12.1086,0.2253,0.3345,-0.2377,75,12.303,237,-1.7038,-2.986,-4.6689,-0.0459,2.0384,1.0599,77,12.507,241,9.7457,-1.8873,-14.3025,0.2835,-0.53,-0.2771,73,11.965,231,8.6166,0.3667,-11.1512,-0.139,0.4781,-0.3613,39,82529.416,1595924,4.2648,5.8806,-10.8224,-2.1418,1.1091,0.5644,47
12.091,233,8.7922,-1.8294,-11.9213,-0.075,0.5398,-0.1771,75,12.355,238,-1.1389,-0.9025,-8.7491,0.5904,0.8587,1.3183,77,12.559,242,9.6317,-1.5637,-13.8145,0.1635,-0.6822,-0.3065,73,12.017,232,8.7678,-0.2523,-11.2491,-0.1622,1.0339,-0.4565,39,82529.468,1595925,8.471,9.623,-5.3353,-2.241,1.4781,1.0876,47
12.143,234,8.185,-2.2076,-11.7143,-0.0497,0.3879,-0.0885,75,12.407,239,-2.6336,-0.0546,-14.3253,0.4696,0.0326,1.0045,77,12.61,243,9.4705,-1.4851,-13.7524,0.0702,-0.8431,-0.3375,73,12.068,233,9.8785,-0.2115,-11.6545,0.1439,1.4396,-0.4656,39,82529.52,1595926,7.383,6.5702,-5.6685,-2.3135,1.7675,1.4695,47
12.194,235,9.5368,-1.2497,-11.2342,-0.2402,-0.0387,0.199,75,12.459,240,-5.1008,0.0184,-14.2173,-0.336,-0.5882,0.3594,77,12.662,244,9.4523,-1.6564,-13.867,-0.0421,-1.0421,-0.4158,73,12.12,234,11.8417,0.3545,-12.7787,-0.2029,1.7356,-0.4907,39,82529.572,1595927,6.4751,4.3304,-5.7757,-2.3664,1.9786,1.7482,47
12.246,236,9.5339,-1.3669,-10.9698,-0.2343,-0.4398,0.1588,75,12.51,241,1.1971,-5.1339,-8.3558,-0.0093,-1.1019,-0.424,77,12.714,245,9.7597,-1.1159,-13.9506,-0.3419,-1.3478,-0.5012,73,12.172,235,10.9575,-0.1113,-16.4833,-0.0715,1.9517,-0.3217,39,82529.623,1595928,5.7894,2.6674,-5.8636,-2.4049,2.1328,1.9516,47
12.298,237,9.2128,-0.5971,-10.5218,0.072,-0.57,0.0022,75,12.562,242,5.7936,-2.0747,-6.9048,0.665,-0.2058,-0.9931,77,12.766,246,12.1978,-2.202,-13.125,-0.8352,-1.6571,-0.5064,73,12.224,236,8.9305,-1.1128,-19.6022,-0.2903,1.2649,-0.2853,39,82529.675,1595929,5.2819,1.4344,-5.9173,-2.4331,2.2452,2.1,47
12.35,238,8.8577,-0.3078,-10.2859,0.0042,-0.5317,-0.0901,75,12.614,243,7.7307,-1.9945,-5.4984,0.2679,0.5289,-0.8168,77,12.818,247,13.2939,-1.7147,-14.4752,-1.2848,-1.7707,-0.5581,73,12.275,237,11.6351,1.2714,-19.0995,-0.2836,0.3811,-0.2297,39,82529.727,1595930,2.4981,-0.5234,-6.5294,-2.4537,2.3273,2.2084,47
12.402,239,7.9207,-0.3163,-10.1607,-0.0191,-0.3474,-0.1688,75,12.666,244,7.1654,-2.2093,-4.199,0.7519,1.0459,-0.6071,77,12.869,248,12.2678,-3.1482,-13.2883,-0.7963,-1.6314,-0.926,73,12.327,238,12.2109,1.8403,-16.4213,-0.2827,-0.3792,-0.2023,39,82529.779,1595931,-0.3542,-1.9369,-9.0194,-2.3333,2.3873,2.2875,47
12.453,240,7.2729,-0.2973,-10.1134,0.001,-0.286,-0.3288,75,12.718,245,3.2184,-2.0567,-2.0729,0.3731,1.4425,-0.148,77,12.921,249,10.819,-1.1841,-11.898,-0.4004,-1.2806,-0.8572,73,12.379,239,12.0404,1.4688,-15.1249,0.0423,-0.5977,-0.3184,39,82529.83,1595932,-2.5155,-2.7972,-11.2035,-1.6254,2.3259,2.3452,47
12.505,241,7.0569,-0.8422,-10.34,0.1189,-0.1637,-0.499,75,12.769,246,-0.4966,-1.6143,-1.3031,-0.0898,1.7318,0.0607,77,12.973,250,8.6099,-1.1538,-11.7669,0.0235,-0.2565,-0.6375,73,12.431,240,11.3235,1.4383,-14.1538,0.0849,-0.6374,-0.3914,39,82529.882,1595933,-4.7898,-3.2918,-12.4824,-0.7477,1.744,2.2331,47
12.557,242,7.1034,-0.9033,-10.8613,0.0329,0.0009,-0.5543,75,12.821,247,-3.2451,-1.6626,-1.1623,-0.6328,1.9431,0.06,77,13.024,251,7.9464,-1.3205,-11.9639,0.6379,0.4912,-0.289,73,12.482,241,10.6408,1.6153,-13.1175,0.2318,-0.5308,-0.4071,39,82529.934,1595934,-3.6072,-2.953,-10.7005,0.0589,0.8579,1.7618,47
12.609,243,7.1399,-1.0076,-11.505,-0.17,0.058,-0.6047,75,12.873,248,-4.1808,-0.9435,-1.7803,-0.9617,1.9478,-0.0088,77,13.076,252,7.6866,-2.1238,-11.9367,1.1421,1.0368,0.1633,73,12.534,242,9.9722,1.914,-12.2973,0.5282,-0.5075,-0.3273,39,82529.986,1595935,-2.4749,-1.999,-10.1599,0.7042,0.058,1.3976,47
12.661,244,7.3142,-1.1086,-12.2997,-0.1353,0.0271,-0.6234,75,12.925,249,-0.9864,-2.2578,-1.1286,-0.0302,1.368,-0.5172,77,13.128,253,8.8882,-2.7219,-12.451,1.1789,1.4351,0.712,73,12.586,243,9.3677,2.112,-11.815,0.5376,-0.6051,-0.1816,39,82530.037,1595936,3.552,-6.7168,-8.0185,-0.1639,0.731,1.6957,47
12.712,245,9.6799,-0.0399,-12.9142,-0.2431,-0.6116,-0.1838,75,12.977,250,-1.1128,3.0588,-3.1654,-0.3995,1.5224,-0.6572,77,13.18,254,10.7136,-3.4415,-12.949,0.782,1.5075,1.1947,73,12.638,244,8.8373,2.5067,-11.5209,0.5265,-0.721,-0.0278,39,82530.089,1595937,3.5956,-5.615,-5.4523,-0.7975,1.2222,1.9133,47
12.764,246,10.3632,1.7411,-13.3862,-0.5373,-0.2831,0.4117,75,13.028,251,0.3306,4.2484,-10.2501,0.2248,0.4385,-1.1411,77,13.232,255,10.6917,-1.6799,-15.6039,-0.0313,1.7786,1.5497,73,12.689,245,8.877,2.1166,-11.3027,0.4866,-1.0521,0.0302,39,82530.141,1595938,3.6285,-4.8432,-3.5369,-1.2599,1.5807,2.0721,47
12.816,247,11.3053,2.1335,-13.7592,-1.0688,-0.2535,0.7296,75,13.08,252,0.1211,7.1017,-12.3905,-0.4852,-0.3527,-0.8406,77,13.284,256,8.9832,2.4385,-19.024,-0.6981,1.9747,1.6458,73,12.741,246,8.917,2.5885,-12.2993,0.5268,-1.413,0.0891,39,82530.193,1595939,3.6289,-4.3118,-2.1691,-1.5974,1.8423,2.188,47
12.868,248,10.5685,2.2211,-13.6583,-1.1743,-0.2554,0.6455,75,13.132,253,5.0083,8.4881,-14.1286,-1.0341,-0.9301,-0.0396,77,13.336,257,11.8221,-3.4573,-11.3005,0.167,0.7888,0.7703,73,12.793,247,10.3988,1.7221,-12.6785,0.7314,-1.6801,0.1185,39,82530.245,1595940,3.5961,-3.9436,-1.174,-1.8437,2.0333,2.2726,47
12.919,249,9.5939,1.5591,-13.2706,-1.431,-0.3058,0.5026,75,13.184,254,8.5751,1.7642,-8.9407,-0.8806,0.0003,0.0007,77,13.387,258,11.8287,-2.9127,-16.2525,-0.3669,0.0556,-0.0451,73,12.845,248,12.7068,-1.4452,-10.2334,1.2085,-1.893,0.0179,39,82530.296,1595941,3.5395,-3.6889,-0.4669,-2.0235,2.1726,2.3343,47
12.971,250,8.9398,0.447,-12.8702,-1.5309,-0.2304,0.3231,75,13.236,255,7.9827,0.4415,-6.2583,-0.7592,0.6458,-0.5161,77,13.439,259,12.8673,-3.3454,-11.9404,0.36,-0.5275,-0.4237,73,12.897,249,14.3913,3.0855,-11.711,0.6007,-2.0484,0.5475,39,82530.348,1595942,3.7431,-3.7314,1.5136,-2.1547,2.2743,2.3794,47
13.023,251,7.7542,0.0015,-12.5686,-1.7731,0.0692,0.2478,75,13.287,256,8.6104,-1.6178,-4.9172,-1.2341,1.1504,-0.6359,77,13.491,260,11.6314,-2.6716,-12.1049,-0.3173,-0.7376,-0.1021,73,12.948,250,12.2948,1.6604,-13.8368,-0.2386,-2.0968,0.8719,39,82530.4,1595943,8.0902,-4.2288,0.7346,-2.2505,2.3486,2.4123,47
13.075,252,6.5525,-0.7322,-12.8304,-1.9715,0.3211,0.2386,75,13.339,257,8.3836,-1.6272,-4.6264,-0.962,1.3826,-0.8495,77,13.542,261,11.0464,-3.1156,-12.6646,-0.1941,-0.8901,-0.1178,73,13.0,251,7.8196,4.293,-13.8441,0.0299,-0.9947,1.3167,39,82530.451,1595944,10.2657,-3.2568,0.2193,-2.3204,2.399,1.9332,47
13.127,253,6.2302,-1.4541,-12.8177,-2.1161,0.4431,0.2273,75,13.391,258,9.7323,-0.9835,-4.3659,-0.3222,1.6882,-1.2567,77,13.594,262,10.7241,-3.6456,-10.7087,-0.7109,-0.9474,-0.2158,73,13.052,252,6.9852,4.3586,-11.7594,-0.3435,-0.041,1.6413,39,82530.503,1595945,12.5317,-3.6896,-0.3429,-2.3714,2.3306,0.9055,47
13.178,254,6.2384,-1.7929,-12.6978,-2.1538,0.4973,0.3797,75,13.443,259,7.1608,3.3138,-3.3464,-0.6339,1.9112,-1.4164,77,13.646,263,9.8464,-1.8778,-11.5119,-0.8221,-0.931,-0.3932,73,13.104,253,6.9881,5.2076,-11.5593,-0.6427,0.6551,1.8783,39,82530.555,1595946,9.0982,-1.0301,-1.5876,-1.3413,2.3896,-0.0152,47
13.23,255,8.0004,-1.4841,-11.9125,-2.2493,0.5733,0.6529,75,13.495,260,3.4264,3.6255,-8.153,-0.5455,2.074,-1.7163,77,13.698,264,9.5955,-3.4612,-12.3191,-0.4608,-1.0184,-0.7314,73,13.156,254,7.8853,6.7588,-11.8353,-1.1462,1.163,1.8239,39,82530.607,1595947,6.8325,-0.0261,-3.1849,-0.5756,2.4327,-0.6872,47
13.282,256,9.1115,-2.7939,-12.2619,-2.2606,0.0011,0.6918,75,13.546,261,0.1247,0.8403,-11.8745,-0.5567,1.5508,-1.939,77,13.75,265,8.8102,-1.6254,-12.9466,-0.8818,-1.0013,-0.6171,73,13.208,255,8.5285,7.6583,-12.7935,-1.5136,1.5338,1.7219,39,82530.658,1595948,8.5327,0.7826,-10.35,-0.6436,1.1124,0.0933,47
13.333,257,11.0253,-2.2174,-11.6644,-1.9495,-0.0913,0.8749,75,13.598,262,-1.597,1.1132,-12.9755,-1.0545,0.4592,-2.1015,77,13.802,266,8.0128,-0.7932,-13.3568,-1.0177,-1.0795,-0.5201,73,13.259,256,10.1525,7.5285,-15.0129,-1.7818,1.8044,1.5607,39,82530.71,1595949,6.3729,1.1043,-8.739,-0.7908,0.1488,0.7255,47
13.385,258,10.6862,-2.3873,-11.3132,-2.1002,-0.0403,0.9889,75,13.65,263,3.7543,-0.3708,-6.8222,-1.4496,-0.3376,-2.115,77,13.854,267,10.0419,-0.7717,-14.3142,-1.2595,-1.1362,-0.326,73,13.311,257,9.3209,7.5793,-17.4176,-1.9775,1.464,1.2419,39,82530.762,1595950,4.81,1.3595,-7.4406,-0.926,-0.5545,1.2052,47
13.437,259,9.8225,-2.1154,-10.7195,-1.9109,-0.0098,0.8304,75,13.702,264,7.66,0.9162,-2.3314,-0.3863,0.4327,-1.6106,77,13.905,268,12.5947,-2.068,-13.6416,-1.5944,-1.5026,0.1927,73,13.363,258,9.3869,3.0542,-16.9787,-1.6915,0.9232,0.7131,39,82530.814,1595951,4.0159,1.2152,-5.7561,-1.0436,-1.0678,1.5553,47
13.489,260,9.1992,-1.4326,-10.3621,-2.072,-0.0168,0.6403,75,13.754,265,8.9894,0.6267,-3.982,-0.9285,0.9949,-1.8314,77,13.957,269,11.1293,-3.0305,-13.8482,-1.8389,-1.6911,0.3823,73,13.415,259,11.9682,7.5212,-12.7446,-0.7675,0.2904,0.319,39,82530.865,1595952,3.5541,1.1042,-5.5947,-0.862,-1.4424,1.5871,47
13.541,261,8.301,-1.6612,-10.3966,-2.185,0.2816,0.4268,75,13.806,266,6.6341,-1.3141,-3.5441,-1.3577,1.3187,-1.8968,77,14.009,270,8.7538,-1.2523,-14.5107,-2.0173,-1.0398,0.8898,73,13.466,260,11.1227,6.9491,-12.0692,-0.3911,-0.2266,-0.4381,39,82530.917,1595953,5.4759,0.9621,-8.4975,-0.526,-1.3758,0.7549,47
13.592,262,7.6269,-1.9772,-10.5382,-2.2277,0.3248,0.2057,75,13.857,267,3.7701,-2.4649,-2.2383,-1.6176,1.4574,-1.7443,77,14.061,271,8.0734,-1.5109,-12.0448,-2.0746,-0.6169,1.3271,73,13.518,261,10.8784,5.136,-11.8301,-0.8153,-0.5038,-0.3604,39,82530.969,1595954,7.1068,-1.8953,-11.5497,0.2339,-1.2961,0.5276,47
13.644,263,7.0323,-2.7967,-10.589,-2.0946,0.2181,0.0289,75,13.909,268,0.7879,-3.4822,-0.3761,-1.3653,1.7427,-1.1886,77,14.113,272,8.7609,0.1519,-11.9289,-1.2699,-0.255,1.6463,73,13.57,262,10.3878,3.4008,-11.9548,-0.5653,-0.5146,-0.3522,39,82531.021,1595955,8.045,-4.297,-12.425,0.8413,-1.0875,0.9022,47
13.696,264,6.7381,-3.1423,-10.5472,-1.8937,0.1983,-0.0725,75,13.961,269,1.2482,-0.4581,2.3188,-1.4347,1.951,-0.992,77,14.164,273,10.4912,2.6539,-11.6849,-0.8908,0.4917,1.8793,73,13.622,263,10.4086,0.1936,-12.3575,-0.5879,-0.4702,-0.3348,39,82531.073,1595956,7.581,-4.1016,-10.426,1.2879,-0.8058,1.3335,47
13.748,265,6.9329,-3.7043,-10.7001,-1.6968,0.084,-0.1251,75,14.013,270,-0.858,1.173,-1.3328,-0.9095,2.103,-0.9214,77,14.216,274,11.0091,3.4553,-10.5307,-1.3253,1.0372,2.0493,73,13.674,264,10.1904,0.8302,-11.936,-0.5535,-0.4197,-0.2704,39,82531.124,1595957,5.18,-2.8196,-9.4825,1.6138,-0.3735,1.6489,47
13.8,266,7.5184,-4.8485,-10.5722,-1.2804,-0.0242,-0.0838,75,14.065,271,-1.6042,3.9825,-7.8207,-0.2144,1.2487,-1.0581,77,14.268,275,11.2463,2.2606,-9.0552,-1.6425,1.4354,2.1734,73,13.725,265,9.6545,0.7422,-11.8702,-0.3275,-0.4771,-0.2444,39,82531.176,1595958,9.139,-7.3157,-7.6475,0.5,-0.9332,0.5826,47
13.852,267,10.5449,-3.3019,-10.8695,-0.9209,-0.314,0.6142,75,14.116,272,-1.3478,5.4695,-13.2178,0.4077,0.2457,-1.1184,77,14.32,276,11.1106,1.3269,-8.9523,-1.8732,1.7259,2.2539,73,13.777,266,9.0733,0.6493,-12.0074,-0.1635,-0.6122,-0.1039,39,82531.228,1595959,6.2728,-5.4323,-6.5711,-0.313,-1.3442,-0.2285,47
13.903,268,10.6651,0.176,-11.5722,-1.3495,0.4126,1.1249,75,14.168,273,-0.6144,6.6063,-15.1961,0.8562,-0.4934,-1.3952,77,14.372,277,10.7156,1.4711,-10.2513,-2.0424,1.938,2.3183,73,13.829,267,8.8138,0.5034,-12.2402,-0.1004,-0.7543,0.0903,39,82531.28,1595960,4.1584,-4.0653,-5.9538,-0.9063,-1.6441,-0.8425,47
13.955,269,11.5916,-0.3965,-11.7032,-1.6346,0.2473,1.3354,75,14.22,274,4.4715,5.4228,-9.8375,-0.0551,-1.0327,-1.4956,77,14.423,278,9.9581,0.5724,-12.0519,-2.1658,2.0789,1.846,73,13.881,268,9.0743,0.1645,-12.4382,-0.0908,-0.8361,0.309,39,82531.331,1595961,2.6404,-3.0853,-5.5109,-1.3393,-1.8631,-1.2909,47
14.007,270,11.1514,0.9134,-11.269,-1.1437,0.1276,1.1036,75,14.272,275,8.1834,0.5873,-6.8511,-0.2331,-0.0747,-0.6702,77,14.475,279,8.8329,-1.0236,-12.8948,-1.4444,0.8438,0.8156,73,13.932,269,9.911,-0.4046,-12.2322,-0.0845,-0.9878,0.5836,39,82531.383,1595962,1.9502,-1.3918,-6.8631,-1.6554,-2.0228,-1.6168,47
14.059,271,10.5747,0.5835,-10.904,-1.5115,0.3025,0.8609,75,14.324,276,8.0428,1.0832,-5.4623,0.2152,0.6246,-0.6904,77,14.527,280,8.8471,0.5709,-12.4675,-1.7294,0.2674,0.0067,73,13.984,270,12.3508,0.0046,-10.4173,-0.1178,-1.3868,1.0183,39,82531.435,1595963,0.9572,0.8889,-7.7221,-1.886,-2.1394,-1.8561,47
14.11,272,9.5871,-0.0205,-11.0431,-1.6998,0.5377,0.5621,75,14.375,277,9.0225,1.4967,-4.6266,-0.3588,1.0558,-0.6802,77,14.579,281,8.576,-0.6306,-12.9558,-1.5956,-0.2072,0.3413,73,14.036,271,12.1695,1.2386,-11.0545,-0.4441,-1.679,1.415,39,82531.487,1595964,0.9847,4.4707,-9.9773,-2.0544,-2.11,-1.7843,47
14.162,273,8.4426,-0.4776,-11.261,-1.8699,0.7364,0.3338,75,14.427,278,8.9662,1.0666,-4.2164,-0.9419,1.4496,-0.4592,77,14.631,282,8.1292,-1.3914,-13.6504,-1.4502,0.0837,0.7789,73,14.088,272,10.0193,1.9615,-12.993,-1.0012,-1.5976,1.7131,39,82531.539,1595965,1.8834,8.594,-11.8032,-2.1773,-1.6828,-1.6302,47
14.214,274,7.7553,-1.427,-11.2374,-1.7221,0.6431,0.1304,75,14.479,279,4.9848,0.5949,-4.344,-0.974,1.7371,-0.694,77,14.682,283,8.3336,-3.0126,-13.2445,-0.9545,0.3149,0.6082,73,14.14,273,8.3702,2.4111,-13.1716,-1.2888,-0.7691,1.9306,39,82531.59,1595966,4.0758,10.3742,-13.8751,-1.471,-1.2417,-1.1966,47
14.266,275,7.2933,-2.2004,-11.1339,-1.5081,0.744,-0.0816,75,14.531,280,1.2652,0.6086,-6.0874,-1.3501,1.9469,-0.9829,77,14.734,284,9.9994,-3.6119,-12.3445,-1.0248,0.1653,0.3669,73,14.191,274,8.2903,3.3403,-12.7222,-0.9312,0.1114,2.0894,39,82531.642,1595967,3.0119,9.9114,-14.9525,-0.3997,-0.8859,-0.2214,47
14.318,276,6.92,-2.901,-11.1784,-1.35,0.797,-0.1884,75,14.583,281,-0.8446,-4.1933,-4.3512,-1.6654,2.1,-0.8762,77,14.786,285,8.7229,-3.6525,-12.4353,-0.83,-0.0019,0.0988,73,14.243,275,8.0485,5.2327,-12.4453,-0.9783,0.7662,2.2053,39,82531.694,1595968,1.888,7.1518,-12.6432,0.3821,-0.5887,0.5141,47
14.369,277,7.4594,-3.4653,-11.2022,-1.1335,0.6676,-0.2873,75,14.634,282,-3.8101,-2.8146,-8.3478,-0.5437,1.811,-0.3666,77,14.837,286,8.1543,-3.447,-12.7271,-0.7246,-0.0224,-0.1032,73,14.295,276,7.6719,7.3028,-12.6156,-1.3911,1.2442,1.9038,39,82531.745,1595969,-3.8536,9.9966,-6.6642,0.0929,-0.093,0.3512,47
14.421,278,7.8412,-3.1389,-11.1699,-0.4626,0.1533,-0.1609,75,14.686,283,-4.1232,-1.0229,-13.4426,0.2749,0.979,-0.0732,77,14.889,287,8.1247,-2.8786,-12.9097,-0.5179,-0.1599,-0.2163,73,14.347,277,8.2181,8.7309,-12.3922,-1.6923,1.593,1.3617,39,82531.797,1595970,-2.7465,7.3345,-5.974,-0.6045,0.6208,0.2701,47
14.473,279,9.4018,-2.1216,-10.7029,-0.6361,0.1338,0.2459,75,14.738,284,-3.7027,1.0778,-15.9048,-0.3459,0.0419,-0.5283,77,14.941,288,8.5545,-3.027,-13.0375,-0.5463,-0.4806,-0.2091,73,14.399,278,9.3157,8.001,-12.6209,-1.9122,1.8476,0.9276,39,82531.849,1595971,-1.8983,5.3567,-5.8805,-1.1191,1.1417,0.2433,47
14.525,280,9.7212,-1.9486,-10.7018,-0.714,0.0007,0.3688,75,14.79,285,2.2175,2.1128,-10.8584,0.4193,-0.6421,-1.072,77,14.993,289,9.0424,-2.4052,-13.3048,-0.5185,-0.8699,-0.1602,73,14.45,279,10.663,9.0155,-13.6117,-1.0373,2.0334,0.3921,39,82531.901,1595972,-1.293,3.9158,-5.7377,-1.4946,1.5219,0.2246,47
14.576,281,9.6165,-1.0465,-10.5096,-0.4812,-0.0632,0.4016,75,14.842,286,6.5383,-3.7188,-8.2039,-0.3713,0.2096,-0.3792,77,15.045,290,11.8653,-2.7758,-12.2688,-0.8481,-1.2174,-0.0006,73,14.502,280,8.952,4.488,-17.9156,-0.1821,2.1691,-0.0279,39,82531.952,1595973,-0.8187,2.8751,-5.6976,-1.7687,1.7994,0.2118,47
14.628,282,9.109,-0.6735,-10.2329,-0.5717,-0.0428,0.3983,75,14.894,287,7.4471,-1.4553,-7.2961,-0.787,0.7059,-0.0123,77,15.096,291,13.9256,-2.8112,-12.6258,-1.2942,-1.428,0.4234,73,14.554,281,11.6509,7.3498,-10.474,-0.7986,0.9163,-0.1319,39,82532.004,1595974,2.2679,4.5473,-2.47,-1.8556,2.002,0.5503,47
14.68,283,8.6588,-0.3116,-10.0119,-0.5941,0.0733,0.3778,75,14.946,288,4.0329,0.9797,-5.7263,-0.4945,1.1943,0.125,77,15.148,292,12.8954,-4.062,-12.7052,-1.3696,-1.4648,0.2928,73,14.606,282,11.4508,5.0177,-9.8857,-0.6304,0.0848,-0.4856,39,82532.056,1595975,3.1233,6.4129,-1.8872,-1.6686,2.1498,0.8209,47
14.732,284,7.9383,-0.4443,-9.7576,-0.6911,0.3077,0.3501,75,14.997,289,2.026,0.9431,-5.2586,-1.0406,1.0447,0.1592,77,15.2,293,10.7503,-3.111,-11.3202,-1.4169,-1.0233,0.6579,73,14.657,283,10.5453,5.3804,-10.5469,-0.412,-0.454,-0.4168,39,82532.108,1595976,4.7381,7.3012,-2.4254,-0.9639,2.2572,0.9518,47
14.784,285,7.1033,-0.7788,-9.6986,-0.7899,0.48,0.3005,75,15.049,290,1.468,-4.5725,-5.6853,-1.4395,1.4415,0.7816,77,15.252,294,9.6385,-1.7375,-10.3427,-1.2907,-0.0685,1.0933,73,14.709,284,10.3729,4.3523,-11.1767,-0.0148,-0.5242,-0.4523,39,82532.159,1595977,4.6127,3.9568,0.7932,-0.4286,1.9476,0.8016,47
14.835,286,6.2396,-1.5774,-9.7955,-0.8321,0.6013,0.2451,75,15.101,291,1.0226,-0.9241,-11.7827,-0.3789,0.7151,1.1597,77,15.304,295,9.4668,-1.2097,-10.3595,-0.9043,0.6284,1.4304,73,14.761,285,10.2803,3.5257,-11.3613,0.018,-0.4833,-0.3752,39,82532.211,1595978,5.7826,2.0091,-1.4121,-0.9821,1.1169,1.246,47
14.887,287,7.0346,-2.3735,-10.0967,-0.8218,0.3327,0.1448,75,15.153,292,-1.0892,0.1183,-15.2998,-0.71,0.6116,1.3846,77,15.356,296,10.2178,-0.345,-10.5831,-0.3403,1.137,1.5044,73,14.813,286,10.0992,3.1905,-11.0244,0.2841,-0.5247,-0.2512,39,82532.263,1595979,-1.0111,-3.7915,-9.0562,-0.6431,1.2432,0.8764,47
14.939,288,9.2235,-3.8169,-11.0614,-0.2431,-0.2031,0.072,75,15.205,293,-4.5161,4.044,-16.172,0.1535,0.7833,0.4604,77,15.408,297,10.8787,-0.5295,-11.1145,-0.3354,1.5082,1.6247,73,14.865,287,9.4954,2.9565,-11.0501,0.2721,-0.637,-0.1284,39,82532.315,1595980,-0.4858,-2.7471,-8.5541,-1.1472,1.596,0.4239,47
14.991,289,10.384,-3.3059,-11.3199,-0.0864,-0.1802,0.3032,75,15.257,294,1.6238,1.3132,-9.1552,0.4388,-0.101,-0.3503,77,15.459,298,11.0443,-1.4349,-13.866,-0.1836,1.7791,1.6552,73,14.916,288,8.5734,2.7272,-11.269,0.2192,-0.8086,-0.0085,39,82532.366,1595981,-0.233,-1.8387,-7.6644,-1.5152,1.8535,0.098,47
15.043,290,10.6984,-2.551,-11.2006,-0.2228,-0.3186,0.5159,75,15.308,295,6.105,6.2853,-4.034,-0.2758,-0.7463,-0.8173,77,15.511,299,9.7569,0.4456,-16.7787,-0.5504,1.7884,1.5862,73,14.968,289,8.5467,2.6544,-11.5258,-0.0117,-0.9041,0.1481,39,82532.418,1595982,-0.0603,-1.1533,-6.9572,-1.7837,2.0414,-0.1367,47
15.094,291,10.276,-1.5382,-10.8297,0.1302,-0.157,0.4495,75,15.36,296,8.5362,2.8584,-2.707,0.0994,0.1135,-0.3108,77,15.563,300,7.575,1.6414,-19.708,-0.2933,0.7062,0.698,73,15.02,290,8.8283,2.0509,-11.4987,0.101,-1.1331,0.2603,39,82532.47,1595983,0.1476,-1.4307,-4.4019,-1.8053,2.1786,-0.0228,47
15.146,292,8.7674,-0.8379,-10.537,0.0051,-0.0727,0.3052,75,15.412,297,6.3898,0.3724,-3.9044,-0.2381,0.7619,0.4386,77,15.615,301,4.9307,1.2438,-21.2985,0.2845,-0.0142,0.2605,73,15.072,291,11.0528,1.1029,-11.9257,0.1401,-1.4938,0.3468,39,82532.522,1595984,-0.863,-0.7096,-4.4507,-1.7779,2.2786,-0.2201,47
15.198,293,7.9061,-0.9316,-10.4672,0.2308,-0.0804,0.0346,75,15.464,298,2.5024,0.3205,-4.4599,0.0195,0.7712,0.9855,77,15.667,302,7.6159,0.2554,-17.4741,-0.3196,-0.3459,0.5352,73,15.124,292,13.1841,0.5019,-10.1821,0.5396,-1.757,0.329,39,82532.574,1595985,-4.0189,-0.9103,-4.3243,-1.2703,1.9725,-0.3881,47
15.25,294,7.5303,-0.7832,-10.5603,0.2613,0.0474,-0.1612,75,15.516,299,-1.5415,0.8208,-3.8914,-0.0295,0.827,1.058,77,15.718,303,8.1181,-0.4467,-15.8587,0.2511,-0.2885,0.1705,73,15.175,293,12.3071,2.722,-10.9324,0.1204,-1.8943,0.5815,39,82532.625,1595986,-6.7083,-4.3218,-4.9227,-0.9487,2.1009,-0.9593,47
15.301,295,7.3933,-1.2105,-10.8556,0.0991,0.2449,-0.1578,75,15.567,300,-3.8057,1.9759,-3.4161,-0.2839,0.6613,0.7844,77,15.77,304,8.4292,-1.6088,-14.7137,0.2038,-0.0916,0.0461,73,15.227,294,10.799,1.3844,-11.928,-0.5551,-1.5538,0.6479,39,82532.677,1595987,-6.9227,-6.6496,-4.3548,-1.3703,2.222,-1.3762,47
15.353,296,8.2261,-1.4576,-11.1838,-0.1993,0.486,-0.0451,75,15.619,301,-4.3283,4.0044,-4.9539,-0.1085,0.4971,0.3621,77,15.822,305,8.6308,-0.3772,-13.7299,0.2895,-0.228,-0.0619,73,15.279,295,9.491,1.2431,-10.0057,-0.5425,-0.5327,0.7099,39,82532.729,1595988,-6.0484,-3.3052,-4.2505,-1.678,2.3104,-1.6805,47
15.405,297,8.032,-2.1706,-11.1116,-0.4421,0.8128,-0.0841,75,15.671,302,-2.9384,5.5073,-11.5554,-0.7364,-0.2939,-0.4221,77,15.874,306,8.8505,-0.7061,-12.9022,0.3296,-0.3659,-0.1569,73,15.33,296,8.2508,1.8174,-10.0595,-0.3723,0.2962,0.6605,39,82532.781,1595989,-5.5343,-0.8548,-4.0743,-1.9025,2.3749,-1.9025,47
15.457,298,9.107,-2.6421,-11.1028,-0.0557,0.2617,-0.0656,75,15.723,303,-7.8146,1.5456,-9.2916,-0.5988,0.4646,-0.6819,77,15.926,307,9.6032,-1.3582,-11.4098,0.05,-0.8111,-0.3474,73,15.382,297,7.7327,1.6399,-10.5808,-0.2363,0.9011,0.4038,39,82532.832,1595990,-5.2651,-0.7905,-4.1303,-2.0664,1.0702,-2.0646,47
15.509,299,9.1672,-2.4294,-10.7965,-0.4579,0.3828,0.0389,75,15.775,304,-1.4495,2.3588,-5.1128,-0.4653,-0.3336,-1.1798,77,15.977,308,9.4007,-1.3759,-11.501,-0.2025,-1.2654,-0.4021,73,15.434,298,7.7167,1.6438,-11.9012,-0.2769,1.3427,-0.0415,39,82532.884,1595991,-4.928,-0.8946,-3.314,-2.186,0.118,-2.1829,47
15.56,300,8.7237,-2.8738,-10.2458,-0.3263,0.1063,-0.036,75,15.826,305,3.862,0.1818,-11.6714,-1.0196,-0.9162,-0.5128,77,16.029,309,9.7765,-1.7625,-11.2297,-0.3872,-1.5969,-0.2774,73,15.486,299,7.621,1.1927,-15.1912,-0.4151,1.6649,-0.3402,39,82532.936,1595992,-4.6351,-1.0324,-2.7979,-2.2733,-0.577,-2.2692,47
15.612,301,8.5995,-1.98,-9.8062,-0.0951,0.0406,-0.0425,75,15.878,306,7.7385,-1.8358,-10.8659,-0.0724,0.0104,-0.5683,77,16.081,310,12.4011,-1.6003,-11.0389,-0.4894,-1.376,-0.1049,73,15.538,300,10.6795,3.9019,-15.1559,-0.5453,1.5458,-0.5602,39,82532.988,1595993,-4.4134,-1.1636,-2.4338,-2.3371,-1.0842,-2.3322,47
15.664,302,8.2617,-1.93,-9.7109,-0.3894,0.1445,0.0467,75,15.93,307,6.8834,-2.2657,-8.9188,0.0211,0.6867,-0.6654,77,16.132,311,11.0036,-2.411,-7.9166,-1.0324,-1.6777,-0.4618,73,15.589,301,8.7263,-2.449,-8.4537,-0.9995,0.5434,0.1905,39,82533.039,1595994,-4.2268,-1.2983,-2.1897,-2.3836,-1.4544,-2.3782,47
15.716,303,7.6439,-1.7472,-9.5291,-0.3907,0.2242,0.0104,75,15.982,308,6.0443,-4.3424,-8.3389,0.0936,1.1803,-0.1209,77,16.184,312,7.8577,-3.5477,-7.5852,-0.5513,-1.1665,-0.3809,73,15.641,302,10.366,-5.7293,-9.9723,-1.0993,0.0427,0.1919,39,82533.091,1595995,-4.082,-1.419,-2.0258,-2.4175,-1.7246,-2.4118,47
15.767,304,6.8203,-1.793,-9.2964,-0.1818,0.1086,-0.1643,75,16.034,309,3.6832,-4.262,-7.3405,0.6023,1.4932,0.2417,77,16.236,313,7.6389,-2.5564,-8.5719,-0.5262,-0.2128,-0.0141,73,15.693,303,10.7243,-4.5161,-10.177,-0.7912,-0.2983,-0.0454,39,82533.143,1595996,-8.2107,0.7072,0.336,-2.4423,-1.5934,-2.1519,47
15.819,305,6.1192,-2.3108,-9.0204,0.1314,-0.0494,-0.2517,75,16.085,310,6.3669,-2.7577,-4.8105,0.7799,1.7689,0.7358,77,16.288,314,8.0218,-2.2991,-8.7864,-0.2371,0.523,0.2117,73,15.745,304,10.278,-2.7122,-10.5046,-0.4372,-0.3549,-0.2216,39,82533.195,1595997,-11.2241,5.2029,0.5372,-2.3523,-0.4742,-2.2215,47
15.871,306,6.7471,-2.2983,-9.1882,0.123,0.1109,-0.1329,75,16.137,311,3.306,-1.8539,-11.1377,0.6078,1.573,0.9883,77,16.34,315,8.5224,-2.1371,-9.5976,-0.1341,1.0601,0.4578,73,15.796,305,9.9002,-1.4605,-10.8992,-0.2999,-0.3951,-0.0556,39,82533.246,1595998,-8.1178,4.2268,-1.4259,-1.8495,0.3425,-2.2942,47
15.923,307,7.5848,-3.8459,-9.2674,-0.0188,0.1419,-0.028,75,16.189,312,3.4674,-0.6028,-14.6413,0.5097,0.8491,0.8286,77,16.391,316,9.3205,-2.0043,-10.259,0.305,1.4521,0.6411,73,15.848,306,9.5013,-0.5868,-11.1356,-0.2306,-0.5272,0.0333,39,82533.298,1595999,-0.5663,8.416,-9.0663,-1.8441,0.7177,-2.3496,47
15.975,308,8.5255,-3.3315,-10.0688,0.452,-0.0983,0.1228,75,16.241,313,-0.9132,1.4338,-18.4074,0.0018,1.2988,0.5621,77,16.443,317,10.4047,-2.1825,-11.3878,0.6679,1.7381,0.8465,73,15.9,307,9.1995,-0.269,-11.3257,-0.0256,-0.6486,0.0128,39,82533.35,1596000,0.154,5.5975,-9.5694,-1.2492,-0.1393,-2.3909,47
16.026,309,9.2118,-3.2826,-10.4453,0.3218,-0.3038,0.2338,75,16.293,314,4.2534,-4.2144,-10.7867,-0.6787,0.2753,-0.2761,77,16.495,318,10.2828,-2.215,-13.4497,1.164,1.9152,0.7708,73,15.952,308,8.5232,0.3565,-11.6933,0.0697,-0.825,0.0485,39,82533.402,1596001,0.2493,3.8284,-9.4042,-0.795,-0.7647,-2.4211,47
16.078,310,9.8287,-2.6667,-11.0148,0.8623,-0.5995,0.1513,75,16.344,315,8.0242,-6.2428,-5.2248,-0.1398,0.4999,-0.5789,77,16.547,319,8.6934,-1.9518,-16.0366,1.1636,1.4111,0.6513,73,16.004,309,8.3997,0.8975,-12.1096,0.0625,-1.0073,0.1136,39,82533.453,1596002,0.3313,2.5261,-9.2821,-0.4468,-1.2212,-2.4431,47
16.13,311,10.3003,-1.5987,-11.2487,0.7978,-0.4522,0.1761,75,16.396,316,10.7763,-5.7584,-4.3773,0.5697,1.044,0.0118,77,16.599,320,9.3348,-0.3998,-14.9812,0.7434,0.3565,0.4578,73,16.056,310,8.6299,0.7616,-12.451,0.0516,-1.2507,0.224,39,82533.505,1596003,1.1045,0.4992,-8.6015,0.0927,-1.5544,-2.4591,47
16.182,312,9.3186,-1.0165,-11.2084,0.716,-0.1768,0.0925,75,16.448,317,9.6935,-5.7035,-5.3069,1.0712,1.4409,0.5809,77,16.651,321,12.0787,4.4129,-8.3499,-0.1216,0.6006,0.9277,73,16.107,311,9.5642,0.8891,-12.9644,0.2786,-1.4867,0.2172,39,82533.557,1596004,1.3974,-0.4562,-7.8891,0.4991,-1.796,-2.4708,47
16.234,313,8.2172,-0.8212,-11.0637,0.8743,-0.256,-0.1294,75,16.5,318,4.697,-4.9547,-5.7673,1.0628,1.6717,0.9586,77,16.703,322,11.8408,3.585,-9.6675,-0.2669,0.5241,0.5181,73,16.159,312,11.9569,1.3953,-13.0649,0.5588,-1.7201,0.1749,39,82533.609,1596005,1.1875,-3.1394,-5.3213,0.8255,-1.3041,-2.232,47
16.285,314,7.9727,-0.8179,-11.1645,1.0301,-0.3065,-0.2951,75,16.552,319,-0.4316,-4.3739,-5.1507,0.8377,1.2782,1.2484,77,16.754,323,11.6571,1.7667,-10.0988,0.029,0.0387,0.1964,73,16.211,313,11.7445,1.8569,-14.3441,0.4526,-1.8661,0.2686,39,82533.66,1596006,3.0829,-5.5064,-2.4587,1.1259,-0.5018,-1.5642,47
16.337,315,7.9923,-0.4935,-11.5804,0.7729,0.0337,-0.1601,75,16.604,320,-1.762,-2.0911,-4.6174,0.198,0.9294,1.2336,77,16.806,324,10.815,0.3358,-11.1245,0.1085,0.0361,0.1032,73,16.263,314,11.8416,0.534,-12.4264,0.3468,-1.7476,0.1298,39,82533.712,1596007,2.2118,-4.0654,-4.1983,1.4898,0.1728,-0.9804,47
16.389,316,8.1319,-0.6801,-11.7713,0.3544,0.2996,0.0231,75,16.655,321,-1.1194,-1.2344,-7.6096,-0.3736,0.6377,1.1175,77,16.858,325,10.0978,0.3387,-11.363,0.3825,0.2597,-0.0546,73,16.314,315,10.6579,0.3705,-11.6345,0.0396,-0.692,-0.1405,39,82533.764,1596008,1.5901,-2.9433,-5.5979,1.7573,0.6617,-0.5524,47
16.441,317,8.1273,-1.7605,-11.6948,0.3415,0.1904,0.0971,75,16.707,322,-2.9117,0.6113,-13.4936,0.0295,1.089,0.8705,77,16.909,326,10.3247,-0.6044,-10.4868,0.4485,0.5165,-0.097,73,16.366,316,9.8625,-0.555,-11.6918,-0.0303,0.1799,-0.3114,39,82533.816,1596009,6.5189,2.8969,-12.1111,1.9345,0.7075,-0.3487,47
16.493,318,9.2958,-1.9461,-11.1902,0.148,0.1088,0.2178,75,16.759,323,-1.1014,1.4296,-13.5993,0.0452,0.1222,-0.051,77,16.961,327,9.9247,-0.9453,-10.2622,0.3649,0.2804,-0.051,73,16.418,317,9.4011,-1.1492,-12.208,0.6487,0.8163,-0.5044,39,82533.867,1596010,4.4646,2.0334,-9.9768,1.4492,-0.1467,-0.4413,47
16.544,319,8.6941,-2.37,-10.7064,0.0689,0.0445,0.1484,75,16.811,324,4.116,-2.3492,-8.4555,0.6197,-0.5835,-0.7236,77,17.013,328,8.4517,-2.0773,-8.8975,0.1866,0.214,-0.118,73,16.47,318,9.3883,-1.2341,-13.0082,1.1322,1.2807,-0.7028,39,82533.919,1596011,3.3023,1.4228,-9.1053,1.1004,-0.7702,-0.5098,47
16.596,320,8.4704,-2.6678,-10.1335,0.1486,-0.1474,0.043,75,16.863,325,7.9239,-0.9095,-5.1985,1.0087,0.2532,0.084,77,17.065,329,8.7303,-2.0143,-10.1079,-0.4436,-0.5172,-0.3357,73,16.522,319,8.7203,-1.4444,-15.2823,1.2359,1.6197,-0.8071,39,82533.971,1596012,2.4578,0.964,-8.477,0.8506,-1.2252,-0.5604,47
16.648,321,8.1943,-2.7309,-9.7471,0.2845,-0.2416,-0.0015,75,16.914,326,6.5844,-0.6616,-4.1853,0.7704,0.8639,0.0806,77,17.117,330,11.6144,-1.4843,-10.263,-0.4938,-0.8079,-0.4307,73,16.573,320,9.5651,2.6312,-19.1349,1.0879,1.6315,-0.6264,39,82534.023,1596013,1.8392,0.6282,-8.0164,0.6727,-1.5573,-0.5978,47
16.7,322,8.2168,-2.4706,-9.5895,0.2614,-0.2735,0.0798,75,16.966,327,4.403,-2.6922,-3.4397,-0.1177,1.3096,0.3514,77,17.168,331,13.1144,-2.06,-9.8984,-0.9542,-0.656,-0.5134,73,16.625,321,7.1838,2.4451,-19.9117,0.8186,0.828,-0.368,39,82534.075,1596014,0.7281,0.3403,-5.0338,0.5511,-1.7997,-0.6308,47
16.752,323,7.7906,-2.3842,-9.6236,0.1718,-0.1653,0.0935,75,17.018,328,1.7586,-3.3062,-3.2378,-0.5254,1.6349,0.584,77,17.22,332,10.386,-1.832,-11.0462,-0.7014,-0.4961,-0.4692,73,16.677,322,8.5548,0.6214,-17.3297,0.8607,0.2623,-0.416,39,82534.127,1596015,4.8275,0.5159,-6.8976,0.2828,-1.48,-0.5179,47
16.803,324,7.7122,-2.4544,-9.7006,0.1879,-0.1028,0.0972,75,17.07,329,0.3481,-2.2138,-2.5574,-0.7018,1.756,0.6898,77,17.272,333,7.652,-2.3097,-11.8814,-0.6826,0.2242,-0.4316,73,16.729,323,8.88,0.4727,-15.9341,0.7401,0.002,-0.467,39,82534.178,1596016,8.8817,-0.5785,-5.941,0.4804,-0.5859,-0.0605,47
16.855,325,7.6966,-2.5592,-9.8314,0.0019,0.0689,0.2035,75,17.122,330,3.9099,-4.7406,0.7813,-0.5169,1.9241,0.8764,77,17.324,334,7.4797,-2.6354,-11.0235,-0.1725,0.7494,-0.1973,73,16.78,324,8.8589,0.7514,-14.8239,0.7014,0.0126,-0.521,39,82534.23,1596017,5.9155,-1.2612,-4.4737,0.8259,0.2611,0.5756,47
16.907,326,7.8424,-2.871,-9.9884,-0.2103,0.141,0.3525,75,17.173,331,2.4743,-3.3945,-5.3997,-0.2621,0.9669,0.6031,77,17.376,335,7.8293,-2.7206,-11.1578,0.4418,1.223,0.0332,73,16.832,325,8.8611,1.2041,-13.7783,0.6571,0.0071,-0.4629,39,82534.282,1596018,4.0592,-1.188,-4.7014,1.1412,0.8792,1.0942,47
16.958,327,7.9942,-2.9657,-9.9022,-0.2824,0.1385,0.3791,75,17.225,332,4.4831,-2.1337,-10.1643,-0.2467,0.8535,0.7372,77,17.427,336,8.8401,-2.6648,-11.4006,0.9322,1.5573,0.2474,73,16.884,326,8.698,1.4746,-13.0104,0.6478,-0.0069,-0.3515,39,82534.333,1596019,0.6127,-1.541,-10.9282,0.3097,-0.0214,0.334,47
17.01,328,7.7664,-3.5004,-9.5639,-0.1647,-0.0412,0.1637,75,17.277,333,2.9564,-0.2456,-13.6136,-0.2448,0.24,0.6249,77,17.479,337,9.7541,-2.4353,-12.1355,1.197,1.8112,0.3764,73,16.936,327,8.5646,1.7026,-12.4297,0.5362,-0.0635,-0.258,39,82534.385,1596020,0.279,-1.3887,-9.9314,-0.3255,-0.6787,-0.4238,47
17.062,329,8.4467,-3.8616,-9.6141,0.3084,-0.3269,-0.0195,75,17.329,334,2.6173,-0.9657,-11.7326,-0.6035,-0.4975,-0.1398,77,17.531,338,10.6279,-1.8644,-13.4526,1.2718,1.7951,0.5188,73,16.988,328,8.5621,1.8407,-11.9134,0.4605,-0.2256,-0.117,39,82534.437,1596021,0.0778,-1.2866,-9.3564,-0.7699,-1.1584,-0.9854,47
17.114,330,8.6677,-3.5542,-9.7762,0.2713,-0.0843,-0.027,75,17.381,335,5.2847,-5.9656,-5.9151,0.2077,-1.0358,-0.7884,77,17.583,339,9.9433,-1.8429,-15.0876,0.9612,1.4858,0.5838,73,17.039,329,8.6117,1.9288,-11.9471,0.3674,-0.4889,0.0545,39,82534.489,1596022,-0.0576,-1.2303,-8.9375,-1.0776,-1.5086,-1.3952,47
17.166,331,8.6025,-4.0484,-10.1516,0.4576,-0.3027,-0.0208,75,17.432,336,8.7769,0.9729,-2.9076,-0.228,-0.1286,-0.0775,77,17.635,340,9.06,-0.3791,-15.647,0.2013,0.6873,0.5071,73,17.091,330,8.7432,2.1005,-12.0771,0.2513,-0.7229,0.2139,39,82534.54,1596023,1.2108,-0.3826,-10.0011,-1.418,-1.7641,-1.6944,47
17.217,332,9.3501,-3.5556,-10.4208,0.795,-0.3692,-0.0602,75,17.484,337,9.5179,-2.3024,-2.1346,0.1311,0.5835,0.2843,77,17.686,341,10.2803,-3.5652,-14.2329,0.6869,0.4828,0.1085,73,17.143,331,8.7419,2.027,-12.3518,0.2461,-0.9772,0.306,39,82534.592,1596024,0.8823,-0.5222,-9.4907,-1.5587,-1.9506,-1.9127,47
17.269,333,8.8794,-3.1992,-10.5809,0.7112,-0.1869,-0.0586,75,17.536,338,9.4305,-2.8724,-2.8009,0.0111,1.1049,0.6956,77,17.738,342,9.3472,-1.5652,-17.5235,0.7608,-0.3211,0.0651,73,17.195,332,10.295,1.7082,-12.3542,0.3596,-1.2386,0.3298,39,82534.644,1596025,1.4113,0.2088,-10.0753,-1.5544,-1.8747,-1.7668,47
17.321,334,8.3512,-2.9033,-10.5358,0.8416,-0.2848,-0.1281,75,17.588,339,8.7984,-3.9143,-3.1203,0.1236,1.2483,1.0761,77,17.79,343,9.768,-1.7616,-15.228,0.6155,-0.4244,-0.142,73,17.246,333,11.9096,1.7236,-11.8171,0.5467,-1.5708,0.3645,39,82534.696,1596026,2.5298,1.9845,-11.6863,-1.5103,-1.2186,-1.0489,47
17.373,335,7.7734,-2.4206,-10.3472,1.0973,-0.3843,-0.2641,75,17.64,340,6.4638,-2.9106,-4.2963,0.6691,1.5848,1.426,77,17.842,344,9.8898,-1.6897,-13.9646,0.4102,-0.7298,-0.1313,73,17.298,334,10.9737,2.4549,-13.3656,0.4469,-1.7611,0.4778,39,82534.747,1596027,5.7574,3.6452,-12.0819,-1.3651,-0.4802,-0.207,47
17.425,336,7.0733,-1.9873,-10.2604,1.2834,-0.3805,-0.3219,75,17.691,341,4.2709,-3.0617,-4.7435,-0.1917,1.7779,1.7062,77,17.893,345,9.5303,-1.7895,-12.4536,0.7292,-0.2176,-0.0684,73,17.35,335,11.0322,1.0052,-12.5558,0.0846,-1.7171,0.4366,39,82534.799,1596028,6.6557,1.2932,-9.96,-1.1529,0.3382,0.5246,47
17.476,337,7.2285,-1.6753,-10.5675,1.2714,-0.3547,-0.2767,75,17.743,342,0.9774,-0.4212,-7.8434,0.5318,1.9205,1.9086,77,17.945,346,9.4818,-1.8188,-12.4696,0.5066,-0.3384,-0.0927,73,17.402,336,8.9663,1.067,-11.6658,0.0523,-0.7996,0.2839,39,82534.851,1596029,4.897,0.3642,-9.3908,-0.9918,0.9355,1.0586,47
17.528,338,7.412,-1.9248,-11.2127,0.9736,0.2181,-0.1458,75,17.795,343,-0.9576,2.2334,-11.4829,1.0046,1.0859,2.0113,77,17.997,347,9.2431,-0.9921,-12.6976,0.5286,-0.2408,-0.1289,73,17.454,337,8.2189,0.647,-11.3835,-0.1504,0.1013,0.1815,39,82534.903,1596030,8.9324,-2.2104,-14.4325,-0.627,0.1795,0.9003,47
17.58,339,8.8869,-3.0518,-11.1131,1.1088,-0.1382,0.0194,75,17.847,344,-0.1485,1.0213,-12.6874,0.7653,0.1198,1.3222,77,18.049,348,9.2783,-0.8062,-12.4835,0.398,-0.3751,-0.1391,73,17.506,338,8.2551,0.3033,-11.6499,0.1696,0.7589,0.0194,39,82534.954,1596031,6.5835,-1.4889,-12.7652,-0.6394,-0.532,1.092,47
17.632,340,9.742,-1.7023,-10.6665,0.8632,-0.0302,0.3011,75,17.899,345,-1.1226,0.7776,-12.9619,-0.1214,-0.5852,0.3434,77,18.101,349,9.7746,-1.074,-12.6219,0.3513,-0.514,-0.1491,73,17.557,339,8.7972,0.5209,-13.119,0.6734,1.2388,-0.2981,39,82535.006,1596032,4.8546,-0.9324,-11.5004,-0.6555,-1.0514,1.234,47
17.683,341,9.471,-2.0274,-10.1806,0.4572,0.0567,0.309,75,17.95,346,4.1006,-4.1984,-8.0648,-0.3987,-1.0998,-0.4357,77,18.153,350,10.6007,0.1307,-14.3894,0.0679,-0.9196,-0.2551,73,17.609,340,9.0167,-0.0815,-15.5073,0.8355,1.5891,-0.5657,39,82535.058,1596033,3.617,-0.5191,-10.6003,-0.6737,-1.4304,1.3384,47
17.735,342,8.9511,-2.0879,-9.726,0.6519,0.0178,0.1225,75,18.002,347,7.9127,-3.5132,-5.6803,0.3808,-0.2336,-0.4337,77,18.204,351,13.0026,-0.8822,-13.5793,-0.3386,-0.8953,-0.0626,73,17.661,341,11.6981,-3.4428,-16.8662,0.9641,0.8808,-0.2263,39,82535.11,1596034,3.1404,-0.6931,-10.7266,-0.5749,-1.606,1.3627,47
17.787,343,8.6885,-1.9237,-9.3294,0.6371,-0.0667,-0.0534,75,18.054,348,8.6491,-3.5786,-4.9228,0.2206,0.5086,-0.3405,77,18.256,352,11.9058,-0.3033,-12.5172,-0.3799,-1.3268,-0.3741,73,17.713,342,10.2487,-1.9247,-17.1667,0.0427,0.3729,-0.0848,39,82535.161,1596035,3.9962,-0.7204,-11.9635,-0.4722,-1.2679,1.5039,47
17.839,344,8.1885,-1.9774,-9.1517,0.5763,-0.0443,-0.1813,75,18.106,349,8.8722,-4.8008,-3.8739,0.3885,0.8622,-0.1868,77,18.308,353,10.2316,-0.5867,-11.4832,0.2131,-1.1904,-0.4925,73,17.764,343,9.8858,-0.1728,-15.676,0.4291,0.0876,-0.141,39,82535.213,1596036,4.3581,-0.4947,-12.4432,-0.4682,-1.4411,1.5693,47
17.891,345,7.3885,-2.02,-9.082,0.6297,-0.174,-0.3299,75,18.158,350,8.5773,-4.8175,-3.6389,0.5684,1.2985,0.3307,77,18.36,354,9.4065,-0.1576,-10.9425,0.2608,-0.4742,-0.5887,73,17.816,344,9.7712,0.0367,-14.7121,0.2818,-0.1443,-0.0478,39,82535.265,1596037,3.6095,-0.9009,-13.2433,-0.606,-1.5273,1.5099,47
17.942,346,7.059,-1.9274,-9.0053,0.8381,-0.3438,-0.4771,75,18.209,351,6.2047,-2.4451,-3.3884,0.9658,1.6268,0.6536,77,18.412,355,8.8824,-0.4983,-11.9531,0.6462,0.3323,-0.7073,73,17.868,345,9.6919,0.519,-13.9023,0.2409,-0.1299,0.0476,39,82535.317,1596038,4.9351,-2.0513,-15.0607,-0.5223,-0.9996,1.0967,47
17.994,347,6.6838,-2.2867,-9.1247,0.9757,-0.502,-0.5252,75,18.261,352,2.7188,0.0294,-3.0502,0.18,1.8664,0.568,77,18.463,356,9.044,-0.6272,-12.1667,0.9781,0.91,-0.7324,73,17.92,346,9.487,0.5634,-13.2334,0.1989,0.0163,0.0633,39,82535.368,1596039,3.6567,-1.5256,-12.8486,0.1774,-0.5103,0.4966,47
18.046,348,7.4359,-2.3697,-9.5464,1.052,-0.4902,-0.3694,75,18.313,353,0.1628,1.0665,-3.6792,0.3495,2.0412,0.6944,77,18.515,357,8.9297,-0.9033,-12.6446,1.337,1.2718,-0.7071,73,17.972,347,9.398,0.6584,-12.486,0.1632,0.1372,0.0469,39,82535.42,1596040,2.7288,-1.0085,-11.5864,0.8033,0.037,0.096,47
18.098,349,7.7551,-2.9175,-9.9456,0.788,-0.4014,-0.0518,75,18.365,354,-0.6609,1.9388,-10.6248,0.2435,1.4805,0.5892,77,18.567,358,8.8073,-0.9478,-12.7509,1.6523,1.3767,-0.6914,73,18.023,348,9.1982,0.7875,-12.0014,0.1939,0.2075,0.0561,39,82535.472,1596041,-3.2399,4.595,-5.8928,0.2062,-0.3,-0.0446,47
18.149,350,9.0539,-3.352,-10.4947,0.944,-0.6457,0.2802,75,18.417,355,-0.1762,2.1158,-15.6942,-0.4908,1.0128,0.6263,77,18.619,359,8.6847,-1.3907,-13.1373,1.8825,1.311,-0.6347,73,18.075,349,9.0623,0.7775,-11.4985,0.2002,0.224,0.1238,39,82535.524,1596042,-2.3337,3.3293,-6.6602,-0.3493,-0.4727,0.1991,47
18.201,351,9.7456,-2.6617,-10.9587,1.0992,-0.473,0.4618,75,18.468,356,1.8765,0.0468,-14.4567,-1.0382,0.0665,-0.0918,77,18.671,360,8.5288,-1.9075,-13.3833,2.0504,1.0938,-0.54,73,18.127,350,8.9281,1.0863,-11.1445,0.2529,0.1118,0.2307,39,82535.576,1596043,-1.6315,2.4531,-7.379,-0.7533,-0.5961,0.377,47
18.253,352,8.9343,-1.609,-11.3232,0.9369,-0.3392,0.4807,75,18.52,357,5.4314,-3.1065,-9.1311,-0.3466,-0.6241,-0.7533,77,18.722,361,10.8207,-1.1206,-12.9717,1.8739,1.0198,-0.4724,73,18.179,351,8.9198,0.7178,-10.8917,0.2799,-0.0018,0.3537,39,82535.627,1596044,-1.1144,1.8213,-7.9068,-1.0477,-0.6851,0.507,47
18.305,353,9.0111,-1.7823,-11.5436,0.9723,-0.568,0.1856,75,18.572,358,8.884,-0.0148,-5.5714,0.3198,-0.0211,-0.2285,77,18.774,362,11.6463,-2.2739,-11.0222,0.9412,0.8235,-0.0641,73,18.23,352,9.0542,0.5995,-10.8095,0.2816,-0.1299,0.4738,39,82535.679,1596045,-0.1077,1.3312,-8.5823,-1.2712,-0.7631,0.602,47
18.357,354,9.0843,-1.6761,-11.7588,1.1965,-0.5762,-0.1003,75,18.624,359,10.5198,-1.2501,-4.5774,0.7627,0.6637,-0.0611,77,18.826,363,11.4973,0.1718,-9.6631,0.5559,0.49,0.267,73,18.282,353,9.3744,0.6563,-10.9912,0.2337,-0.239,0.6118,39,82535.731,1596046,0.1986,0.6441,-9.4945,-1.6057,-0.865,0.6063,47
18.408,355,9.1999,-1.8851,-11.8671,0.8584,-0.3006,-0.272,75,18.676,360,9.9447,-2.6891,-4.7322,0.5207,1.1635,0.2269,77,18.878,364,11.4953,-0.6312,-10.2308,0.3474,0.371,0.4889,73,18.334,354,9.7105,0.1142,-10.9536,0.278,-0.1085,0.6825,39,82535.783,1596047,0.1903,0.1849,-10.0502,-1.8498,-0.9784,0.4462,47
18.46,356,8.762,-1.8908,-11.9042,0.5276,-0.0212,-0.3394,75,18.727,361,8.3199,-3.2197,-4.9323,0.3816,1.5282,0.5969,77,18.93,365,11.0024,-1.5308,-10.2625,0.1905,0.2895,0.4775,73,18.386,355,10.002,-0.1155,-10.8195,0.4301,-0.0037,0.7046,39,82535.834,1596048,-0.588,1.9795,-15.2475,-2.0166,-0.7031,0.334,47
18.512,357,8.2059,-2.0556,-11.7807,0.3549,0.054,-0.3862,75,18.779,362,5.7395,-3.244,-5.1358,0.5024,1.5914,0.8705,77,18.981,366,10.657,-1.4165,-10.0928,0.182,0.2718,0.468,73,18.437,356,9.8987,0.6944,-11.5946,0.9804,-0.1298,0.5015,39,82535.886,1596049,1.148,1.1583,-18.0644,-1.5252,0.1692,0.3753,47
18.564,358,7.825,-1.9426,-11.6742,0.4266,0.0157,-0.3814,75,18.831,363,4.4445,-1.2353,-3.6497,-0.1639,1.8301,1.1491,77,19.033,367,10.3476,-1.5832,-9.9993,0.108,0.1684,0.4385,73,18.489,357,9.5709,0.6886,-11.5428,1.3902,-0.3347,0.0579,39,82535.938,1596050,1.9146,0.4366,-16.5491,-0.4749,0.8122,0.4832,47
18.616,359,8.467,-1.595,-11.6449,0.3685,0.0386,-0.3771,75,18.883,364,0.6892,-3.6911,-3.2119,-0.1406,2.0147,1.1967,77,19.085,368,10.0681,-1.602,-9.8786,0.1422,0.0937,0.4197,73,18.541,358,8.9587,1.3312,-11.2308,1.6529,-0.4257,-0.3267,39,82535.99,1596051,1.1686,0.1699,-13.3641,0.3273,1.2814,0.7851,47
18.667,360,8.0396,-1.7534,-11.556,0.1478,0.1674,-0.3496,75,18.934,365,-1.3356,-3.0904,-4.9208,0.1456,2.1495,1.1909,77,19.137,369,10.005,-1.7509,-9.983,0.2153,-0.0004,0.3516,73,18.593,359,8.6667,0.9032,-11.0788,1.6573,-0.4222,-0.6466,39,82536.041,1596052,-4.3787,-5.1339,-17.7792,0.2483,0.9844,0.7112,47
18.719,361,7.9293,-1.9401,-11.3246,0.2456,-0.047,-0.255,75,18.986,366,-2.6537,-2.3471,-7.6456,0.1272,1.6698,1.066,77,19.188,370,9.7279,-1.9639,-9.9575,0.2148,-0.0753,0.2964,73,18.645,360,8.3924,0.6161,-10.9055,1.7059,-0.2843,-0.8581,39,82536.093,1596053,-3.2485,-3.773,-15.702,0.2643,1.2221,0.4836,47
18.771,362,8.4003,-1.7704,-11.0008,0.4217,-0.1938,-0.182,75,19.038,367,1.5569,0.2653,-7.9656,-0.5445,0.546,0.9875,77,19.24,371,9.7168,-1.8421,-9.9919,0.2705,-0.075,0.2414,73,18.696,361,8.2003,0.2392,-10.6942,1.8641,-0.1008,-0.9572,39,82536.145,1596054,-2.3513,-2.7536,-14.0086,0.2762,1.396,0.3181,47
18.823,363,8.6971,-1.7332,-10.7576,0.3609,-0.1444,-0.0644,75,19.09,368,0.7305,2.1176,-10.8584,-0.3515,-0.2741,0.2866,77,19.292,372,9.7138,-2.1301,-9.9986,0.3044,-0.1512,0.1438,73,18.748,362,10.1933,-3.1512,-7.983,1.9197,0.3157,-0.9427,39,82536.197,1596055,-1.6944,-2.0138,-12.7793,0.2851,1.5237,0.1973,47
18.874,364,8.9823,-1.2702,-10.6402,0.073,0.0929,0.0539,75,19.142,369,3.4449,-1.8233,-6.1622,-0.7261,-0.8728,-0.4772,77,19.344,373,9.1969,-2.1752,-10.2379,0.3279,0.0592,0.1319,73,18.8,363,12.5568,-4.4549,-8.6883,1.6612,0.7473,-0.7915,39,82536.248,1596056,0.2614,-2.4519,-12.9792,0.1836,1.4302,0.1517,47
18.926,365,8.6521,-1.5593,-10.4393,-0.1839,0.1574,0.0331,75,19.193,370,6.1994,-0.0268,-10.6869,0.1418,-1.3096,-1.0347,77,19.396,374,9.2781,-2.1478,-10.061,0.3556,0.1641,0.1208,73,18.852,364,11.8808,-6.0531,-9.3601,0.7851,0.5956,-0.7793,39,82536.3,1596057,1.1685,-2.4238,-12.6384,0.0471,1.2079,0.1795,47
18.978,366,8.5653,-1.9385,-10.286,0.1035,-0.0203,-0.1008,75,19.245,371,9.3655,-5.2803,-5.8949,-0.5766,-0.2768,-0.0898,77,19.447,375,9.4903,-1.9471,-9.7311,0.2486,0.194,0.0961,73,18.904,365,10.8179,-2.1856,-9.4711,0.5651,0.5417,-0.6087,39,82536.352,1596058,1.2935,-2.1362,-12.1538,-0.2493,0.8019,0.1625,47
19.03,367,8.6936,-1.7801,-10.0444,0.249,-0.0865,-0.1764,75,19.297,372,9.9577,-1.5932,-4.7222,0.2509,0.4596,-0.0616,77,19.499,376,9.3292,-1.8779,-9.5749,0.1085,0.1602,0.0694,73,18.956,366,10.488,-2.5786,-9.572,0.3181,0.4165,-0.3992,39,82536.403,1596059,1.0469,-1.6401,-11.5549,-0.5233,0.4419,0.1485,47
19.081,368,8.6128,-1.8809,-9.9609,0.1154,0.009,-0.1398,75,19.349,373,9.5658,-1.6071,-3.5647,-0.3449,0.7498,0.1564,77,19.551,377,9.3574,-1.9788,-9.5892,0.0183,0.1256,0.0515,73,19.008,367,9.9751,-1.4274,-9.6977,0.1112,0.3127,-0.3094,39,82536.455,1596060,3.3818,-1.9698,-12.9443,-0.7971,-0.086,0.0694,47
19.133,369,8.2948,-1.8279,-9.8408,0.0324,0.044,-0.1029,75,19.401,374,8.1267,-2.1812,-2.8081,-0.4302,1.2263,0.4587,77,19.603,378,9.3462,-2.1876,-9.5599,-0.0301,0.0849,0.0067,73,19.059,368,9.6869,-0.4234,-9.7718,0.1067,0.2461,-0.2916,39,82536.507,1596061,5.2323,-1.9233,-13.0516,-0.7038,0.0619,-0.1077,47
19.185,370,8.0374,-1.6704,-9.6763,0.1507,-0.0883,-0.1168,75,19.452,375,6.0523,-1.5972,-3.5007,-0.2533,1.5741,0.6336,77,19.654,379,9.459,-2.0914,-9.4442,0.0104,-0.0096,-0.04,73,19.111,369,9.4108,0.1709,-9.8325,-0.0044,0.2011,-0.2095,39,82536.559,1596062,6.3653,-2.3038,-10.6582,-0.1138,0.7101,-0.2198,47
19.237,371,7.9643,-1.6011,-9.5898,0.2893,-0.0971,-0.1828,75,19.504,376,3.0535,-2.8451,-3.8347,-0.8649,1.8279,1.0908,77,19.706,380,9.5015,-1.9172,-9.3553,0.1227,-0.1496,-0.0921,73,19.163,370,9.2674,0.5349,-9.8479,-0.0736,0.2063,-0.1661,39,82536.611,1596063,4.5878,-1.7106,-9.4035,0.5909,1.2069,-0.0571,47
19.288,372,7.9864,-1.7919,-9.6851,0.3621,-0.1001,-0.2046,75,19.556,377,1.3286,-2.5906,-5.7009,-0.4102,1.4687,1.1017,77,19.758,381,9.438,-2.2756,-9.422,0.4405,-0.3097,-0.1827,73,19.215,371,9.1767,0.75,-9.8001,-0.0468,0.1771,-0.1634,39,82536.662,1596064,3.1928,-1.2083,-8.4324,1.1051,1.5695,0.0591,47
19.34,373,7.9299,-2.2074,-9.8998,0.3916,-0.1899,-0.1398,75,19.608,378,-1.1881,-1.1736,-8.0567,-0.4267,0.962,1.0548,77,19.81,382,9.5655,-2.2158,-9.2814,0.9176,-0.4565,-0.3954,73,19.267,372,9.0059,1.1894,-9.7457,-0.0025,0.1328,-0.1047,39,82536.714,1596065,-2.3672,-0.165,-4.919,0.9883,1.6237,-0.3186,47
19.392,374,8.5223,-2.5145,-10.1483,0.551,-0.3224,0.0416,75,19.66,379,-1.8421,-0.2159,-10.2636,-0.6006,0.0294,0.7567,77,19.862,383,9.4679,-1.7588,-9.6489,1.1692,-0.5406,-0.4266,73,19.318,373,8.9409,1.2929,-9.721,0.0193,0.065,0.0006,39,82536.766,1596066,-1.641,-0.0656,-6.1433,0.891,1.6813,-0.5933,47
19.444,375,9.2215,-1.6219,-10.3868,0.347,-0.0686,0.3652,75,19.711,380,-1.1838,-0.8705,-9.7425,-1.1095,-0.6512,-0.0045,77,19.914,384,9.1545,-1.7377,-10.2872,1.0974,-0.5379,-0.3685,73,19.37,374,8.8529,1.4159,-9.6371,0.0747,-0.0395,0.0764,39,82536.818,1596067,-1.1312,-0.0006,-7.0486,0.8171,1.7237,-0.7928,47
19.496,376,8.7094,-1.4637,-10.7515,-0.1624,0.1998,0.4785,75,19.763,381,3.9389,-5.6982,-4.4627,-0.5031,-1.1479,-0.6896,77,19.965,385,8.8011,-1.5447,-10.772,0.8371,-0.4974,-0.2045,73,19.422,375,8.8217,1.4925,-9.7201,0.1198,-0.1356,0.1449,39,82536.869,1596068,-0.7695,0.0675,-7.7156,0.7607,1.7552,-0.9375,47
19.547,377,8.5573,-1.9134,-10.8891,0.1641,0.0011,0.3258,75,19.815,382,7.7947,1.1681,-7.3349,0.3046,-1.5105,-1.1897,77,20.017,386,10.0477,-1.9501,-7.9972,0.1196,0.0507,0.2819,73,19.474,376,8.8076,1.4465,-9.7297,0.1413,-0.227,0.205,39,82536.921,1596069,0.0523,-0.2373,-7.1652,0.6156,1.417,-0.9368,47
19.599,378,8.6686,-1.6168,-10.901,0.5804,-0.2145,0.154,75,19.867,383,8.8967,-1.6347,-5.6885,-0.4577,-0.4233,-0.2029,77,20.069,387,9.8882,-1.7734,-8.4733,0.3601,-0.2443,0.2835,73,19.526,377,9.0559,1.3139,-9.9766,0.1758,-0.3116,0.2615,39,82536.973,1596070,2.1987,-0.357,-6.8673,0.5166,1.1948,-0.8094,47
19.651,379,8.8078,-1.8181,-10.8914,0.5618,-0.1515,0.0676,75,19.919,384,7.908,-1.0023,-5.155,0.1125,0.3266,-0.2914,77,20.121,388,9.3551,-1.7002,-9.2684,-0.027,-0.4165,0.2203,73,19.577,378,9.0325,1.4993,-10.1859,0.1937,-0.4573,0.3403,39,82537.025,1596071,3.5656,-0.376,-6.3812,0.3761,0.7672,-0.7606,47
19.703,380,8.6835,-1.8333,-10.994,0.5522,-0.0279,0.0142,75,19.97,385,5.562,-2.5611,-4.3297,-0.4974,0.9174,-0.0221,77,20.173,389,9.6188,-1.2441,-9.5643,0.146,-0.5011,0.0996,73,19.629,379,9.1744,0.9643,-10.5905,0.0829,-0.5613,0.4305,39,82537.077,1596072,4.1092,-0.141,-5.7553,0.1919,0.3194,-0.8785,47
19.755,381,8.6233,-1.8969,-11.0519,0.5394,-0.0699,-0.0364,75,20.022,386,4.4206,-4.3034,-3.608,-0.726,1.2315,0.521,77,20.224,390,8.8783,-1.1689,-10.8518,0.2865,-0.2523,0.0422,73,19.681,380,9.6964,0.4338,-10.5989,0.0068,-0.5993,0.4559,39,82537.128,1596073,4.0365,0.7167,-4.3746,0.1426,0.0751,-1.0757,47
19.806,382,8.4576,-1.6775,-11.0885,0.5881,-0.0825,-0.1127,75,20.074,387,4.661,-5.3304,-3.7997,-0.4124,1.3321,1.0452,77,20.276,391,8.9568,-1.4924,-12.0298,0.3866,-0.1879,0.0755,73,19.733,381,9.7943,0.4748,-10.8362,0.0129,-0.6897,0.4857,39,82537.18,1596074,0.0048,0.4682,-2.0409,0.3212,0.4127,-0.9798,47
19.858,383,8.2435,-1.7622,-11.0923,0.6356,-0.125,-0.2222,75,20.126,388,3.5809,-5.119,-4.8318,-0.1348,1.644,1.4282,77,20.328,392,9.2035,-1.3668,-12.0304,0.2807,-0.2357,0.079,73,19.785,382,9.319,0.8293,-11.4196,-0.0487,-0.7463,0.3574,39,82537.232,1596075,-0.0021,0.3336,-3.8662,0.4435,0.9898,-0.8421,47
19.91,384,8.3023,-2.0483,-11.0967,0.7004,-0.1602,-0.3059,75,20.178,389,1.3003,-4.3427,-6.2482,0.0558,1.5108,1.7078,77,20.38,393,9.2843,-1.3118,-12.1627,0.1717,-0.2581,0.0732,73,19.836,383,8.8118,0.6017,-10.8857,-0.1708,-0.5728,0.1175,39,82537.284,1596076,-0.0222,0.1459,-5.4762,0.4761,0.4218,-0.8034,47
19.962,385,8.2444,-2.1279,-11.0632,0.6372,-0.0579,-0.3017,75,20.229,390,0.364,-1.8856,-8.8088,0.5192,0.7486,1.4127,77,20.431,394,9.1576,-1.4055,-12.3242,0.1318,-0.2216,0.0695,73,19.888,384,8.3887,0.4762,-10.3444,-0.2606,-0.213,-0.1361,39,82537.335,1596077,-0.3686,0.1756,-6.607,0.1949,-0.0726,-0.2995,47
20.013,386,8.2912,-2.5434,-10.8617,0.566,0.0339,-0.2408,75,20.281,391,0.1298,-2.9244,-8.3273,0.5162,0.1628,0.8215,77,20.483,395,9.2468,-1.4677,-12.348,0.106,-0.1826,0.0362,73,19.94,385,8.6804,0.1707,-10.3294,0.0231,0.2332,-0.2973,39,82537.387,1596078,-0.2271,0.1257,-7.4526,-0.013,-0.4342,0.0685,47
20.065,387,9.0175,-2.2492,-10.8195,0.5635,0.2127,-0.1981,75,20.333,392,-1.0383,-0.3774,-10.1396,-0.0816,-0.5538,0.4933,77,20.535,396,9.2,-1.4758,-12.4172,0.065,-0.1787,-0.0013,73,19.992,386,8.9501,0.0744,-10.3051,0.422,0.631,-0.3935,39,82537.439,1596079,-0.1185,0.0984,-8.0578,-0.1655,-0.6985,0.3376,47
