right_hand_timestamp,right_hand_index,right_hand_accel_x,right_hand_accel_y,right_hand_accel_z,right_hand_gyro_x,right_hand_gyro_y,right_hand_gyro_z,right_hand_battery_percentage,left_hand_timestamp,left_hand_index,left_hand_accel_x,left_hand_accel_y,left_hand_accel_z,left_hand_gyro_x,left_hand_gyro_y,left_hand_gyro_z,left_hand_battery_percentage,right_leg_timestamp,right_leg_index,right_leg_accel_x,right_leg_accel_y,right_leg_accel_z,right_leg_gyro_x,right_leg_gyro_y,right_leg_gyro_z,right_leg_battery_percentage,ball_timestamp,ball_index,ball_accel_x,ball_accel_y,ball_accel_z,ball_gyro_x,ball_gyro_y,ball_gyro_z,ball_battery_percentage
0.606,11,-2.7548,-9.4825,-8.3556,1.6216,1.049,1.2917,76,0.141,2,1.1377,8.177,-7.37,-1.0556,-0.0915,0.121,85,0.503,9,8.5503,-0.9805,-12.1308,-0.5887,0.3959,0.5181,74,85203.842,1647635,-12.1574,-3.2478,-13.8039,0.5736,0.8808,0.2693,46
0.658,12,-3.2984,-7.4236,-9.0822,1.7853,1.0842,1.3173,76,0.192,3,0.1142,8.2209,-5.9395,-0.9899,-0.7394,0.3967,85,0.554,10,6.2949,-5.3358,-13.5657,0.1197,-0.2324,0.354,74,85203.893,1647636,-10.4576,-2.6602,-13.1026,0.9142,1.0716,0.1143,46
0.71,13,-3.3709,-4.809,-9.5928,1.9752,0.714,0.9718,76,0.244,4,0.6622,8.9841,-4.7296,-0.827,-1.2123,0.4345,85,0.606,11,7.187,-6.8816,-13.7,-0.0392,-0.6848,0.3174,74,85203.945,1647637,-7.9958,-2.4318,-11.574,1.1148,1.3028,-0.1683,46
0.762,14,-2.9609,-3.1554,-10.261,2.0118,-0.0404,0.259,76,0.296,5,1.1332,9.2231,-2.8723,-0.8509,-1.1848,0.3542,85,0.658,12,7.9109,-5.9901,-13.6589,-0.2521,-0.7821,0.3412,74,85203.997,1647638,-5.5425,-2.2116,-10.2296,1.1919,1.5949,-0.397,46
0.813,15,-1.2006,-4.1762,-8.8779,1.6709,-0.6988,-0.4861,76,0.348,6,1.3678,8.5608,-1.8888,-0.9936,-0.8145,0.2482,85,0.71,13,8.7661,-4.7685,-13.3597,-0.283,-0.7362,0.318,74,85204.048,1647639,-3.1418,-1.464,-9.1542,1.2873,1.793,-0.5914,46
0.865,16,3.0016,-6.0892,-3.8883,1.3718,-1.1794,-1.0299,76,0.4,7,0.9473,6.806,-1.3771,-1.2301,-0.0912,0.3254,85,0.762,14,8.974,-3.9748,-13.0595,-0.3251,-0.7048,0.302,74,85204.1,1647640,-1.126,-0.4286,-7.4162,1.5247,1.9112,-0.7928,46
0.917,17,5.4866,-4.5236,-7.7273,0.9207,-1.5301,-1.0292,76,0.452,8,0.329,5.3462,-1.607,-1.3697,0.5817,0.5291,85,0.813,15,8.6446,-3.6479,-13.0536,-0.3194,-0.7359,0.2535,74,85204.152,1647641,-0.4097,2.8432,-6.8929,1.7867,2.0659,-1.1885,46
0.969,18,7.41,-4.6153,-6.9745,0.0986,-1.6822,-0.6273,76,0.504,9,-0.5619,4.6733,-2.5279,-1.6745,0.8422,0.679,85,0.865,16,8.6841,-3.1151,-13.2013,-0.2735,-0.8133,0.2194,74,85204.204,1647642,0.0345,2.278,-6.9538,1.9779,2.1854,-1.5418,46
1.021,19,7.4091,-5.9166,-6.1124,-0.6054,-1.3753,-0.6948,76,0.555,10,-0.9481,4.8892,-2.7047,-1.6647,0.7428,0.4022,85,0.917,17,8.6177,-2.6491,-13.3605,-0.2969,-0.9275,0.2531,74,85204.255,1647643,0.3633,1.8375,-7.0342,2.1174,2.2775,-1.801,46
1.072,20,5.8198,-7.541,-6.4392,-1.1168,-0.8869,-0.8867,76,0.607,11,-1.4809,3.7969,-5.3308,-1.895,0.3657,-0.0155,85,0.969,18,9.1828,-2.701,-12.9129,-0.3326,-1.214,0.2726,74,85204.307,1647644,0.6788,1.3281,-7.2046,2.2193,2.3477,-1.9897,46
1.124,21,4.7457,-8.3651,-6.8224,-1.0585,-0.5961,-0.8944,75,0.659,12,3.8391,2.1804,-6.8578,-1.9613,-0.3879,-0.5916,85,1.02,19,10.8363,-1.6695,-12.2932,-0.5281,-1.5594,0.4298,74,85204.359,1647645,0.8516,1.0675,-7.3204,0.9418,1.3761,-0.9078,46
1.176,22,4.0131,-8.4349,-6.9009,-0.3503,-0.4829,-0.8072,75,0.711,13,5.3475,2.5653,-8.2733,-1.3493,-0.9558,0.2123,85,1.072,20,13.1746,-0.5022,-11.3771,-1.0607,-1.8115,0.5132,74,85204.411,1647646,0.9836,0.9298,-7.229,0.0095,0.6751,-0.0704,46
1.228,23,3.7765,-8.0014,-7.334,0.0807,-0.2764,-0.5839,75,0.763,14,8.8227,1.9138,-4.9887,-0.4186,-1.3702,0.0932,85,1.124,21,10.0624,-4.066,-16.1524,-0.2625,-1.7111,0.0939,74,85204.462,1647647,1.0841,0.8316,-7.1132,-0.6709,0.1746,0.5403,46
1.28,24,4.4052,-7.7475,-7.8528,0.3062,-0.1036,-0.3761,75,0.814,15,11.3591,1.0939,-10.8473,0.3662,-1.6727,0.0845,85,1.176,22,9.525,-1.6067,-13.6292,0.3561,-1.0736,-0.4174,74,85204.514,1647648,1.1477,0.75,-7.0217,-1.1675,-0.1812,0.9852,46
1.331,25,5.3427,-7.0967,-8.2065,0.2064,0.2015,-0.1778,75,0.866,16,12.7621,2.5304,-9.8236,0.2337,-1.0541,-0.4867,85,1.227,23,8.5126,-1.331,-13.5641,0.8582,-0.1052,-0.9787,74,85204.566,1647649,1.1901,0.703,-6.9587,-1.53,-0.4299,1.3084,46
1.383,26,5.2715,-5.9032,-8.613,-0.3643,0.5046,0.1047,75,0.918,17,10.9382,2.3475,-7.7006,0.8423,-0.4134,-0.3028,85,1.279,24,8.5871,-0.4193,-13.1091,1.0183,0.6016,-1.3883,74,85204.618,1647650,3.6509,-4.7448,-2.5154,-1.7079,-0.4311,1.1246,46
1.435,27,6.5033,-7.6619,-8.3824,-0.4477,0.1712,0.1104,75,0.97,18,8.7578,3.8854,-7.0118,1.2865,0.1543,-0.0362,85,1.331,25,8.9602,-0.6801,-13.2962,1.1059,1.1174,-1.6873,74,85204.669,1647651,3.6592,-6.4138,-1.1618,-0.5735,-0.0776,0.7195,46
1.487,28,7.1759,-8.5535,-8.354,0.1313,0.1623,0.1374,75,1.022,19,6.8591,4.3417,-6.9325,1.6106,0.5581,0.3965,85,1.383,26,10.1947,-0.5254,-14.3412,1.4837,1.4939,-1.9054,74,85204.721,1647652,2.6041,-1.5812,-1.7688,0.2553,0.5769,0.419,46
1.539,29,6.538,-9.2792,-7.6436,0.5328,0.031,0.4291,75,1.073,20,5.5168,4.4151,-7.0303,1.7781,1.0043,0.9138,85,1.435,27,9.482,-2.1359,-16.2934,1.7499,1.7549,-2.0315,74,85204.773,1647653,2.0555,-0.98,-3.0791,0.8602,1.0972,0.1162,46
1.59,30,4.1075,-10.1101,-7.5973,1.0366,-0.0421,0.9131,75,1.125,21,5.7248,6.4123,-7.3499,1.9694,1.1903,1.2457,85,1.487,28,11.6304,-6.7959,-19.8965,0.6428,0.6074,-0.8736,74,85204.825,1647654,1.6528,-0.5268,-4.1371,1.3017,1.4759,-0.1087,46
1.642,31,3.2234,-8.982,-7.9804,1.4309,-0.1823,1.343,75,1.177,22,7.8205,8.4334,-7.2721,2.1091,1.3504,0.6568,85,1.539,29,8.0669,-5.3159,-22.5263,1.0016,-0.1709,-0.4517,74,85204.876,1647655,4.9537,-2.9032,-8.1593,0.3367,1.1104,-0.0697,46
1.694,32,3.7904,-8.1608,-7.5306,1.2444,0.1178,1.6568,75,1.229,23,6.9708,8.2142,-6.6024,2.0359,1.3996,-0.1491,85,1.59,30,8.6099,-4.483,-20.6813,0.6442,-0.5814,0.149,74,85204.928,1647656,3.8382,-1.761,-5.5284,-0.4321,0.8714,0.0095,46
1.746,33,3.496,-7.1954,-6.9388,1.501,0.7652,1.8859,75,1.281,24,5.6649,6.9533,-5.679,1.7625,1.2223,-0.7951,85,1.642,31,9.0096,-2.2012,-19.4646,0.6721,-0.5871,0.3999,74,85204.98,1647657,3.0344,-0.9261,-3.607,-0.9933,0.6823,0.0665,46
1.798,34,4.1271,-7.9651,-7.3448,0.7539,0.727,1.6446,75,1.332,25,5.045,5.3989,-4.456,1.7165,0.9549,-1.1714,85,1.694,32,8.9193,-1.4571,-18.2135,0.6052,-0.7343,0.555,74,85205.032,1647658,2.4243,-0.3316,-2.2108,-1.4028,0.5286,0.1032,46
1.849,35,6.1497,-11.011,-4.7018,-0.1271,1.2123,1.8183,75,1.384,26,4.6682,4.2253,-3.2953,1.0684,0.9457,-0.9825,85,1.745,33,8.888,-0.8036,-17.2565,0.4663,-1.0571,0.5668,74,85205.083,1647659,1.9593,0.0976,-1.1792,-1.7017,0.4036,0.126,46
1.902,36,-0.8887,-5.251,-8.3255,0.5816,0.9082,1.8137,75,1.436,27,2.773,3.3742,-2.2727,0.8275,1.137,-0.5318,85,1.797,34,10.2642,0.5187,-16.1735,0.3863,-1.3226,0.6236,74,85205.135,1647660,-1.4668,0.0536,-4.51,-1.9199,0.5112,-0.1729,46
1.953,37,0.7463,-5.7338,-9.0138,0.3273,-0.0065,0.6573,75,1.488,28,1.2989,4.0022,-1.2994,1.1246,1.5089,-0.6318,85,1.849,35,12.757,4.2336,-13.385,0.3149,-1.6387,0.4498,74,85205.187,1647661,-3.2621,0.7554,-6.3591,-2.0791,0.3542,-0.8022,46
2.005,38,2.1742,-3.5919,-4.9771,0.7214,-0.6741,-0.1954,75,1.54,29,0.2924,6.9018,-0.5768,0.1407,1.7719,-1.1381,85,1.901,36,14.5764,-2.1472,-12.2178,0.4389,-1.6904,0.2065,74,85205.239,1647662,-5.5745,1.1664,-10.2426,-2.1953,-0.1033,-1.2616,46
2.057,39,5.8369,-2.0525,-6.7838,-0.1508,-0.6872,0.2901,75,1.592,30,0.7609,7.8861,-1.043,-0.5773,1.6807,-1.439,85,1.953,37,14.6036,-0.2047,-9.2201,0.8753,-1.6687,-0.5233,74,85205.291,1647663,-4.5078,1.4427,-10.4942,-1.9713,0.603,-1.5968,46
2.109,40,9.23,-6.6958,-7.249,0.5011,-1.1709,0.3348,75,1.643,31,3.5881,5.2216,-3.2014,-1.1014,0.554,-0.9514,85,2.005,38,13.8342,-3.1472,-9.548,0.8015,-0.5395,-1.0559,74,85205.342,1647664,-3.3254,1.5553,-9.9209,-1.8122,1.1279,-1.8415,46
2.161,41,9.4538,0.5031,-5.0297,0.5286,-0.1937,0.6383,75,1.695,32,4.2364,2.2966,-7.0218,-0.875,-0.2481,-0.1085,85,2.057,39,14.5466,-3.2819,-9.6505,1.0601,0.2846,-1.4447,74,85205.394,1647665,-2.4564,1.6506,-9.4503,-1.7217,1.5114,-2.0201,46
2.212,42,7.5361,-2.197,-6.6327,-0.2916,0.1839,0.8041,75,1.747,33,5.0058,0.2232,-9.2989,-0.6097,-0.8538,0.5862,85,2.108,40,13.8446,-3.9111,-10.5061,1.4502,0.8861,-1.7284,74,85205.446,1647666,-3.3128,4.5914,-4.3338,-1.1729,1.1964,-1.7531,46
2.264,43,7.2734,-4.6954,-6.8298,-0.0316,-0.0936,-0.0883,75,1.799,34,-2.0165,-5.0979,-7.7888,-0.1112,0.056,0.0794,85,2.16,41,13.7799,-5.8636,-12.8982,0.9129,1.325,-1.7482,74,85205.498,1647667,-2.991,4.0077,-2.9882,-0.1821,0.2101,-0.6042,46
2.316,44,6.5891,-6.4306,-7.919,-0.6949,0.4072,-0.7212,75,1.851,35,-4.1216,-7.5524,-6.7213,0.351,-0.6318,0.7233,85,2.212,42,11.3045,-9.5165,-14.9737,0.4505,1.6454,-1.4169,74,85205.549,1647668,-2.4909,3.4495,-3.7161,0.5409,-0.5097,0.2347,46
2.367,45,5.8251,-7.5873,-9.6086,-0.9677,0.4049,-1.0576,75,1.902,36,1.9117,-0.1852,-3.3893,0.9279,0.2023,0.1048,85,2.263,43,8.241,-8.5736,-18.9334,0.6569,1.0509,-0.6054,74,85205.601,1647669,-2.1084,3.0541,-4.233,1.0687,-1.0351,0.847,46
2.419,46,4.4086,-7.6051,-9.2713,-0.0923,0.5319,-0.785,75,1.954,37,6.3152,1.2572,-6.6133,1.2219,0.8267,-0.6099,85,2.315,44,0.6905,-6.6282,-21.8233,0.6052,1.2567,-0.126,74,85205.653,1647670,-1.8206,2.7534,-4.6181,1.4538,-1.4186,1.2939,46
2.471,47,2.198,-6.3969,-9.7573,0.607,0.4542,-0.4284,75,2.006,38,7.1121,-4.3433,-7.2884,1.5635,1.2824,0.2203,85,2.367,45,4.936,-4.2169,-20.9663,0.9499,0.439,0.2389,74,85205.705,1647671,-1.6079,2.5298,-4.9165,1.735,-1.6984,1.62,46
2.523,48,0.3838,-7.0071,-8.8204,1.1174,-0.225,-0.3514,75,2.058,39,1.1869,-5.5305,-5.9309,1.8128,1.3163,0.8261,85,2.419,46,5.8387,-2.9191,-19.7498,0.8441,0.1876,0.1475,74,85205.756,1647672,-1.3281,1.6595,-6.1804,1.6075,-1.4368,1.8581,46
2.575,49,2.8276,-8.9262,-9.6714,1.4899,-0.8335,-0.1745,75,2.11,40,2.7485,-0.4436,-7.2664,1.9948,1.6029,1.2683,85,2.471,47,7.2727,-1.2741,-18.7284,1.0004,-0.0232,-0.1249,74,85205.808,1647673,-1.4968,0.6285,-6.1008,1.8471,-1.6728,2.0318,46
2.626,50,3.0197,-11.7124,-11.8112,1.3686,-1.2481,0.3166,75,2.161,41,3.3293,3.9097,-9.4983,2.114,1.8489,1.5911,85,2.523,48,8.5165,1.5191,-17.6478,1.2352,-0.326,0.0757,74,85205.86,1647674,-1.3454,0.9523,-6.6473,2.022,-1.8815,2.1586,46
2.678,51,5.045,-13.746,-14.7017,1.6732,-1.5803,0.8522,75,2.213,42,2.273,4.9898,-10.7146,0.9981,2.0285,1.7581,85,2.574,49,9.4402,1.7959,-14.7832,1.1556,-0.9113,0.23,74,85205.912,1647675,-1.2234,1.1695,-7.0654,2.1496,-2.0361,2.2511,46
2.73,52,4.0955,-13.5402,-16.3964,1.8956,-1.8227,1.2986,75,2.265,43,1.3871,4.4722,-10.6077,1.0318,1.32,1.3841,85,2.626,50,11.4529,0.8423,-14.0163,0.8862,-1.3385,0.2062,74,85205.963,1647676,-6.1244,5.7943,-2.5933,0.92,-2.0859,1.9322,46
2.782,53,3.7508,-13.2342,-17.6242,2.0579,-1.9996,1.6244,75,2.317,44,1.3319,6.8625,-9.2575,1.4248,0.2933,1.2989,85,2.678,51,10.5012,0.7518,-13.7918,1.3233,-1.6503,-0.3984,74,85206.015,1647677,-4.2975,4.3296,-3.4697,-0.0064,-2.1855,1.6834,46
2.833,54,5.8542,-11.0506,-19.3578,2.1763,-1.8324,1.8622,75,2.369,45,2.1903,9.7316,-7.5184,1.6272,-0.4586,1.1552,85,2.73,52,10.7916,-0.2914,-12.3472,0.2993,-1.486,-0.9648,74,85206.067,1647678,-2.9537,3.3064,-4.2337,-0.6826,-2.2581,1.5009,46
2.885,55,5.1485,-5.2605,-20.7872,2.2627,-1.7228,1.9394,75,2.42,46,4.2429,11.7209,-5.9885,1.3978,-1.0074,0.5933,85,2.781,53,11.0235,-0.2325,-12.1025,0.4431,-0.5362,-1.3782,74,85206.118,1647679,-1.9815,2.5686,-4.7982,-1.176,-2.3112,1.366,46
2.937,56,5.9377,-0.4256,-21.6346,2.022,-1.9267,0.7489,75,2.472,47,3.3428,10.4647,-5.5094,0.9185,-1.4079,-0.0946,85,2.833,54,11.6639,-0.3372,-11.8307,0.9595,0.287,-1.6799,74,85206.17,1647680,-1.2843,2.0381,-5.1982,-1.5362,-2.3499,1.2671,46
2.989,57,4.626,-0.4537,-18.1664,0.8405,-1.0096,0.4766,75,2.524,48,4.427,9.3583,-4.0874,0.096,-1.7002,-0.3611,85,2.885,55,12.3375,-0.9877,-11.339,1.265,0.8879,-1.9001,74,85206.222,1647681,-0.797,1.6516,-5.4793,-1.7991,-2.3781,1.1936,46
3.041,58,8.4339,0.0438,-10.6675,0.7879,-1.4062,-0.3273,75,2.576,49,4.0121,7.2854,-3.9211,-0.3184,-1.3861,-0.4669,85,2.937,56,12.5869,-1.108,-11.3714,0.937,1.3264,-1.9866,74,85206.274,1647682,-0.3111,-0.8545,-6.0986,-1.3247,-2.3988,1.0352,46
3.092,59,11.213,-5.1658,-11.8259,-0.1024,-0.3439,0.4378,75,2.628,50,4.229,6.4371,-4.4037,-0.329,-0.8234,-0.2795,85,2.989,57,13.0953,-2.1776,-12.9132,0.578,1.6464,-1.6665,74,85206.326,1647683,1.9594,-0.9996,-5.9576,-0.9268,-2.4138,0.4066,46
3.144,60,12.8118,-4.1714,-9.1542,-0.0512,0.3567,0.9961,75,2.679,51,3.499,5.6523,-5.7645,-0.3202,-0.264,0.1628,85,3.04,58,9.6623,-4.2337,-17.4295,0.5407,1.8771,-1.3573,74,85206.377,1647684,1.4114,-0.878,-6.1944,-0.6356,-2.4248,-0.1436,46
3.196,61,6.5322,-2.3032,-9.9758,-0.4119,0.9428,1.4037,75,2.731,52,3.1685,5.7233,-6.4828,-0.0816,-0.3378,0.34,85,3.092,59,10.4722,-5.5164,-16.7096,0.6934,1.2704,-0.3919,74,85206.429,1647685,0.3814,-1.0964,-10.6181,-1.1418,-2.4328,0.1588,46
3.248,62,1.6724,1.4988,-10.6226,-0.4532,0.7105,0.8229,75,2.783,53,7.2324,8.6151,-4.1305,0.0066,-0.9192,0.6953,85,3.144,60,9.4271,-3.6203,-15.2456,0.8176,0.7028,-0.0436,74,85206.481,1647686,0.3455,-0.6159,-9.4811,-1.5112,-2.4387,0.3807,46
3.3,63,-4.3117,-0.9217,-13.1584,-1.0082,0.7491,-0.0745,75,2.835,54,6.5958,8.4832,-2.9624,0.3559,-0.5161,0.3958,85,3.196,61,9.5787,-2.324,-15.522,0.6986,0.3339,0.3367,74,85206.533,1647687,0.3497,-0.2751,-8.6456,-1.7808,-2.4429,0.5409,46
3.352,64,-8.6792,-1.1099,-16.6943,-1.1644,1.2291,0.3794,75,2.887,55,6.6786,7.2929,-3.8866,0.1278,-0.097,-0.0131,85,3.248,62,9.2802,-1.1729,-15.0892,0.6575,0.3822,0.3039,74,85206.584,1647688,0.3632,-0.0384,-8.0195,-1.9776,-2.446,0.6559,46
3.403,65,-1.2768,-5.3336,-20.1019,-0.1755,0.2277,-0.3982,75,2.938,56,6.8975,5.3082,-5.0264,0.1749,0.4229,-0.3207,85,3.299,63,9.6737,-0.8322,-14.176,0.3275,0.4796,0.2815,74,85206.636,1647689,2.6144,-4.8528,-7.1228,-1.5329,-2.4483,-0.0071,46
3.455,66,4.1257,-5.4443,-16.9052,0.5463,0.327,0.0946,75,2.99,57,6.9182,3.6082,-5.916,0.3297,0.8557,-0.3021,85,3.351,64,9.3516,-0.537,-13.1262,0.0945,0.4426,0.3132,74,85206.688,1647690,3.2428,-3.0098,-6.427,-0.5603,-2.2256,-0.6813,46
3.507,67,5.66,-4.8016,-14.1166,-0.2786,0.9211,0.626,75,3.042,58,5.4927,2.628,-6.5646,0.4803,1.1393,0.0308,85,3.403,65,8.9052,-0.7344,-12.3785,-0.0842,-0.047,0.3728,74,85206.74,1647691,2.7,-2.1741,-7.0457,0.2649,-1.912,-1.1733,46
3.559,68,1.7118,-5.8616,-13.1763,-0.5764,1.3547,0.7749,75,3.094,59,3.6441,2.8866,-6.3461,0.6724,1.2008,0.5258,85,3.455,66,7.9453,-0.0965,-13.2318,-0.1845,-0.4554,0.2748,74,85206.791,1647692,-0.9482,-2.5244,-5.6657,0.8553,-0.7086,-0.1806,46
3.611,69,-2.3102,-5.5991,-12.9869,0.2454,0.6163,1.1949,75,3.146,60,4.2584,3.7105,-5.2353,1.1625,0.5519,0.7567,85,3.507,67,9.6908,0.3733,-13.5095,-0.0684,-1.0058,0.084,74,85206.843,1647693,-1.5204,-2.4061,-5.8602,1.2981,0.1715,0.5439,46
3.662,70,-5.2141,-2.6651,-13.7227,0.8535,0.5645,1.4579,75,3.197,61,7.8289,7.1011,-7.5537,1.5201,0.191,1.1571,85,3.558,68,12.3385,-0.3964,-11.6036,0.1257,-1.4075,0.0063,74,85206.895,1647694,-1.9506,-2.2859,-5.8875,1.6213,0.8138,1.0726,46
3.714,71,-5.7451,-0.7945,-16.3521,0.5859,-0.1132,0.4955,75,3.25,62,7.7677,6.789,-8.7258,0.4294,0.4718,1.5099,85,3.61,69,12.0808,-1.4648,-11.07,0.113,-1.6824,-0.2447,74,85206.947,1647695,-2.2863,-2.1584,-5.8945,1.8572,1.2826,1.4585,46
3.766,72,-3.593,1.6386,-13.958,1.0789,0.4846,0.6704,75,3.301,63,7.2019,6.6973,-9.0698,0.9671,0.3936,1.4491,85,3.662,70,13.0145,-1.3512,-8.3282,0.7589,-1.474,-0.4725,74,85206.999,1647696,-2.5366,-2.0502,-5.9035,2.0293,1.6248,1.7402,46
3.818,73,2.4352,-0.4855,-17.2832,1.0108,-0.3156,-0.1858,75,3.353,64,5.8064,5.9015,-9.8332,1.3776,0.3847,1.2493,85,3.714,71,11.2682,-2.2166,-8.2058,0.5497,-0.3974,-0.6386,74,85207.05,1647697,-1.8338,-1.8379,-5.4139,1.6195,1.4561,1.5614,46
3.869,74,5.8632,-5.552,-15.3172,0.158,0.346,0.541,75,3.405,65,5.5501,5.2449,-10.0117,0.6441,0.6282,1.0315,85,3.766,72,10.4355,-2.8427,-8.5899,1.0778,0.3883,-1.1136,74,85207.102,1647698,-1.6783,-1.7432,-6.5743,0.5211,1.0917,0.5222,46
3.921,75,5.8259,-4.4774,-12.9929,0.7891,0.9349,1.0715,75,3.457,66,3.8055,4.4266,-10.0982,0.7696,0.6956,0.7379,85,3.817,73,10.6016,-3.3302,-12.4013,1.4631,0.9618,-1.4868,74,85207.154,1647699,-1.2252,-1.1823,-7.331,-0.293,0.8252,-0.2592,46
3.973,76,3.4506,-3.2672,-13.2947,0.61,0.2845,1.4587,75,3.509,67,4.488,4.2013,-9.7728,0.7889,0.2735,0.5553,85,3.869,74,9.4218,-3.9672,-16.8054,0.4559,1.3803,-0.7263,74,85207.206,1647700,-3.8437,-0.6967,-13.376,0.46,0.5519,0.4866,46
4.025,77,3.3517,-0.4517,-13.1542,0.5718,0.6602,1.3136,75,3.56,68,5.9563,6.0769,-9.6976,0.6222,-0.3378,0.7931,85,3.921,75,6.5383,-4.8111,-20.2702,-0.3425,1.3508,0.1477,74,85207.257,1647701,-3.3943,-0.2252,-11.9854,1.0096,0.3082,1.0308,46
4.077,78,-3.0861,1.4428,-12.4426,0.1715,0.7824,0.6581,75,3.612,69,9.2671,6.2228,-9.2758,0.5199,-0.3657,0.6849,85,3.973,76,-0.5523,-7.434,-17.5034,-0.319,1.4874,0.196,74,85207.309,1647702,-3.1205,0.1355,-10.8725,1.4107,0.0947,1.428,46
4.128,79,-7.4372,3.9256,-12.9069,0.0454,0.1939,-0.1948,75,3.664,70,9.2777,5.6224,-9.3503,-0.3006,-0.2961,0.7045,85,4.025,77,0.721,-4.9421,-16.3386,-0.0627,1.192,0.1053,74,85207.361,1647703,-2.9177,0.3902,-10.0711,1.7035,-0.0905,1.7179,46
4.18,80,-1.1083,-2.3327,-7.1825,-0.6442,0.5109,-0.2463,75,3.716,71,8.702,4.4568,-9.2577,-0.2034,-0.1811,0.4998,85,4.076,78,2.6986,-4.4749,-15.4264,-0.1522,0.6085,-0.3594,74,85207.412,1647704,-2.7796,0.5979,-9.5009,1.9172,-0.2609,1.9295,46
4.232,81,4.2487,-0.814,-4.5487,-0.9038,-0.2964,-0.8549,75,3.768,72,7.0457,4.3463,-9.1887,0.5233,0.1874,0.2301,85,4.128,79,4.5996,-3.3403,-14.2599,-0.2006,0.1026,-0.6214,74,85207.464,1647705,3.3297,5.7675,-14.9597,0.8833,-0.0507,2.0839,46
4.284,82,8.1585,1.8872,-4.852,0.0148,0.4528,-0.9755,75,3.82,73,6.1302,4.2566,-8.9693,0.4878,0.541,0.0559,85,4.18,80,5.8531,-2.1949,-13.7256,-0.0882,-0.4365,-0.7741,74,85207.516,1647706,3.5873,4.0525,-11.6039,-0.0332,0.6517,2.1966,46
4.335,83,5.5388,-2.0897,-1.8018,-0.6666,1.0129,-0.2582,75,3.871,74,5.1379,3.6622,-8.2943,0.0116,0.8455,0.0352,85,4.232,81,6.7645,-0.7665,-13.8994,-0.1333,-0.7947,-0.8057,74,85207.568,1647707,3.4077,2.7081,-9.3349,-0.7021,1.1643,2.2789,46
4.387,84,2.072,-5.2005,-2.9267,0.1685,1.4216,0.2722,75,3.923,75,3.5214,3.0454,-8.9877,0.497,1.0144,-0.1965,85,4.283,82,7.4141,-0.2707,-13.5405,-0.4536,-1.224,-0.6824,74,85207.619,1647708,2.2906,5.5737,-4.867,-0.5191,0.1867,2.3389,46
4.439,85,0.4394,-5.9188,-7.3175,0.2577,1.72,0.8753,75,3.975,76,6.5009,4.2659,-10.0271,0.4862,0.2841,-0.3298,85,4.335,83,10.6769,-0.0119,-13.1794,-0.5059,-1.5667,-0.8665,74,85207.671,1647709,1.901,5.5257,-2.2099,-0.511,-0.5269,2.3827,46
4.491,86,-1.0229,-2.9653,-6.4802,0.8625,1.9378,0.9336,75,4.027,77,9.6645,5.159,-11.8122,0.5591,0.1989,-0.4904,85,4.387,84,12.8859,-0.3245,-17.6238,0.3073,-1.8169,-0.2485,74,85207.723,1647710,1.6409,5.5093,-0.2236,-0.5706,-1.0476,2.4147,46
4.543,87,-3.3687,-2.0335,-6.762,0.7638,1.5985,0.4487,75,4.079,78,10.6872,4.9732,-12.7431,0.4987,0.1876,-0.5167,85,4.439,85,11.0449,1.4998,-14.3149,0.6798,-1.1488,0.2516,74,85207.775,1647711,1.505,5.5207,1.2289,-0.6935,-1.4277,2.4381,46
4.594,88,2.4273,-0.5199,-12.4325,1.2318,0.4973,-0.3476,75,4.13,79,10.1786,4.5292,-11.9185,0.6315,0.0761,-0.3757,85,4.491,86,9.8104,1.9997,-13.2818,0.1112,-0.1601,0.4811,74,85207.826,1647712,1.4547,5.531,2.2739,-0.8496,-1.7051,2.4551,46
4.646,89,-0.4293,2.0767,-15.5203,1.5734,0.8597,-0.639,75,4.182,80,8.7484,4.1276,-10.944,0.6007,0.1291,-0.1118,85,4.542,87,8.884,3.2182,-13.4537,0.6105,0.5615,0.0798,74,85207.878,1647713,1.4522,5.5483,3.0043,-1.0428,-1.9075,2.4675,46
4.698,90,4.7443,0.7703,-12.702,0.6921,0.4913,-0.5625,75,4.234,81,6.6038,3.6629,-10.1966,0.5723,0.3445,0.059,85,4.594,88,8.603,1.945,-13.523,0.7174,1.0882,-0.5528,74,85207.93,1647714,0.6469,4.1031,1.5455,-0.5624,-2.0553,2.2885,46
4.75,91,4.8117,-1.8808,-7.7597,0.3129,-0.0796,-0.2464,75,4.286,82,4.9903,3.4729,-9.6673,0.5045,0.4326,0.1597,85,4.646,89,9.443,0.165,-15.3483,1.1979,1.4725,-1.0775,74,85207.982,1647715,0.6515,2.9695,-0.4985,-0.2471,-2.1631,1.6219,46
4.802,92,4.43,-1.9655,-3.0722,0.8497,-0.5191,-0.0612,75,4.338,83,4.2241,3.3922,-9.4152,0.6584,0.6657,0.0163,85,4.698,90,9.9275,-1.628,-15.8215,1.5508,1.7531,-1.2768,74,85208.034,1647716,0.6488,2.1483,-2.015,-0.0167,-2.2418,1.1357,46
4.854,93,4.4978,-1.9934,-0.5421,0.6509,-0.2892,0.1266,75,4.389,84,4.2275,3.9294,-9.463,0.5103,0.9983,-0.0252,85,4.75,91,10.017,-6.2132,-19.5521,1.4,0.6702,-0.5399,74,85208.085,1647717,0.6575,1.5496,-3.1532,0.1524,-2.2993,0.7828,46
4.905,94,2.5867,-2.2761,-2.4789,0.4593,0.2864,0.4295,75,4.441,85,7.3233,4.9176,-9.8324,1.0442,0.772,-0.2448,85,4.802,92,1.9867,-7.9431,-22.2749,1.4021,0.4515,-0.2743,74,85208.137,1647718,5.8382,6.0559,-10.3269,0.5912,-2.3412,0.9333,46
4.957,95,1.2546,-2.3272,-5.1328,0.228,0.4977,0.6824,75,4.493,86,8.6315,5.3406,-9.9203,1.1368,0.5288,-0.0692,85,4.853,93,1.1214,-3.5768,-21.7697,1.0608,0.4531,0.0161,74,85208.189,1647719,4.3929,5.053,-8.7309,0.943,-2.3718,1.3414,46
5.009,96,0.6762,-2.5058,-6.9566,0.1623,0.5843,0.9795,75,4.545,87,9.8958,5.4784,-9.2018,0.6365,-0.2194,0.2047,85,4.905,94,3.4481,-2.3582,-19.3433,0.7611,0.3751,0.3024,74,85208.241,1647720,3.2579,4.2698,-7.2894,1.1653,-2.3941,1.6547,46
5.061,97,-2.5322,-0.8382,-7.9816,0.7166,0.7239,0.8447,75,4.597,88,9.7175,4.8288,-8.5907,-0.0939,-0.4036,0.2651,85,4.957,95,5.0299,-2.042,-17.1837,0.5433,0.3867,0.2775,74,85208.292,1647721,2.4148,3.6994,-6.2153,1.2995,-2.4104,1.8834,46
5.113,98,3.2095,-5.8095,-3.2342,1.1974,-0.141,-0.0586,75,4.648,89,8.3163,3.6585,-8.2329,-0.1497,-0.4244,0.1375,85,5.009,96,6.2326,-1.6642,-15.4842,0.3853,0.4175,0.2246,74,85208.344,1647722,1.7817,3.2952,-5.4261,1.3642,-2.4223,2.0503,46
5.164,99,0.69,-0.0445,-5.5093,0.7112,-0.1751,-0.009,75,4.7,90,7.1791,3.0382,-8.2231,0.12,-0.4314,-0.011,85,5.06,97,7.0301,-1.3008,-14.1668,0.3092,0.3984,0.1964,74,85208.396,1647723,0.4971,4.6449,-1.3968,1.357,-2.431,2.0299,46
5.216,100,5.5612,-5.2302,-7.6813,0.3664,-0.7763,-0.0058,75,4.752,91,7.1941,3.0257,-8.3329,0.3666,-0.3827,-0.1977,85,5.112,98,7.5688,-1.0726,-13.0611,0.2381,0.2058,0.2,74,85208.447,1647724,0.0745,1.3843,-0.8705,1.0671,-1.4828,2.1497,46
5.268,101,7.1621,-5.8025,-5.0618,-0.4099,0.0331,0.6606,75,4.804,92,7.3501,3.2132,-8.6668,0.5358,0.0551,-0.3523,85,5.164,99,8.2598,-0.691,-12.462,0.1633,0.0004,0.1484,74,85208.499,1647725,-0.0533,0.5669,-2.9126,1.0273,-0.3935,2.2446,46
5.32,102,2.822,-6.7811,-5.7066,0.3652,-0.0905,0.908,75,4.856,93,7.0977,3.2733,-8.8827,0.8389,0.4873,-0.3636,85,5.216,100,8.3809,-0.8034,-11.9996,0.0847,-0.2525,0.0707,74,85208.551,1647726,3.5004,-0.5789,-6.6592,1.0283,0.4014,2.3139,46
5.372,103,-0.3497,-6.5068,-6.2107,0.898,-0.1882,1.2714,75,4.908,94,5.9214,3.543,-9.2998,1.2766,0.7243,-0.1971,85,5.268,101,8.7528,-0.6319,-11.9563,0.0479,-0.4635,0.0474,74,85208.603,1647727,2.9837,-0.3613,-6.9061,0.0726,0.2181,2.3638,46
5.423,104,-2.5914,-4.2821,-5.9818,1.3298,-0.5202,1.2667,75,4.959,95,5.4173,4.7678,-9.9548,1.6035,0.5284,-0.1232,85,5.319,102,8.9156,-0.3583,-11.6831,0.0125,-0.7127,0.0891,74,85208.654,1647728,2.5125,-0.1321,-7.2409,-0.6249,0.1011,2.4009,46
5.475,105,-1.1802,-3.8388,-5.6705,0.4022,-0.183,0.6169,75,5.011,96,6.4689,5.5062,-10.7749,1.8382,0.2247,-0.2172,85,5.371,103,10.43,-0.34,-11.841,-0.0898,-1.1936,0.2195,74,85208.706,1647729,2.1742,0.0359,-7.4734,-1.1339,0.0267,2.428,46
5.527,106,0.3863,-3.646,-11.8442,-0.3838,0.0383,-0.1117,75,5.063,97,8.0631,6.1458,-11.9504,1.2734,0.4038,-0.215,85,5.423,104,12.878,0.1087,-11.5581,0.0716,-1.5445,0.1502,74,85208.758,1647730,1.9353,0.1603,-7.6317,-1.5055,-0.0131,2.4477,46
5.579,107,3.6543,-0.2588,-13.1468,0.3943,-0.3944,-0.1351,75,5.115,98,7.2271,5.9064,-11.5346,1.3061,0.5554,-0.2998,85,5.475,105,11.0868,-0.7671,-12.0535,0.5759,-1.6284,-0.391,74,85208.81,1647731,1.765,0.246,-7.7517,-1.7766,-0.0308,2.4622,46
5.63,108,5.7967,-2.7053,-11.0384,0.4132,-0.9572,-0.618,75,5.167,99,6.7562,6.264,-11.4956,1.4474,0.6665,-0.2863,85,5.526,106,10.6651,0.1304,-9.0648,1.0968,-1.665,-0.8986,74,85208.862,1647732,0.4207,-2.2274,-12.3327,-1.676,-0.4397,2.4727,46
5.682,109,9.1829,-7.1722,-10.844,-0.1376,-1.333,-0.02,75,5.218,100,6.4842,6.3785,-11.6605,1.3074,0.762,-0.3437,85,5.578,107,10.3975,-0.089,-8.1372,0.5454,-0.5887,-1.3293,74,85208.913,1647733,0.432,-0.6942,-10.8913,-0.9705,-0.984,2.4804,46
5.734,110,11.425,-6.8625,-7.9022,-0.742,-0.5579,0.4283,75,5.27,101,6.392,6.0581,-11.7024,1.2823,1.0696,-0.431,85,5.63,108,10.6553,-1.3978,-8.5216,0.6729,0.2487,-1.6439,74,85208.965,1647734,0.3604,0.4419,-9.6407,-0.4178,-1.3813,2.486,46
5.786,111,8.3566,-7.0772,-7.588,0.1328,0.2752,0.7547,75,5.322,102,6.0882,5.4419,-11.4423,1.1811,1.2944,-0.5208,85,5.682,109,11.4682,-1.6808,-9.4068,1.1677,0.8598,-1.8738,74,85209.017,1647735,5.6214,5.6536,-6.1909,-0.1227,-0.9403,2.4901,46
5.838,112,5.2198,-6.2777,-9.2156,0.0433,0.3588,0.9618,75,5.374,103,4.9558,4.568,-11.3011,0.8417,1.5572,-0.4229,85,5.734,110,12.5106,-2.6816,-11.366,1.5287,1.3059,-2.0385,74,85209.069,1647736,4.2399,4.1516,-7.5627,-0.0087,-0.4831,2.493,46
5.889,113,3.4944,-4.2516,-9.3914,0.706,0.024,0.788,75,5.426,104,4.7875,4.1577,-11.8273,1.286,1.4632,-0.3471,85,5.785,111,10.2621,-2.7492,-13.4883,1.7923,1.6047,-1.9632,74,85209.12,1647737,3.2108,3.0587,-8.1829,0.0818,-0.1355,2.4952,46
5.941,114,2.5599,-4.6585,-6.6939,0.2666,0.0957,0.6453,75,5.477,105,7.1239,5.3817,-11.8483,1.0614,0.7932,-0.035,85,5.837,112,12.7555,-6.8042,-7.2603,0.9074,0.4978,-0.7578,74,85209.172,1647738,2.4393,2.2467,-8.6455,0.1552,0.1294,2.4968,46
5.993,115,1.2317,-3.6656,-7.3396,-0.2662,0.635,0.6722,75,5.529,106,10.1192,5.9593,-11.9523,0.4531,0.7896,0.4058,85,5.889,113,14.5753,-2.3662,-4.212,1.3243,-0.3018,-0.8101,74,85209.224,1647739,1.8431,1.6311,-8.9752,0.2193,0.3354,2.498,46
6.045,116,-0.4259,-2.4494,-13.3533,-0.6512,-0.0951,-0.1627,75,5.581,107,9.019,4.9563,-9.8518,-0.3493,1.2547,0.6583,85,5.941,114,11.3763,-1.3886,-7.8408,1.1319,-0.1383,-0.4673,74,85209.275,1647740,1.3934,1.1757,-9.2216,0.275,0.4953,2.4988,46
6.097,117,4.7468,0.8846,-14.0924,0.1991,-0.3726,-0.7939,75,5.633,108,7.5059,3.3968,-8.7393,0.3623,1.5878,0.8701,85,5.993,115,10.9249,-0.53,-9.3844,0.9061,0.1111,-0.3002,74,85209.327,1647741,1.1868,1.7599,-9.943,0.3269,0.6222,2.4994,46
6.148,118,8.522,-3.2809,-18.2818,0.8197,-0.9413,-0.5949,75,5.685,109,4.9796,2.6733,-8.8313,0.9362,1.3756,0.954,85,6.044,116,10.2924,0.0302,-9.6247,0.6139,0.1385,-0.0697,74,85209.379,1647742,4.5367,3.4407,-6.3585,0.23,0.9365,2.3287,46
6.2,119,8.8666,-0.4569,-15.2648,-0.0791,-0.0069,0.2425,75,5.736,110,4.7443,2.8144,-8.8446,1.3292,1.3459,0.7039,85,6.096,117,10.0534,0.0785,-9.5307,0.3649,-0.0597,0.0938,74,85209.431,1647743,3.402,2.7607,-5.7596,0.132,1.3722,1.3415,46
6.252,120,4.0262,-5.5312,-10.9296,0.6136,0.6772,0.8536,75,5.788,111,4.2004,3.7238,-9.8426,1.6418,1.2963,0.4216,85,6.148,118,9.7097,0.5785,-10.5889,0.1415,-0.419,0.1248,74,85209.482,1647744,-2.7486,-3.243,-12.2291,-0.4244,1.6901,1.351,46
6.304,121,0.7754,-3.7249,-9.6683,0.8344,1.1767,1.2996,75,5.84,112,4.8378,4.6313,-10.4052,1.87,0.8653,-0.0847,85,6.2,119,9.751,0.3909,-10.7191,-0.1296,-0.9515,0.1957,74,85209.535,1647745,-1.1469,-2.3687,-9.3928,-0.9876,1.9222,1.5051,46
6.356,122,-0.9373,-3.5829,-11.8463,1.1648,1.2249,1.6252,75,5.892,113,8.4508,5.4069,-10.1274,1.5909,-0.0411,-0.3948,85,6.252,120,12.3825,0.5747,-11.0217,-0.0628,-1.3679,0.076,74,85209.586,1647746,-0.144,-1.5758,-6.4833,-1.3987,2.0916,1.6139,46
6.407,123,1.3109,-2.1305,-16.6425,0.8868,0.6758,1.2063,75,5.944,114,10.2817,6.2616,-10.9515,1.149,0.0249,-0.2215,85,6.303,121,13.3625,-1.9248,-11.538,0.6291,-1.6717,-0.4065,74,85209.638,1647747,0.5923,-0.9781,-4.3634,-1.6987,2.2152,1.6917,46
6.459,124,2.7663,-5.0592,-15.7903,0.3193,-0.1761,0.2173,75,5.995,115,9.941,5.4525,-9.8229,0.6784,0.0821,-0.0741,85,6.355,122,12.4595,0.3257,-9.5222,1.1357,-1.3657,-0.9707,74,85209.69,1647748,1.1479,-0.5336,-2.8026,-1.9177,2.3054,1.7454,46
6.511,125,-0.1511,-0.0979,-15.1798,0.9074,-0.5416,0.0004,75,6.047,116,8.2721,4.5228,-9.3242,0.8999,0.0511,0.1411,85,6.407,123,10.4717,0.907,-8.3586,0.9474,-0.3632,-1.3825,74,85209.741,1647749,1.5379,-0.2411,-1.6652,-2.0775,2.3713,1.7816,46
6.563,126,4.9474,-1.3699,-11.8646,0.6377,-1.0646,-0.4336,75,6.099,117,6.7377,4.4092,-9.1198,1.281,0.343,0.1468,85,6.459,124,9.5375,0.6843,-8.9652,1.3049,0.4133,-1.683,74,85209.793,1647750,-0.1078,-0.0826,-3.8697,-1.6585,1.1716,1.976,46
6.615,127,8.6684,-4.218,-8.4829,1.1398,-1.2999,-0.4734,75,6.151,118,5.9428,4.6071,-8.8248,1.0318,0.693,-0.1974,85,6.511,125,8.8251,-0.1552,-9.8126,1.4891,0.98,-1.9023,74,85209.845,1647751,-1.2823,1.3707,-2.5564,-0.5573,0.192,2.1178,46
6.666,128,8.104,-5.8383,-3.847,0.1545,-0.2663,0.3311,75,6.203,119,6.2152,3.6557,-8.2955,0.9884,1.1848,-0.8301,85,6.562,126,6.1944,-3.1574,-15.1666,1.4236,1.3936,-1.8597,74,85209.897,1647752,-1.1592,2.5666,-2.145,0.2671,-0.523,2.2214,46
6.718,129,2.9304,-7.066,-5.0164,0.7872,0.488,0.9183,75,6.255,120,4.5971,4.7393,-9.7184,1.3931,1.5438,-1.0941,85,6.614,127,7.3273,2.8086,-19.0741,0.8578,0.3564,-1.0175,74,85209.948,1647753,-5.9169,-3.3846,0.9978,0.8688,-0.263,2.297,46
6.77,130,0.2422,-5.9398,-9.5349,0.2855,1.0386,1.3469,75,6.306,121,6.0654,6.3964,-9.3032,1.3775,1.1353,-0.9412,85,6.666,128,8.3098,1.9166,-19.0232,0.5683,-0.0892,-0.8897,74,85210.0,1647754,-5.9338,-2.1553,-0.0255,1.308,-0.15,2.3521,46
6.822,131,0.5361,-5.8208,-14.1764,0.1624,0.122,1.6596,75,6.358,122,8.1965,7.5238,-9.9282,1.6771,0.4219,-0.9346,85,6.718,129,9.7918,3.0303,-18.3291,0.4481,-0.1177,-0.7957,74,85210.052,1647755,-6.0216,-1.1234,-0.4739,1.6285,-0.1666,2.3924,46
6.874,132,0.1646,-4.6478,-17.7419,0.5397,-0.5803,1.8879,75,6.41,123,7.7542,7.1616,-9.2847,1.4792,0.3452,-0.7941,85,6.769,130,11.5132,3.2337,-16.336,0.4574,-0.3894,-0.7696,74,85210.104,1647756,-6.0807,-0.2787,-0.7855,1.8624,-0.2617,2.4217,46
6.925,133,5.1777,-8.5899,-10.3577,1.0682,-0.2206,0.8993,75,6.462,124,5.8335,6.3747,-8.8354,1.7513,0.1631,-0.5653,85,6.821,131,13.6621,2.0198,-13.0969,0.9525,-0.9576,-1.1525,74,85210.155,1647757,-6.1009,0.4323,-1.0187,2.0332,-0.4304,2.4432,46
6.977,134,1.7742,-5.4552,-13.1407,1.3815,-0.8304,0.1319,75,6.514,125,7.4694,7.9821,-9.4604,1.4473,0.1287,-0.303,85,6.873,132,13.7219,-1.6191,-14.4838,1.3717,-1.363,-1.474,74,85210.207,1647758,-3.205,-2.5968,-2.993,2.1578,-0.3367,2.4588,46
7.029,135,6.3525,-2.2275,-13.8854,1.544,-1.2754,-0.5788,75,6.565,126,7.1565,8.6615,-9.8879,1.2594,0.4382,-0.2193,85,6.925,133,13.2886,0.9645,-11.0702,1.6777,-1.0348,-1.7256,74,85210.259,1647759,-0.1924,-2.3824,-4.6836,2.0485,0.4429,1.762,46
7.081,136,9.6939,-6.8235,-10.1863,0.4495,-0.2691,0.2542,75,6.617,127,6.9031,7.7913,-9.9442,0.5395,0.7586,-0.2554,85,6.977,134,11.3202,-1.1859,-10.6778,1.0275,-0.0769,-1.7621,74,85210.311,1647760,-0.1957,-0.7779,-3.9408,1.8771,1.0119,0.61,46
7.132,137,8.9411,-7.818,-6.9279,0.9271,-0.0687,0.8622,75,6.669,128,5.5886,6.8594,-10.7325,-0.2752,0.8831,-0.342,85,7.028,135,10.2059,-2.1711,-10.935,1.4263,0.6222,-1.7439,74,85210.362,1647761,0.0137,0.3383,-2.9451,1.6948,1.4272,-0.2309,46
7.184,138,5.1303,-8.0501,-6.2288,0.5304,0.2374,1.3059,75,6.721,129,4.6294,5.4372,-10.9437,-0.8703,0.9354,-0.3576,85,7.08,136,10.5435,-2.665,-11.4767,1.4022,1.1325,-1.6072,74,85210.414,1647762,-5.2216,-5.0109,-10.175,0.6663,1.7303,0.2796,46
7.236,139,2.0444,-6.7403,-6.3609,1.0615,0.2758,1.6297,75,6.773,130,3.7406,4.4784,-10.7264,-0.8673,1.0138,-0.3248,85,7.132,137,9.8245,-3.7521,-14.9526,0.6476,1.5049,-0.9694,74,85210.466,1647763,-2.8553,-4.2417,-7.4021,-0.1916,1.9515,0.8798,46
7.288,140,1.1276,-5.9668,-6.5832,1.4491,-0.4395,1.6879,75,6.824,131,5.9978,4.7221,-10.2547,-0.181,0.8593,-0.229,85,7.184,138,7.1583,-7.9755,-18.918,0.5195,1.1371,-0.4929,74,85210.518,1647764,-1.2159,-3.7027,-5.0602,-0.8177,2.113,1.3178,46
7.34,141,2.0133,-3.9728,-9.0058,1.732,-0.9778,1.6136,75,6.876,132,7.4526,5.7168,-10.5707,0.5396,1.0527,-0.1445,85,7.236,139,-0.0997,-11.0579,-18.9113,0.7178,1.2765,-0.717,74,85210.57,1647765,-0.0402,-3.3487,-3.3569,-1.2747,2.2308,1.6375,46
7.391,142,0.6227,-5.6531,-4.0381,1.9385,-0.393,1.6644,75,6.928,133,9.5188,8.6955,-10.0395,0.3707,1.3695,0.2565,85,7.287,140,2.7818,-8.5962,-18.7408,0.4617,0.3092,-0.5925,74,85210.621,1647766,0.8174,-3.0867,-2.1006,-1.6082,2.3168,1.8708,46
7.443,143,-1.9702,1.2641,-3.4085,1.7615,-0.1857,1.5464,75,6.98,134,7.5169,8.4997,-9.0995,0.3116,1.5477,0.4989,85,7.339,141,4.8917,-6.453,-17.9502,0.3585,-0.0164,-0.4007,74,85210.673,1647767,1.5437,-2.8776,-2.0369,-1.8516,2.3796,2.0411,46
7.495,144,3.6197,-3.7349,0.0666,0.6292,-0.8049,0.4535,75,7.032,135,5.5785,7.8733,-8.6261,0.1444,1.397,0.5088,85,7.391,142,6.4109,-4.7875,-16.6664,0.2898,-0.0234,-0.2474,74,85210.725,1647768,1.3657,-1.789,-9.3559,-0.956,1.8065,2.1654,46
7.547,145,7.6994,2.4519,-7.8411,-0.2181,-0.9576,0.2435,75,7.083,136,3.6804,6.8254,-8.4108,-0.1936,1.1141,0.3401,85,7.443,143,7.2552,-3.7006,-15.4497,0.1007,-0.4311,-0.0291,74,85210.776,1647769,-0.5737,-2.4648,-12.1266,-0.0424,1.3699,2.2322,46
7.599,146,9.3304,-3.4082,-5.9591,0.4159,-0.3061,0.6326,75,7.135,137,2.2679,6.2125,-8.5979,-0.0781,0.7785,0.0761,85,7.495,144,7.4832,-2.7117,-14.6888,-0.0396,-0.687,-0.028,74,85210.828,1647770,-0.4453,-1.592,-10.8,0.643,0.4618,2.0581,46
7.65,147,9.8883,-4.093,-4.0681,-0.3738,0.459,1.1384,75,7.187,138,1.9776,6.613,-8.7731,-0.3023,0.1692,-0.3091,85,7.546,145,9.2386,-2.2526,-13.522,-0.0839,-1.1748,-0.2184,74,85210.88,1647771,-0.345,-0.9351,-9.7949,1.1431,-0.2074,1.9304,46
7.702,148,6.5993,-3.953,-4.4109,-0.3443,1.0174,1.2428,75,7.239,139,4.0028,7.097,-9.864,-0.4849,-0.0559,-0.6489,85,7.598,146,12.0085,-2.2242,-11.6115,-0.0671,-1.5308,-0.5161,74,85210.932,1647772,-0.9775,0.7269,-7.5174,0.1564,0.5373,0.7329,46
7.754,149,3.9687,-3.7299,-5.3733,-0.3085,1.425,1.1854,75,7.291,140,6.0492,8.496,-10.0055,-0.7773,-0.5141,-0.9586,85,7.65,147,10.9542,-3.7154,-16.4794,0.5843,-1.7907,-0.5325,74,85210.983,1647773,-1.0087,2.1727,-4.9778,-0.5637,1.0808,-0.1412,46
7.806,150,1.372,-3.7246,-7.8495,0.4057,1.1978,1.5397,75,7.342,141,5.9206,9.1244,-11.6534,-0.4668,-0.6262,-0.8274,85,7.702,148,10.7327,0.2284,-14.3593,0.7379,-0.9526,0.1403,74,85211.035,1647774,-1.06,3.1704,-3.2307,-1.0893,1.4775,-0.7791,46
7.858,151,0.4233,-2.0933,-9.5244,0.9705,0.2252,1.7992,75,7.394,142,6.6903,8.55,-10.9427,-1.0207,-0.8314,-0.4911,85,7.754,149,9.6274,0.7358,-14.0569,0.1456,-0.0169,0.6672,74,85211.087,1647775,-1.1032,3.8779,-1.9677,-1.4729,1.767,-1.2447,46
7.909,152,0.8598,3.8621,-11.1424,1.3827,-0.505,0.724,75,7.446,143,4.8659,7.8195,-10.7791,-1.0449,-1.1426,-0.1548,85,7.805,150,9.7718,1.9311,-14.2185,0.2203,0.666,1.091,74,85211.139,1647776,-1.1615,4.3512,-1.045,-1.7528,1.9783,-1.5845,46
7.961,153,-0.1315,2.9049,-11.2244,0.919,-0.1064,0.1841,75,7.498,144,4.3123,7.5744,-10.531,-0.8333,-1.3741,-0.0084,85,7.857,151,11.0497,2.8655,-14.846,-0.5124,1.1644,1.3083,74,85211.191,1647777,-1.2206,4.6856,-0.3688,-1.9572,2.1325,-1.8325,46
8.013,154,4.9616,0.903,-10.6119,-0.0066,-0.747,-0.5407,75,7.55,145,3.9332,6.8471,-10.3552,-1.126,-1.3126,-0.188,85,7.909,152,10.9273,3.2567,-17.5032,-1.0492,1.5282,1.5233,74,85211.242,1647778,2.2618,4.687,1.7626,-1.9844,2.2451,-1.9625,46
8.065,155,8.6788,-4.5387,-10.5166,-0.6822,0.1117,0.0378,75,7.602,146,4.0412,5.9383,-9.7947,-1.4591,-0.9628,-0.4502,85,7.961,153,9.1492,1.6789,-17.5972,-1.4409,1.0171,1.2713,74,85211.294,1647779,5.9134,3.6255,-1.1987,-2.0201,1.5905,-1.2909,46
8.117,156,7.7394,-4.8737,-8.5323,-1.1753,0.7605,0.3955,75,7.654,147,3.4774,6.1895,-11.1288,-1.3033,-0.6902,-0.3923,85,8.013,154,11.9432,6.5773,-10.2592,-0.3753,0.069,0.8114,74,85211.346,1647780,4.425,2.656,-3.4906,-2.0328,0.9421,-0.6958,46
8.168,157,2.8353,-3.9647,-7.2558,-1.0744,1.2375,0.6331,75,7.706,148,7.4163,8.3115,-10.4739,-1.2946,-0.9927,-0.3253,85,8.064,155,10.8791,6.843,-13.118,-0.7554,-0.5296,0.438,74,85211.398,1647781,3.323,1.9338,-5.2489,-2.0415,0.4693,-0.2611,46
8.22,158,0.6775,-2.4565,-5.9555,-0.9472,0.9097,0.2217,75,7.757,149,5.2428,8.7122,-10.1376,-1.3383,-0.8421,-0.1323,85,8.116,156,10.3871,4.5994,-12.9109,-0.9328,-0.9603,0.2812,74,85211.449,1647782,2.0608,1.6302,-9.4654,-2.1678,0.7848,0.4095,46
8.272,159,0.8017,-2.0424,-4.742,-0.6781,1.2844,0.076,75,7.809,150,4.9797,8.4539,-9.1129,-1.223,-1.1036,-0.0871,85,8.168,157,8.7739,2.6592,-13.9059,-0.9239,-1.0682,0.1387,74,85211.501,1647783,2.03,1.2401,-8.4683,-2.26,1.0604,0.9499,46
8.324,160,2.0835,-2.3387,-4.3554,-0.0955,1.4397,-0.4046,75,7.861,151,5.38,8.7489,-8.7895,-1.1788,-1.4438,0.0058,85,8.22,158,8.7256,1.3342,-14.3284,-0.952,-1.0202,-0.0093,74,85211.553,1647784,2.0118,0.9406,-7.7096,-2.3274,1.2726,1.3593,46
8.376,161,6.5782,-6.9046,-0.5876,-0.1344,1.7176,-0.8097,75,7.913,152,4.1905,8.3045,-8.7536,-1.1286,-1.1397,0.0259,85,8.272,159,10.3989,0.6382,-14.4929,-1.02,-1.1983,0.0075,74,85211.605,1647785,1.9851,0.7266,-7.1431,-2.3765,1.4424,1.658,46
8.427,162,-0.7312,-1.3819,-8.3352,-0.7755,1.2054,-1.0227,75,7.965,153,4.4196,8.6789,-8.7948,-1.2284,-1.5045,-0.0669,85,8.323,160,12.6064,-1.2366,-13.9191,-1.34,-1.548,0.6356,74,85211.656,1647786,1.9812,-0.2477,-6.4162,-2.4123,1.5819,1.872,46
8.479,163,-1.6473,0.514,-7.3411,-0.8305,0.2104,-1.4215,75,8.016,154,4.3081,9.6787,-9.8564,-1.5766,-1.5005,-0.1223,85,8.375,161,12.9485,-0.3354,-12.4285,-1.6393,-0.9886,1.0108,74,85211.708,1647787,1.1115,-2.5153,-8.2304,-2.1841,1.352,2.0419,46
8.531,164,3.8553,-4.8226,-6.5528,-1.2835,0.4981,-0.9864,75,8.068,155,4.5304,10.0083,-10.4903,-1.6147,-1.5499,-0.2826,85,8.427,162,13.9671,-2.9702,-8.7836,-0.8997,-0.4286,1.4155,74,85211.76,1647788,0.7123,-2.9757,-8.8364,-1.4042,1.2004,1.8208,46
8.583,165,7.0315,-3.0589,-4.6903,-0.3712,1.0459,-0.3553,75,8.12,156,4.2471,9.4032,-10.7805,-1.8569,-1.4655,-0.3378,85,8.479,163,13.4766,1.6903,-8.7809,-1.2403,0.3655,1.7108,74,85211.812,1647789,0.5379,-2.0775,-9.1785,-0.5421,1.0092,1.7096,46
8.634,166,4.3994,-2.6707,-5.4389,-0.5923,1.4458,0.1505,75,8.172,157,3.4844,8.289,-10.5136,-1.7955,-1.3592,-0.4317,85,8.531,164,13.8122,2.6291,-9.0334,-1.5776,0.9451,1.9264,74,85211.863,1647790,0.4411,-1.4447,-9.3078,0.0973,0.8627,1.6347,46
8.686,167,0.8364,-2.1131,-5.0542,-0.4065,1.1336,-0.0717,75,8.224,158,2.832,6.7933,-10.604,-1.9585,-1.2979,-0.5154,85,8.582,165,14.1985,4.0503,-10.0187,-1.4208,1.3682,1.9339,74,85211.915,1647791,5.6803,4.2767,-14.8188,-0.2972,1.1623,1.177,46
8.738,168,-0.8884,-1.8446,-4.5396,-0.2086,0.9022,-0.2084,75,8.275,159,4.0161,7.0838,-10.5972,-2.1047,-1.3805,-0.4975,85,8.634,166,13.2826,3.5399,-11.467,-1.7122,1.6769,1.6493,74,85211.967,1647792,3.9887,3.4171,-12.3038,-0.8947,1.5044,0.2911,46
8.79,169,-1.6967,-1.2398,-3.9652,0.2709,0.595,-0.3658,75,8.327,160,4.8792,6.6695,-9.9384,-2.2161,-1.0535,-0.0724,85,8.686,167,12.3592,1.5002,-16.374,-1.7464,1.7135,1.3661,74,85212.019,1647793,2.7426,2.796,-10.4344,-1.3309,1.7436,-0.3545,46
8.841,170,1.3725,-1.466,-2.8527,0.1772,0.4099,-0.4244,75,8.379,161,6.1712,6.2185,-9.3698,-1.6965,-0.7985,0.218,85,8.737,168,14.2861,6.4468,-9.3664,-0.8719,1.2079,0.361,74,85212.07,1647794,1.817,2.3337,-9.0498,-1.6492,1.8971,-0.8253,46
8.893,171,-1.3294,2.1617,-8.353,0.7998,0.9816,-0.5769,75,8.431,162,6.0154,6.8199,-8.3454,-0.5665,-0.9458,0.2741,84,8.789,169,15.6923,9.9682,-6.792,-0.8782,0.2082,-0.2908,74,85212.122,1647795,1.1287,1.9808,-8.021,-1.8815,1.9908,-1.1686,46
8.945,172,4.0873,-3.62,-3.5053,-0.0689,0.0471,-0.1962,75,8.483,163,7.0582,8.7087,-8.2645,-0.1907,-1.1323,0.2592,84,8.841,170,14.6698,6.9789,-8.8846,-0.8784,-0.3695,-0.3587,74,85212.174,1647796,0.6126,1.7047,-7.2681,-2.0511,2.0364,-1.4187,46
8.997,173,-0.9032,1.6898,-3.7934,0.3596,-0.3921,-0.6712,75,8.534,164,6.5668,8.5449,-8.1401,-0.8128,-0.8805,0.173,84,8.893,171,13.2433,3.9355,-10.1552,-0.7766,-0.6268,-0.4955,74,85212.226,1647797,5.2059,4.6711,-13.2068,-2.1749,2.0292,-1.5978,46
9.049,174,4.3984,1.2698,-7.0538,-0.4149,0.3963,0.1868,75,8.586,165,6.0312,7.9874,-8.467,-0.9806,-0.7055,-0.0553,84,8.945,172,12.3533,1.6829,-11.127,-0.7084,-0.7513,-0.5941,74,85212.277,1647798,5.7166,2.8774,-13.4366,-2.1863,1.4145,-0.9723,46
9.101,175,7.5266,-2.2202,-5.8314,0.1215,0.9147,0.8129,75,8.638,166,4.7768,6.5554,-8.7504,-1.3679,-0.5844,-0.2784,84,8.996,173,11.2185,1.2157,-12.0722,-0.8321,-0.8647,-0.5737,74,85212.329,1647799,4.2306,2.1453,-12.3821,-1.6468,0.9723,-0.0339,46
9.153,176,7.4685,-2.1731,-3.1882,0.2631,1.35,1.2378,75,8.69,167,4.2606,5.3929,-8.791,-1.5242,-0.6569,-0.4503,84,9.049,174,10.445,0.7345,-12.647,-0.8357,-0.9467,-0.5522,74,85212.381,1647800,-2.1439,-0.8365,-6.4736,-1.0149,0.5238,0.625,46
9.204,177,5.0485,-2.1941,-4.2062,-0.3928,1.6677,1.0104,75,8.742,168,3.3724,4.9068,-8.4105,-1.3655,-0.5749,-0.4615,84,9.1,175,9.7482,0.3317,-13.2643,-0.942,-1.3248,-0.4764,74,85212.433,1647801,-1.4559,-0.7682,-6.9774,-0.1536,1.0709,0.5961,46
9.256,178,0.8072,-1.6642,-7.8172,0.3475,1.8996,0.9151,75,8.793,169,6.4161,7.3924,-8.3866,-0.6175,-0.8821,-0.5073,84,9.152,176,12.3804,-0.0174,-13.5248,-0.9484,-1.6403,-0.532,74,85212.484,1647802,-1.1275,-0.7595,-6.4026,0.5511,1.4703,0.8039,46
9.308,179,-2.6473,-0.6909,-12.2147,0.9052,0.7729,1.116,75,8.845,170,8.9945,7.7388,-9.4159,-1.1307,-0.6167,-0.5532,84,9.204,177,13.3564,-1.983,-13.2274,-0.2935,-1.8705,0.1735,74,85212.536,1647803,-0.892,-0.7428,-6.0302,1.0747,1.7617,0.9761,46
9.36,180,0.0788,4.3065,-16.0198,1.335,-0.1052,0.4568,75,8.897,171,8.0625,7.05,-9.7258,-1.1418,-0.8473,-0.1504,84,9.256,178,7.6802,-3.2081,-13.4234,0.2647,-0.8012,0.6511,74,85212.588,1647804,-0.7284,-0.7137,-5.759,1.4582,1.9745,1.0993,46
9.412,181,5.1151,0.3691,-16.4963,0.331,0.2677,-0.3418,75,8.949,172,8.1065,8.4854,-9.2149,-0.3365,-0.5587,0.1687,84,9.308,179,8.8224,-0.0476,-13.0221,0.3774,0.0936,1.1529,74,85212.64,1647805,-0.6012,-0.6982,-5.5906,1.7381,2.1297,1.1868,46
9.463,182,8.6911,5.6594,-12.5029,-0.3645,-0.4739,-0.9245,75,9.001,173,6.9945,7.6187,-9.1126,-0.9256,-0.4762,0.253,84,9.36,180,8.8977,2.1868,-14.2235,-0.3998,0.7467,1.5192,74,85212.691,1647806,2.3259,-5.7675,-1.5169,1.0222,2.1797,1.2732,46
9.515,183,11.4008,-0.9186,-16.2771,-0.9434,0.0467,-0.0428,75,9.053,174,5.9306,6.849,-9.4619,-1.299,-0.2438,0.0564,84,9.411,181,9.8642,6.0607,-14.1058,-0.7076,1.2233,1.7183,74,85212.743,1647807,2.9528,-5.212,-2.5359,0.0682,2.2795,1.605,46
9.567,184,12.0639,-2.2675,-10.3996,-1.2995,0.7165,0.6454,75,9.104,175,6.7058,5.8773,-9.8842,-1.1594,0.176,-0.2144,84,9.463,182,9.9671,5.9168,-13.4612,-1.1917,1.5712,1.6251,74,85212.795,1647808,4.0342,0.0717,-9.2808,-0.6281,2.3523,1.8471,46
9.618,185,6.1806,-3.8493,-7.5602,-1.1816,1.2053,1.1477,75,9.156,176,5.8791,4.6465,-10.0991,-0.7136,0.455,-0.315,84,9.515,183,10.1703,5.7905,-14.8783,-1.5449,1.8251,1.5449,74,85212.847,1647809,3.2479,-0.4179,-8.5946,-1.0622,2.4055,2.0238,46
9.67,186,5.0977,1.3294,-5.7817,-0.188,1.5521,1.5143,75,9.208,177,4.86,6.1694,-10.5399,0.1509,0.2973,-0.0515,84,9.567,184,8.2252,3.7695,-18.8637,-1.3782,1.5096,1.2541,74,85212.899,1647810,2.8847,-0.8044,-8.3965,-1.3473,2.4443,2.1527,46
9.722,187,4.9091,6.3602,-10.3747,0.0878,1.8058,0.5814,75,9.26,178,6.9543,7.819,-9.5771,-0.1908,-0.1879,0.2325,84,9.619,185,0.6789,-0.2828,-21.7725,-1.2019,1.515,0.5791,74,85212.95,1647811,2.6276,-1.1137,-8.2511,-1.5183,2.4726,2.2468,46
9.774,188,6.0628,10.0286,-15.5685,0.1236,0.6486,-0.2508,75,9.312,179,6.7767,7.7098,-8.5875,-0.8104,-0.8098,0.0172,84,9.67,186,1.5473,-1.0023,-20.9724,-0.9299,0.7287,0.2369,74,85213.002,1647812,2.4148,-1.3635,-8.1351,-1.6047,2.4933,2.3155,46
9.826,189,4.849,6.8563,-9.8883,-0.3947,0.6354,-0.7798,75,9.363,180,8.2206,7.2118,-8.0348,-1.2715,-1.2637,-0.1532,84,9.722,187,4.4583,-2.0857,-18.9797,-0.5943,0.2847,0.1566,74,85213.054,1647813,2.2371,-1.584,-8.0528,-1.6347,2.5084,2.3657,46
9.877,190,8.5966,7.0684,-14.8464,-0.9654,-0.2056,-1.2442,75,9.415,181,7.66,5.8725,-7.2603,-1.608,-1.1389,-0.7694,84,9.774,188,5.3999,-2.4146,-16.8734,-0.8805,-0.1149,0.4438,74,85213.105,1647814,-3.5988,0.0198,-12.583,-0.5741,1.3775,2.0392,46
9.929,191,11.3318,8.9889,-8.4558,-0.0302,0.5324,-1.1279,75,9.467,182,5.8531,4.3636,-7.5086,-1.8536,-0.7711,-1.0446,84,9.826,189,4.8938,-3.7797,-15.6555,-1.3179,-0.4813,0.5288,74,85213.157,1647815,-2.312,-0.1271,-11.2002,0.2549,0.3424,1.006,46
9.981,192,10.1634,4.3711,-6.3747,-0.6994,1.071,-1.1766,75,9.519,183,4.0729,3.6844,-7.9268,-1.8279,-0.3685,-1.1932,84,9.877,190,1.7256,-4.78,-15.4516,-1.6371,-0.5275,0.5139,74,85213.209,1647816,-1.3675,-0.1888,-10.1086,0.8599,-0.4132,0.2093,46
10.033,193,3.9813,3.5245,-5.2945,-1.1879,1.4641,-1.5338,75,9.571,184,3.4541,3.9394,-8.039,-1.6866,-0.2109,-1.1821,84,9.929,191,6.5251,-1.3327,-17.918,-1.7884,-0.5946,-0.2399,74,85213.261,1647817,-3.5928,-0.9577,-14.0202,0.5929,0.3871,-0.5233,46
10.085,194,-0.0731,-0.0288,-4.6823,-1.5443,1.751,-1.5494,75,9.622,185,3.2949,6.7648,-8.8744,-1.0776,-0.5467,-1.0943,84,9.981,192,7.7245,-0.9393,-17.202,-1.5528,-1.0289,-0.5263,74,85213.312,1647818,-2.4586,0.9372,-9.8297,0.2421,0.9712,-1.058,46
10.136,195,-2.37,-2.4226,-8.4198,-1.4368,1.9603,-0.7021,75,9.674,186,7.3247,8.3507,-9.785,-1.3179,-1.0716,-1.3638,84,10.033,193,10.9034,-2.6746,-17.0709,-1.8085,-1.4244,-0.6636,74,85213.364,1647819,-1.7215,2.2934,-6.7469,-0.088,1.3975,-1.4482,46
10.188,196,-2.4257,-2.5846,-13.0191,-0.3743,1.4952,0.1405,75,9.726,187,10.0036,8.6386,-10.492,-1.539,-0.8472,-1.4304,84,10.085,194,13.2235,-0.0998,-14.2139,-0.6434,-1.713,-0.6464,74,85213.416,1647820,-1.2247,3.2624,-4.5136,-0.4161,1.7086,-1.733,46
10.24,197,-0.0387,3.4512,-16.2862,-0.0352,0.4219,-0.485,75,9.778,188,9.8387,8.3383,-10.3436,-0.5662,-0.7284,-1.3484,84,10.136,195,10.5783,-1.6439,-18.3788,0.0435,-1.6193,-0.6487,74,85213.468,1647821,-0.8978,3.9339,-2.8851,-0.728,1.9357,-1.9409,46
10.292,198,5.0294,5.692,-15.6605,-0.4222,-0.3603,-0.8068,75,9.83,189,9.1102,7.6724,-10.1495,-0.3196,-0.8169,-0.9518,84,10.188,196,9.3577,0.6138,-20.8744,0.7083,-0.6388,-0.1322,74,85213.519,1647822,-0.6904,4.4113,-1.7098,-1.0408,2.1014,-2.0926,46
10.343,199,8.1789,1.9609,-14.6421,0.3662,-0.9323,-1.2639,75,9.881,190,7.284,7.3805,-9.6941,0.0061,-0.869,-0.4629,84,10.24,197,8.3362,0.1861,-17.8949,0.5957,0.2121,0.3378,74,85213.571,1647823,4.8545,8.5507,-1.7476,-0.7873,2.2224,-2.0359,46
10.395,200,10.1236,1.8092,-10.2326,-0.4101,0.002,-0.2458,75,9.933,191,5.6498,6.9661,-9.333,0.0434,-0.948,-0.0304,84,10.292,198,7.5215,2.8892,-16.1025,1.0264,0.8332,0.2376,74,85213.623,1647824,4.9263,8.1238,-4.142,-0.1615,1.6975,-0.8102,46
10.447,201,12.4462,0.8732,-6.1699,0.3751,-0.363,0.3853,75,9.985,192,4.1532,6.3378,-9.2144,0.1701,-0.9018,0.2331,84,10.344,199,7.3416,3.6581,-14.6361,0.2109,1.2864,-0.2185,74,85213.675,1647825,3.4749,5.9455,-5.6873,0.4025,1.2322,0.0844,46
10.499,202,8.8263,-0.1577,-2.0328,-0.0329,0.0469,0.9578,75,10.037,193,3.5426,6.3449,-9.1975,0.3654,-0.7152,0.2628,84,10.395,200,8.4104,3.0676,-14.2841,-0.1541,1.6172,-0.7369,74,85213.726,1647826,-2.6954,-0.9186,-12.1764,0.7951,0.9954,0.6466,46
10.551,203,4.071,0.3842,0.7828,0.3278,0.6126,0.7589,75,10.089,194,3.4096,7.0687,-9.3735,0.618,-0.4468,0.0705,84,10.447,201,9.3805,-1.0993,-17.5037,0.5641,1.8587,-1.1288,74,85213.778,1647827,-1.9926,-0.227,-11.4437,0.5753,1.4106,-0.2042,46
10.603,204,1.2907,-0.0367,-0.5098,-0.4381,1.1295,0.5824,75,10.14,195,6.444,6.6726,-10.45,0.1069,-0.239,0.1654,84,10.499,202,5.7364,-1.6859,-19.7525,0.0187,0.8647,-0.6677,74,85213.83,1647828,-1.3863,0.3079,-10.7611,0.3945,1.7179,-0.8251,46
10.654,205,-0.4814,0.3358,-4.4048,-0.6146,1.5068,0.463,75,10.192,196,9.623,6.0641,-9.6953,0.6791,-0.3498,-0.0357,84,10.551,203,1.5241,-1.6588,-17.1806,0.2186,0.8632,-0.4128,74,85213.882,1647829,-0.9376,0.693,-10.2827,0.2401,1.9425,-1.2782,46
10.706,206,-1.9244,1.3437,-10.9961,-1.1244,0.9325,0.0047,75,10.244,197,9.4084,6.1773,-9.3239,0.7088,0.3919,0.0766,84,10.603,204,1.0237,0.0407,-17.6109,0.2012,0.4622,0.1324,74,85213.934,1647830,-0.6068,0.9686,-9.9291,0.108,2.1064,-1.609,46
10.758,207,3.6531,-4.217,-16.0219,-1.2339,0.0112,-0.114,75,10.296,198,8.2727,5.8484,-8.5831,1.189,0.5606,0.1513,84,10.655,205,3.5302,0.0896,-16.4171,-0.0891,0.2587,0.5288,74,85213.985,1647831,-0.3601,1.1708,-9.6505,-0.0112,2.226,-1.8504,46
10.81,208,-0.442,-6.167,-15.6831,-1.0469,-0.5982,-0.7075,75,10.348,199,6.4875,5.5549,-8.6993,1.0536,1.0574,0.0472,84,10.706,206,5.1689,-0.6599,-14.5284,-0.3317,0.062,0.6596,74,85214.037,1647832,-5.4944,-2.5468,-13.2893,-0.1323,2.1753,-2.0265,46
10.862,209,4.735,-4.0401,-13.1262,-0.0897,-0.4626,-0.742,75,10.399,200,5.2,4.6841,-9.0367,0.8129,1.4465,-0.168,84,10.758,207,6.0349,-1.2817,-13.6559,-0.287,-0.3922,0.5317,74,85214.089,1647833,-5.7605,0.1923,-12.4072,0.0357,1.3697,-1.1477,46
10.913,210,2.9122,-8.1463,-9.5942,-0.7429,0.3448,0.1351,75,10.451,201,4.2106,4.5375,-9.4418,1.265,1.7148,-0.373,84,10.81,208,7.4593,-0.4051,-13.5425,-0.3584,-0.8114,0.4367,74,85214.141,1647834,-4.1186,0.2054,-11.7405,0.1512,0.8354,-0.162,46
10.965,211,1.3823,-9.0708,-8.7864,0.1322,-0.2944,0.7752,75,10.503,202,2.9006,4.2777,-9.7078,1.595,1.7305,-0.4292,84,10.862,209,8.783,0.6419,-13.4374,-0.4429,-1.2656,0.5098,74,85214.193,1647835,-2.8771,0.2027,-11.2707,0.2328,0.4484,0.5575,46
11.017,212,1.1814,-7.577,-9.6678,0.7709,-0.587,1.2424,75,10.555,203,2.9584,4.9864,-9.9919,1.8358,1.3543,-0.6445,84,10.913,210,11.676,2.7086,-12.0988,-0.5502,-1.5971,0.2055,74,85214.244,1647836,-0.6449,1.1752,-13.9081,0.8428,1.0159,-0.2692,46
11.069,213,1.3563,-5.4571,-10.254,0.8854,-0.3981,1.4141,75,10.607,204,6.4433,6.8711,-10.6509,1.707,0.9976,-0.7148,84,10.965,211,13.7874,-0.8621,-9.7333,0.2748,-1.839,-0.4131,74,85214.296,1647837,0.3327,2.5969,-10.0721,1.289,1.4301,-0.8725,46
11.12,214,-1.3809,-4.0317,-9.7138,0.7762,0.1791,1.3198,75,10.659,205,7.6749,9.0189,-11.2744,1.9176,0.6293,-0.5999,84,11.017,212,15.3284,-1.9753,-9.2921,0.8771,-2.0156,-0.9755,74,85214.348,1647838,0.9617,3.675,-7.2955,1.6146,1.7324,-1.3129,46
11.172,215,-2.8344,-2.5031,-9.969,0.2788,0.2144,0.6387,75,10.71,206,7.9256,9.6519,-11.5297,1.431,0.7842,-0.3353,84,11.069,213,15.3992,-3.0653,-8.8512,0.3146,-1.0702,-1.386,74,85214.399,1647839,1.3431,4.4791,-5.2467,1.8515,1.9531,-1.6342,46
11.224,216,-0.2029,-7.0246,-4.6847,-0.4739,-0.4628,0.2138,75,10.762,207,6.1072,8.8756,-10.9093,1.279,0.8114,-0.0208,84,11.121,214,16.5048,-2.9303,-8.4951,0.0316,-0.1027,-1.6856,74,85214.451,1647840,1.5417,5.0733,-3.743,1.9888,2.1141,-1.8688,46
11.276,217,-3.6143,0.2631,-10.012,0.3285,-0.225,0.2051,75,10.814,208,4.9052,8.3149,-10.2026,0.7394,1.1006,0.0931,84,11.172,215,16.4925,-3.6276,-10.092,0.5947,0.6034,-1.9042,74,85214.503,1647841,1.6544,5.5096,-2.6498,2.0154,2.2316,-2.04,46
11.328,218,2.4197,-5.0057,-7.6942,0.7866,-0.8335,-0.4471,75,10.866,209,4.7165,6.3303,-9.8438,1.0823,1.2805,-0.437,84,11.224,216,15.1625,-7.8847,-15.3705,1.1106,1.1187,-2.0638,74,85214.555,1647842,5.9184,6.2272,-5.4262,1.9262,2.3174,-2.1649,46
11.379,219,6.8236,-8.8511,-3.0244,0.086,-0.3476,-0.1325,75,10.918,210,4.1199,6.1362,-10.0077,0.7853,1.6136,-0.82,84,11.276,217,11.4766,-10.9916,-19.2229,1.4871,0.2422,-1.0992,74,85214.606,1647843,8.6799,5.5327,-8.8506,1.8864,1.974,-2.2561,46
11.431,220,7.458,-8.8227,-1.8141,-0.3227,0.3758,0.5768,75,10.969,211,5.842,6.9838,-8.8531,1.0378,1.4178,-1.0062,84,11.328,218,13.485,-12.5043,-18.8104,1.586,-0.3514,-0.61,74,85214.658,1647844,6.5351,4.0553,-8.9786,2.0235,1.3459,-2.3227,46
11.483,221,5.1329,-7.6684,-3.4664,0.4388,0.2506,1.0976,75,11.021,212,4.6963,7.7804,-8.8263,0.7041,1.7138,-0.9061,84,11.38,219,12.1754,-8.9529,-18.4561,1.2988,-0.586,-0.0757,74,85214.71,1647845,-0.4619,-2.2982,-10.8476,1.5035,1.1227,-2.3713,46
11.535,222,1.3374,-7.6623,-4.6705,0.8499,0.8234,1.4777,75,11.073,213,4.2059,8.5013,-9.4943,1.1856,1.9277,-0.6243,84,11.431,220,11.4278,-6.0135,-17.8819,1.0148,-0.6083,0.1961,74,85214.762,1647846,-0.4779,-1.5371,-10.5884,0.7233,0.7377,-2.4067,46
11.587,223,-4.2897,-5.07,-6.6997,1.0168,0.8986,1.7551,75,11.125,214,4.5196,8.3861,-9.0975,1.2279,1.6594,-0.366,84,11.483,221,11.1872,-3.793,-17.3292,0.8991,-0.5086,0.3805,74,85214.813,1647847,-0.5106,-0.9315,-10.3946,0.1588,0.4619,-2.4326,46
11.638,224,-6.4006,-5.762,-9.1288,0.6208,0.7026,1.7872,75,11.177,215,3.7208,6.9776,-9.3693,1.3219,1.3945,0.1479,84,11.535,222,12.5977,-0.7319,-16.3516,0.6934,-0.9424,0.7677,74,85214.865,1647848,-0.5224,-0.4818,-10.2427,-0.2508,0.2636,-2.4515,46
11.69,225,-4.4227,-2.7233,-14.6591,-0.091,-0.1565,0.6293,75,11.228,216,4.1116,6.5122,-9.1126,1.4071,0.7505,0.595,84,11.587,223,12.1438,2.0825,-15.2525,0.6133,-1.3612,0.5585,74,85214.917,1647849,-0.4989,-0.1303,-10.1462,-0.5465,0.1225,-2.4652,46
11.742,226,1.6334,-6.8303,-18.6954,-0.5836,-0.5326,0.2061,75,11.28,217,7.9207,7.3917,-10.3144,1.3985,0.8643,0.7677,84,11.639,224,13.9947,-1.288,-13.4115,0.943,-1.5042,-0.0853,74,85214.969,1647850,-0.4749,0.1492,-10.0648,-0.7604,0.023,-2.4753,46
11.794,227,5.0965,-3.4044,-17.4441,0.2484,-1.058,-0.2653,75,11.332,218,8.4631,7.812,-10.2224,1.6924,1.1491,0.8325,84,11.69,225,15.3101,-2.5281,-15.0174,1.0871,-1.6764,-0.7363,74,85215.02,1647851,-5.5782,-4.9568,-15.3713,-1.0189,-0.6409,-2.4826,46
11.846,228,4.7057,-7.6824,-18.3342,0.8557,-1.4415,0.483,75,11.384,219,7.2751,6.9859,-11.0915,1.6579,1.5178,0.8922,84,11.742,226,15.8871,-3.0785,-12.4828,0.4495,-1.0229,-1.2114,74,85215.072,1647852,-8.0107,-1.7349,-14.9787,-1.4215,-1.0349,-1.9684,46
11.897,229,4.4933,-0.217,-10.79,0.2115,-0.3697,0.9503,75,11.436,220,6.3539,6.3812,-10.895,1.5052,1.7671,0.7759,84,11.794,227,16.4608,-3.6342,-11.0747,0.7952,-0.0682,-1.5581,74,85215.124,1647853,-4.8335,-0.6843,-12.0818,-1.7153,-1.4184,-0.761,46
11.949,230,2.0445,-2.5389,-6.6795,-0.2689,0.4126,1.0486,75,11.487,221,4.1655,5.2191,-10.1457,1.3483,1.6247,0.6905,84,11.846,228,17.1497,-7.0961,-10.3519,1.2394,0.6286,-1.8112,74,85215.176,1647854,-2.5676,0.0273,-9.8582,-1.9298,-1.6983,0.1203,46
12.001,231,1.8298,-3.0745,-8.9918,-0.727,0.9836,1.1006,75,11.539,222,2.5246,3.8813,-9.6834,1.2878,1.6278,0.5619,84,11.897,229,17.1031,-6.3863,-10.4498,1.5811,1.1371,-1.9959,74,85215.227,1647855,3.4844,5.351,-15.2205,-1.6223,-1.1199,0.7635,46
12.053,232,1.279,-1.7997,-8.256,-1.208,1.2927,0.7197,75,11.591,223,1.6091,4.6554,-11.6469,1.5503,1.5498,0.3388,84,11.949,230,14.4874,-9.8981,-15.1687,1.6363,1.5083,-1.9698,74,85215.279,1647856,0.9499,3.4179,-12.1133,-0.5101,-0.1287,1.2329,46
12.105,233,-1.6901,-5.4926,-8.3451,-1.559,1.6259,0.4046,75,11.643,224,6.0943,4.6301,-11.384,1.3024,0.4584,0.1965,84,12.001,231,10.3722,-10.5674,-19.0757,1.4141,1.3397,-1.2972,74,85215.331,1647857,-0.7644,2.0334,-10.0277,0.3016,0.5947,1.5755,46
12.156,234,-3.0811,-7.846,-10.3858,-0.4635,0.7942,0.7248,75,11.695,225,9.3678,4.5012,-9.5353,0.7447,-0.3381,-0.071,84,12.053,232,2.2459,-6.4881,-11.458,0.3751,1.6195,-0.3618,74,85215.383,1647858,-2.0563,1.0949,-8.4878,0.894,1.1227,1.8256,46
12.208,235,-0.4643,-2.9841,-15.5765,0.3361,-0.0897,0.0004,75,11.746,226,11.7569,4.0892,-8.7365,-0.1365,0.4323,0.5091,84,12.105,233,4.1968,-3.9148,-13.6299,0.9467,0.5086,-0.569,74,85215.435,1647859,-3.0431,0.4997,-7.3445,1.3263,1.5081,2.0081,46
12.26,236,4.3742,-5.91,-8.7773,-0.2463,-0.7348,-0.4173,75,11.799,227,8.2386,1.3741,-7.2323,0.5001,0.9946,0.8462,84,12.157,234,5.7372,-1.9228,-14.3555,0.9183,0.1826,-0.6185,74,85215.487,1647860,-3.8037,0.1694,-6.4858,1.6419,1.7791,2.1413,46
12.312,237,2.3932,-9.5111,-14.4026,0.1375,-1.2052,-0.4997,75,11.85,228,6.5813,1.8524,-6.7625,1.0367,0.7729,0.8469,84,12.208,235,6.7527,-0.2884,-14.6183,0.7435,0.1136,-0.3412,74,85215.538,1647861,2.5822,-1.2501,-5.1857,1.8722,1.8969,2.2385,46
12.364,238,6.8043,-5.8135,-10.5174,0.7748,-1.549,-0.6195,75,11.902,229,4.888,3.4271,-6.6203,1.2456,0.5911,0.5105,84,12.26,236,8.0582,0.0168,-13.6018,0.6567,-0.0126,-0.0079,74,85215.59,1647862,7.1958,-0.8835,-6.2673,1.902,0.7268,0.9577,46
12.415,239,9.9983,-9.4406,-5.0849,0.7451,-0.6182,0.205,75,11.954,230,3.0654,4.1195,-7.3369,1.5003,0.5812,-0.0861,84,12.312,237,8.3655,0.4196,-13.2346,0.4309,-0.4903,0.1536,74,85215.642,1647863,5.9322,-1.0415,-7.0394,1.8881,-0.1326,0.0229,46
12.467,240,5.4277,-8.0464,-3.6788,1.2182,0.2312,0.747,75,12.006,231,1.8963,4.2971,-7.061,1.6653,0.7488,-0.7491,84,12.364,238,7.4139,0.6028,-13.6525,0.3283,-0.9077,0.21,74,85215.693,1647864,-0.902,-4.4525,-2.5742,1.2531,-0.7527,-0.6593,46
12.519,241,2.7643,-7.0283,-7.7638,1.5635,0.8512,0.7313,75,12.058,232,3.2862,5.931,-7.4413,1.8669,0.4609,-1.1738,84,12.416,239,9.3487,1.6104,-13.541,0.3342,-1.3359,-0.0374,74,85215.745,1647865,-2.2669,-1.7553,-0.76,0.2367,0.1393,-1.1573,46
12.571,242,3.5753,-4.1645,-11.7782,0.9755,1.2286,0.3308,75,12.109,233,7.3183,8.5816,-8.6066,1.7813,-0.318,-1.2115,84,12.467,240,12.0888,0.4019,-12.328,0.4159,-1.6484,-0.3233,74,85215.797,1647866,-3.4814,0.1009,0.5957,-0.5051,0.7903,-1.5207,46
12.623,243,-2.9229,-3.7874,-14.3756,0.451,1.578,0.0202,75,12.161,234,9.416,8.8487,-9.454,0.7876,-0.7089,-0.9938,84,12.519,241,10.9055,-2.579,-16.2529,0.9621,-1.6264,-0.64,74,85215.849,1647867,-4.3753,1.4004,1.5754,-1.0465,1.2655,-1.7859,46
12.674,244,-1.9753,-3.7858,-17.6185,0.9398,0.4824,-0.5495,75,12.213,235,9.4194,7.6364,-9.9078,0.4761,-0.5296,-0.5284,84,12.571,242,10.2755,-0.221,-14.6363,1.171,-0.7912,-1.1333,74,85215.9,1647868,-5.0549,2.2908,2.2888,-1.4417,1.6123,-1.9795,46
12.726,245,3.6159,-7.9608,-20.8553,1.265,-0.3173,-1.0762,75,12.265,236,7.4284,5.6982,-8.9566,-0.007,-0.4423,0.1685,84,12.623,243,9.3813,-1.9734,-14.6209,0.8253,0.1009,-1.5011,74,85215.952,1647869,-5.5929,2.8825,2.8193,-1.7301,1.8654,-2.1208,46
12.778,246,2.5818,-3.573,-19.1312,1.5969,-0.6276,-0.4133,75,12.317,237,6.7127,4.3942,-8.3673,-0.6852,-0.3277,0.5786,84,12.675,244,7.8863,-3.4673,-13.834,1.2382,0.752,-1.7286,74,85216.004,1647870,-6.0221,3.2033,3.2226,-1.9406,2.0278,-2.2239,46
12.83,247,6.9419,-0.8306,-13.6791,1.8399,-0.6931,-0.0733,75,12.368,238,4.9671,3.5446,-9.0377,-1.1784,0.2296,0.7871,84,12.726,245,9.2464,-4.1044,-13.9686,0.8036,1.2272,-1.7455,74,85216.056,1647871,-3.5115,0.474,-0.3122,-2.0942,0.8725,-0.9474,46
12.882,248,8.2725,-5.8039,-10.4375,0.7019,0.1766,0.6232,75,12.42,239,6.1072,2.7527,-9.2955,-0.9188,0.8227,0.9831,84,12.778,246,7.1675,-6.5181,-18.1998,-0.0402,1.574,-0.9763,74,85216.107,1647872,-0.7794,1.2864,-0.4992,-2.2063,-0.0263,-0.0158,46
12.933,249,0.5054,-2.767,-10.5131,1.1867,0.8113,1.1314,75,12.472,240,7.8059,2.602,-10.1004,-0.0438,1.2751,1.2648,84,12.83,247,10.4969,0.5947,-21.2879,0.303,0.4754,-1.1104,74,85216.159,1647873,2.1157,0.5114,-0.4126,-2.2881,0.6042,0.6642,46
12.985,250,-1.2514,-0.8482,-12.6177,1.5405,-0.0772,1.5024,75,12.524,241,10.2479,3.6707,-10.0868,0.6398,1.5078,1.3536,84,12.882,248,12.9269,2.0707,-18.2686,0.0154,-0.124,-1.2054,74,85216.211,1647874,3.9814,0.1774,-0.3131,-2.3478,1.1276,1.1604,46
13.037,251,-2.409,3.2833,-15.4402,1.7987,-0.7257,1.7732,75,12.576,242,9.0625,4.6286,-7.9346,0.0469,1.3002,1.6533,84,12.934,249,12.1054,2.8429,-18.4086,0.3947,-0.6628,-1.1409,74,85216.263,1647875,5.2547,-0.1747,-0.1882,-2.3914,1.5116,1.5226,46
13.089,252,-5.826,4.7536,-16.2225,1.9871,-1.199,0.723,75,12.627,243,8.1775,5.4397,-5.8352,0.706,0.7021,1.5655,84,12.985,250,12.783,3.4922,-17.5916,0.9646,-0.5874,-0.9496,74,85216.314,1647876,6.15,-0.4847,-0.1287,-2.4232,1.7919,1.787,46
13.14,253,-6.7661,7.3244,-10.8345,2.1247,-0.1926,0.9559,75,12.679,244,5.7815,4.7154,-4.9583,0.8125,0.9713,0.8893,84,13.037,251,12.9316,4.3866,-15.588,1.0711,-0.5121,-0.505,74,85216.366,1647877,9.8469,3.3434,-2.3633,-2.4465,1.9965,1.9799,46
13.192,254,0.1194,0.1479,-15.1079,0.8733,-0.8099,0.5511,75,12.731,245,2.7391,4.5135,-5.2822,0.0755,0.3895,0.2653,84,13.089,252,11.5666,2.4863,-13.5151,0.7357,-0.8211,-0.2951,74,85216.418,1647878,12.5451,3.95,-1.2959,-2.4634,1.9761,2.0462,46
13.244,255,5.1447,0.0421,-9.4258,0.2378,0.0913,1.0169,75,12.783,246,0.2821,3.5837,-6.684,-0.0448,-0.3838,-0.1993,84,13.14,253,11.3969,1.614,-11.7555,0.3726,-1.2727,-0.2136,74,85216.47,1647879,9.0658,2.8449,-3.5355,-2.4321,0.989,0.9626,46
13.296,256,5.3133,-1.9548,-8.7333,-0.5038,0.7491,0.9888,75,12.835,247,5.1257,7.9424,-8.7708,-0.5653,-0.9528,-0.7327,84,13.192,254,13.2369,1.9151,-10.0507,-0.1787,-1.6023,-0.265,74,85216.522,1647880,1.3851,7.4074,-4.6256,-2.1594,0.069,1.1538,46
13.348,257,0.6416,-0.1394,-8.2749,-0.5835,1.2291,0.0466,75,12.886,248,6.3195,6.5188,-11.3216,-1.0926,-0.4321,-0.9672,84,13.244,255,14.9266,-3.8393,-9.4295,-0.274,-1.2632,0.4844,74,85216.573,1647881,1.3146,6.2179,-3.9268,-2.2237,-0.6127,1.5178,46
13.399,258,-2.5137,3.9022,-8.5347,-1.1032,1.5795,-0.6411,75,12.938,249,7.495,6.3053,-11.8716,-0.4274,-0.7326,-0.9949,84,13.296,256,14.1732,-1.6551,-10.7079,-0.7681,-0.2436,1.0306,74,85216.625,1647882,1.2803,5.3113,-4.1456,-2.2915,-1.1103,1.7834,46
13.451,259,-4.8757,4.3332,-14.2255,-1.4826,1.8352,-1.143,75,12.99,250,6.4596,5.9635,-11.5749,-0.6713,-1.047,-0.7581,84,13.348,257,12.5295,-0.9589,-10.345,-0.8316,0.5006,1.4299,74,85216.677,1647883,1.2806,4.6497,-4.2801,-2.3492,-1.4734,1.9773,46
13.503,260,-2.9169,-2.0352,-7.7913,-1.374,0.6701,-1.3281,75,13.042,251,5.4799,4.3769,-11.0837,-1.17,-0.9862,-0.6025,84,13.399,258,11.492,1.9233,-11.4952,-0.9582,1.0437,1.7214,74,85216.728,1647884,1.3058,4.1441,-4.3946,-2.3924,-1.7384,2.1188,46
13.555,261,-4.6232,2.8279,-3.397,-0.3284,-0.0086,-1.1664,75,13.094,252,5.8289,3.056,-10.7803,-1.4829,-0.4456,-0.6138,84,13.452,259,11.2248,2.4764,-14.96,-1.0629,1.4401,1.7484,74,85216.78,1647885,-4.2785,-2.2333,-8.7855,-2.3252,-1.9319,2.2221,46
13.607,262,1.6834,-3.1338,-7.6507,-0.9171,0.587,-0.3354,75,13.145,253,4.9883,2.7392,-10.3013,-1.6696,0.2468,-0.4702,84,13.503,260,7.0466,4.9929,-18.9233,-1.451,1.0314,1.6429,74,85216.832,1647886,-3.0019,-1.4112,-7.8321,-1.0232,-2.0731,1.7307,46
13.658,263,0.2881,-3.8139,-9.3921,0.0051,0.4085,0.1251,75,13.197,254,5.9619,2.7617,-10.1786,-1.1186,0.1159,-0.4066,84,13.555,261,3.3515,8.9959,-21.816,-0.4619,1.0932,0.7661,74,85216.884,1647887,-2.0181,-0.8542,-7.047,-0.0729,-2.1761,1.3705,46
13.71,264,-0.7665,-4.5269,-9.2489,0.2705,0.1556,0.7678,75,13.249,255,8.4665,5.1592,-9.6777,-1.2231,0.3091,-0.0098,84,13.607,262,4.7418,5.7072,-20.8601,-0.7474,0.1245,-0.0987,74,85216.935,1647888,-1.2844,-0.4389,-6.5281,0.6207,-2.2513,1.1097,46
13.762,265,-4.5199,-3.8591,-7.1418,0.8718,-0.5558,1.237,75,13.301,256,6.34,5.772,-8.2998,-0.3441,0.145,0.2121,84,13.659,263,5.4392,3.0838,-19.1723,-0.2858,-0.1851,-0.6953,74,85216.987,1647889,4.4209,5.0107,-12.79,1.1269,-2.3062,0.9857,46
13.814,266,-4.3966,-1.333,-6.6479,1.3106,-0.8831,1.5795,75,13.353,257,7.3659,7.7684,-5.7998,0.4206,0.0988,0.023,84,13.711,264,7.3837,2.2027,-17.8579,-0.2188,-0.7688,-0.861,74,85217.039,1647890,2.8309,4.0469,-9.6675,1.4963,-2.3462,1.3951,46
13.866,267,-0.8197,-3.0417,-6.0754,1.6309,-1.3139,1.8294,75,13.405,258,6.2344,7.0687,-6.483,-0.373,-0.1215,-0.1616,84,13.762,265,10.6547,0.9358,-15.2353,-0.2282,-1.2345,-0.4903,74,85217.091,1647891,1.5248,3.4363,-7.279,1.766,-2.3755,1.6939,46
13.917,268,2.2894,3.17,-12.4306,1.8647,-1.6282,0.6858,75,13.456,259,6.8244,8.7106,-6.853,-0.5939,-0.3886,-0.2828,84,13.814,266,12.8681,2.4547,-14.6831,0.0218,-1.2912,0.2108,74,85217.143,1647892,0.5565,3.0039,-5.4742,1.9628,-2.3968,1.912,46
13.969,269,1.6865,7.7035,-10.2859,1.0216,-1.8068,-0.1746,75,13.508,260,5.484,9.4332,-7.5486,-0.2995,-0.3877,-0.5372,84,13.866,267,13.3657,-1.5265,-11.6312,0.6924,-0.2867,0.8316,74,85217.194,1647893,-1.8201,5.7735,-1.7682,2.1064,-2.4124,2.0711,46
14.021,270,6.2885,6.6485,-6.8536,0.2799,-1.988,-0.8025,75,13.56,261,4.1061,8.066,-7.8346,-0.6563,-0.9556,-0.7714,84,13.918,268,12.9556,2.8384,-11.4413,-0.1698,0.4691,1.2846,74,85217.246,1647894,-6.56,6.7199,-2.5417,2.2112,-2.2857,1.0261,46
14.073,271,9.6472,-0.3453,-8.1164,-0.4731,-0.7685,-0.1445,75,13.612,262,2.9991,6.7695,-8.2747,-1.1563,-1.3701,-1.0441,84,13.969,269,14.1326,4.9693,-11.0507,-0.7992,1.0207,1.6153,74,85217.298,1647895,-3.2907,3.9081,-2.0861,1.8849,-2.1172,0.0728,46
14.124,272,9.6946,-3.6236,-7.0885,-1.0227,0.1215,0.1832,75,13.664,263,4.9498,6.884,-9.7507,-1.5239,-1.2921,-0.9746,84,14.021,270,13.9243,6.094,-11.1951,-1.2585,1.4233,1.6988,74,85217.35,1647896,-2.1788,2.551,-4.0816,1.4733,-2.1364,-0.6229,46
14.176,273,4.9644,-2.4537,-6.4051,-0.9451,0.7711,0.663,75,13.715,264,4.9191,6.3131,-10.4767,-1.6963,-0.5258,-0.8434,84,14.073,271,11.1164,4.7879,-16.1756,-1.4472,1.7172,1.6391,74,85217.401,1647897,3.7682,-3.3563,-10.9843,0.5118,-1.0964,-1.1307,46
14.228,274,-0.9152,1.9735,-5.8318,-0.0154,0.5877,0.9156,75,13.767,265,8.51,7.6069,-7.5219,-1.298,-1.0564,-0.4137,84,14.125,272,5.8535,5.9401,-12.3007,-0.8662,0.9156,1.587,74,85217.453,1647898,2.7199,-1.9612,-10.6938,-0.1966,-0.3331,-1.5013,46
14.28,275,-3.6656,4.7407,-8.6311,0.5839,0.6316,1.0411,75,13.819,266,7.8527,7.505,-7.7814,-0.4993,-0.8246,-0.296,84,14.176,273,0.8265,5.7101,-14.3783,-1.0108,0.8258,1.7209,74,85217.505,1647899,1.759,-0.8741,-10.2167,-0.7356,0.2186,-1.7718,46
14.332,276,-0.3799,6.2706,-14.2959,0.2554,-0.2084,0.0847,75,13.871,267,7.9322,7.1604,-6.8675,-0.1256,-1.2745,-0.2847,84,14.228,274,3.0656,3.0849,-14.1355,-1.0896,0.4413,1.0838,74,85217.557,1647900,1.0297,-0.074,-9.8743,-1.1473,0.6137,-1.9692,46
14.384,277,-5.8096,3.9243,-14.2798,0.4128,0.5303,0.2122,75,13.923,268,8.1577,7.941,-6.7353,-0.7717,-1.5329,-0.2284,84,14.28,275,4.6756,1.1494,-13.3719,-0.9356,0.1358,0.4967,74,85217.608,1647901,0.4708,0.5052,-9.6097,-1.4704,0.892,-2.1132,46
14.435,278,0.8175,3.3296,-11.1596,-0.0635,-0.2823,-0.4976,75,13.974,269,5.7384,6.288,-7.1026,-1.1747,-1.2667,-0.3549,84,14.332,276,5.8945,0.4404,-13.1778,-0.7028,-0.2311,-0.0477,74,85217.66,1647902,-0.0131,0.1512,-9.5438,-1.6847,0.7456,-2.2182,46
14.487,279,5.6543,-2.6976,-10.6074,-0.7237,0.4764,0.1623,75,14.026,270,3.5256,5.1978,-7.7386,-1.172,-1.1717,-0.5687,84,14.384,277,6.8426,0.2572,-12.5811,-0.659,-0.7271,-0.3687,74,85217.712,1647903,-1.571,1.4734,-5.996,-0.5691,0.5178,-1.1582,46
14.539,280,9.1089,-5.0209,-9.3392,-1.2056,1.0301,0.5922,75,14.078,271,1.8047,4.8092,-8.1705,-1.5279,-1.1366,-1.0491,84,14.435,278,6.4867,-0.2158,-12.4798,-1.0317,-1.204,-0.3287,74,85217.763,1647904,-1.4652,1.3195,-6.0647,0.2585,0.3836,-0.1696,46
14.591,281,6.5282,-4.9592,-9.5819,-1.5573,1.4342,0.3357,75,14.13,272,4.2255,8.8368,-8.3487,-1.7951,-1.4978,-1.2349,84,14.487,279,7.5484,0.1727,-14.3925,-1.4282,-1.5522,-0.337,74,85217.815,1647905,-0.7327,1.6647,-2.8505,0.8626,-0.3815,-0.7997,46
14.642,282,3.0323,-3.6954,-12.7063,-1.8139,1.7292,-0.4301,75,14.182,273,7.7333,10.8882,-9.4757,-1.4086,-1.7657,-1.5338,84,14.539,280,10.7749,-2.233,-14.2003,-0.6791,-1.8062,-0.8436,74,85217.867,1647906,-0.0879,1.1037,-3.9228,1.3034,-0.9415,-1.2597,46
14.694,283,-3.3192,1.5551,-16.5343,-1.5521,1.9445,-0.989,75,14.233,274,9.2406,11.7091,-10.061,-1.7068,-1.5701,-1.2679,84,14.591,281,12.2047,2.0889,-15.4068,-0.5663,-1.1104,-0.3691,74,85217.919,1647907,0.3781,0.6947,-4.7628,1.6252,-1.3503,-1.5955,46
14.746,284,-7.7815,3.2973,-17.6647,-1.8102,1.612,-1.3969,75,14.285,275,7.3218,11.2167,-10.4914,-0.88,-1.2098,-0.9126,84,14.642,282,13.9848,-2.7848,-9.7145,0.0325,-0.5952,0.4084,74,85217.97,1647908,0.7125,0.3945,-5.3767,1.86,-1.6486,-1.8405,46
14.798,285,-9.1579,2.8817,-12.9461,-0.6958,1.8589,-0.8949,75,14.337,276,5.2438,8.9724,-10.4754,-1.231,-0.8595,-0.5201,84,14.694,283,13.1466,1.1944,-8.6114,-0.6515,0.244,0.9758,74,85218.022,1647909,0.96,0.175,-5.8218,2.0314,-1.8663,-2.0193,46
14.85,286,-1.6262,5.8055,-17.1429,0.1665,0.6874,-1.3283,75,14.389,277,2.7791,6.4192,-10.2334,-1.346,-0.9232,-0.5871,84,14.746,284,14.0346,2.4766,-9.2139,-1.1507,0.8564,1.3899,74,85218.074,1647910,4.9027,-1.0238,-1.7649,1.9466,-0.8559,-0.8386,46
14.902,287,3.8707,-0.1262,-16.9573,-0.5558,0.2831,-0.3477,75,14.441,278,1.5881,5.0064,-10.1784,-1.5248,-0.9642,-0.8863,84,14.798,285,13.1525,3.5022,-10.9243,-1.5151,1.3034,1.6921,74,85218.126,1647911,3.5757,-1.6258,-3.4767,1.4853,0.064,0.0637,46
14.953,288,5.462,-4.6694,-11.2783,-1.0831,0.5228,0.4228,75,14.492,279,4.224,5.302,-10.4367,-1.7248,-1.1032,-1.1918,84,14.85,286,10.0114,3.5385,-14.5866,-1.781,1.6296,1.8991,74,85218.177,1647912,2.6645,-1.5268,-5.1528,1.1446,0.7354,0.7222,46
15.005,289,-0.417,-8.0064,-7.2122,-0.7413,1.064,0.9852,75,14.544,280,2.4457,4.1021,-11.1835,-1.9389,-0.3142,-0.7367,84,14.902,287,12.5725,7.9345,-18.6509,-0.6328,0.5908,0.712,74,85218.229,1647913,1.9168,-1.8134,-4.6493,0.8221,-0.1264,-0.149,46
15.057,290,-0.3649,-4.6136,-3.3857,0.1333,0.8234,1.3957,75,14.596,281,6.7049,8.3207,-7.2937,-0.7601,-0.701,-0.2745,84,14.953,288,14.4417,8.2657,-19.5062,-1.1342,0.259,0.8592,74,85218.281,1647914,1.523,-2.0923,-5.0136,0.6305,-0.7553,-0.7848,46
15.109,291,2.5415,0.9528,-6.7668,0.7717,1.2834,1.6953,75,14.648,282,7.955,7.8889,-6.1163,0.117,-0.4908,-0.2324,84,15.005,289,13.1472,5.0773,-18.052,-0.8802,0.1992,0.3892,74,85218.333,1647915,1.2514,-2.303,-5.3167,0.5414,-1.2144,-1.2488,46
15.16,292,5.2927,3.1785,-12.9353,0.7153,0.3692,0.6579,75,14.7,283,6.8089,8.3244,-6.6925,0.6109,-0.3609,0.1653,84,15.057,290,12.0687,3.1239,-16.5509,-0.7432,0.228,-0.0196,74,85218.385,1647916,1.0645,-2.4765,-5.5257,0.5187,-1.5494,-1.5875,46
15.212,293,2.0639,5.4577,-15.9722,1.1964,0.9519,0.2904,75,14.752,284,4.73,7.9454,-7.4536,0.4238,-0.237,0.5322,84,15.109,291,11.304,2.1118,-15.3312,-0.6117,0.2944,-0.1993,74,85218.437,1647917,0.9697,-2.6035,-5.6775,0.5529,-1.7939,-1.8347,46
15.264,294,6.5639,-1.2144,-9.0661,0.1958,0.0254,-0.4632,75,14.803,285,4.0102,8.7559,-7.944,0.4635,-0.0523,0.3479,84,15.161,292,10.5808,1.0242,-14.1398,-0.7169,0.2793,-0.2394,74,85218.488,1647918,5.656,1.6691,-2.5737,0.7522,-1.9723,-1.8852,46
15.316,295,5.8833,4.5036,-12.851,-0.5345,-0.5959,-1.0132,75,14.855,286,3.7711,8.4732,-8.307,-0.3418,0.1899,-0.0418,84,15.212,293,10.0949,-0.5733,-13.1342,-0.6559,0.1232,-0.3407,74,85218.54,1647919,6.7879,6.5493,-4.9101,0.0755,-1.9495,-0.7002,46
15.368,296,7.7312,-1.0397,-7.0109,0.2843,0.2475,-0.7832,75,14.907,287,3.0112,7.7463,-8.4939,-0.4478,0.5444,-0.418,84,15.264,294,9.655,-0.4667,-12.6373,-0.4937,-0.1308,-0.4384,74,85218.592,1647920,5.5329,5.1496,-6.0113,-0.3915,-1.5784,0.1646,46
15.419,297,5.3369,-2.8577,-2.5258,-0.4699,0.8626,0.1014,75,14.959,288,2.1066,6.5197,-8.931,-0.0278,0.5159,-0.755,84,15.316,295,9.3319,-0.4648,-12.244,-0.383,-0.4797,-0.5517,74,85218.644,1647921,4.4342,4.1648,-6.875,-0.7437,-1.264,0.7959,46
15.471,298,2.3285,-2.6761,-3.5802,0.3314,1.312,0.7507,75,15.011,289,0.1865,5.3079,-9.7225,-0.7003,0.2338,-0.8907,84,15.368,296,9.5962,-1.1248,-12.0159,-0.4417,-1.0235,-0.6566,74,85218.695,1647922,4.1806,3.9252,-5.7716,-0.4611,-0.2339,-0.0952,46
15.523,299,1.7944,-5.057,-4.5592,0.9163,1.5877,1.2245,75,15.062,290,1.3891,7.6948,-8.5381,-0.2249,-0.502,-1.1618,84,15.419,297,12.2695,-2.5341,-10.3418,-0.9659,-1.4204,-0.7368,74,85218.747,1647923,3.1865,3.9628,-5.7214,-0.3022,0.518,-0.7456,46
15.575,300,1.9559,-2.0296,-9.5075,1.3431,1.8412,1.5704,75,15.114,291,5.9337,10.9428,-8.7275,0.2934,-0.8785,-1.1617,84,15.471,298,14.2205,-2.8536,-11.9345,-0.6906,-1.7101,-0.4121,74,85218.799,1647924,2.4563,3.9784,-5.6773,-0.2343,1.0667,-1.2202,46
15.627,301,6.4851,0.4016,-14.9355,1.4181,0.6744,0.5331,75,15.166,292,6.5551,10.0164,-8.7552,-0.4659,-0.6567,-1.0861,84,15.523,299,14.5861,-1.5524,-9.3163,-0.2927,-1.2467,0.3542,74,85218.851,1647925,1.8997,3.9913,-5.6267,-0.2426,1.4672,-1.5666,46
15.678,302,0.7877,0.1418,-13.3103,0.5001,1.1747,-0.286,75,15.218,293,5.9837,8.5988,-8.8553,-0.6527,-0.8511,-0.8592,84,15.575,300,13.5376,2.3293,-9.6771,-0.4141,-0.2316,0.9312,74,85218.902,1647926,1.4669,3.9985,-5.574,-0.3058,1.7595,-1.8194,46
15.73,303,5.5528,-4.68,-7.1233,-0.3124,0.188,-0.8839,75,15.27,294,4.8997,8.0671,-9.0829,-0.5474,-0.8092,-0.591,84,15.627,301,11.7282,4.2004,-9.8116,-0.6192,0.5093,1.1217,74,85218.954,1647927,1.5435,2.5505,-2.2857,-0.3147,1.9041,-2.004,46
15.782,304,9.1103,-4.7526,-10.8251,0.4464,-0.5321,-1.3202,75,15.321,295,3.8871,6.8693,-9.3477,-0.7507,-0.8224,-0.356,84,15.678,302,10.5391,2.0202,-13.2353,0.2006,1.0501,0.7068,74,85219.006,1647928,-0.9504,1.5264,0.8952,-0.9076,0.7955,-2.1386,46
15.833,305,11.6125,-4.3273,-7.3165,-0.3516,0.294,-0.352,75,15.373,296,4.4961,6.9902,-8.9848,-0.4474,-0.8765,-0.4121,84,15.73,303,10.1689,1.8582,-16.856,-0.0936,1.4448,0.5103,74,85219.057,1647929,-0.2943,1.0946,0.2283,-1.3403,-0.0825,-2.2369,46
15.885,306,10.9376,-3.6393,-4.8875,-0.934,0.897,0.0397,75,15.425,297,4.543,6.5823,-7.9793,-0.6478,-0.9488,-0.3059,84,15.782,304,5.0374,-2.4505,-20.3072,0.6082,1.7037,0.1623,74,85219.109,1647930,-0.6344,0.5401,-0.9018,-1.6561,-0.7233,-2.3087,46
15.937,307,7.6232,0.2514,-3.9431,-1.2465,1.3371,-0.108,75,15.477,298,3.9311,6.1104,-6.959,-1.026,-0.5421,-0.1991,84,15.834,305,4.8282,-3.3222,-18.0911,0.005,1.2055,0.2542,74,85219.161,1647931,-5.6946,-1.6776,1.9052,-1.8865,-1.0454,-2.3396,46
15.989,308,5.02,2.6955,-4.6435,-1.4538,1.6583,-0.7539,75,15.529,299,3.4139,5.7209,-6.6464,-0.2196,-0.4335,-0.0326,84,15.885,306,5.7519,-2.9195,-17.0354,-0.1401,0.5442,0.1187,74,85219.213,1647932,-4.869,-1.1827,1.2665,-2.0548,-1.4261,-2.3836,46
16.041,309,1.5668,0.2884,-8.087,-1.7385,1.8927,-1.2254,75,15.58,300,3.8627,7.0488,-6.9918,0.5115,-0.6519,0.0004,84,15.937,307,7.4256,-2.3429,-15.5406,-0.2072,0.2305,0.1766,74,85219.264,1647933,-4.277,-0.8483,0.8372,-2.1775,-1.7039,-2.4157,46
16.092,310,-4.3888,1.502,-9.7425,-0.5944,1.8527,-0.8294,75,15.632,301,4.7207,7.5776,-6.8386,-0.1089,-0.8833,0.3179,84,15.989,308,8.8469,-2.2439,-14.7592,-0.4857,-0.121,0.4128,74,85219.316,1647934,-3.8471,-0.656,0.5163,-2.2671,-1.9067,-2.4392,46
16.144,311,-5.7679,1.2213,-15.107,-0.8174,0.7471,-1.2804,75,15.684,302,4.1609,7.0162,-6.904,-0.4609,-0.657,0.4369,84,16.041,309,9.7698,-1.3475,-13.9537,-0.5928,-0.7419,0.4844,74,85219.368,1647935,-3.5253,-0.5414,0.2917,-2.3325,-2.0547,-2.4563,46
16.196,312,-0.0998,2.8025,-19.0223,-0.7606,1.1767,-0.9901,75,15.736,303,3.5005,6.8235,-6.7414,0.037,-0.9854,0.4165,84,16.093,310,12.3961,2.8697,-12.0165,-0.919,-1.2148,0.6716,74,85219.42,1647936,-3.3032,-0.4898,0.0951,-2.3802,-2.1627,-2.4688,46
16.248,313,4.9848,5.5993,-18.2842,-1.2302,0.1895,-1.3977,75,15.788,304,5.4588,8.6836,-6.8834,0.0192,-1.1625,0.0348,84,16.144,311,14.313,-3.1426,-10.2625,-0.9092,-1.4046,0.5646,74,85219.472,1647937,-7.6424,4.9736,-7.9562,-2.322,-2.0386,-2.4779,46
16.3,314,8.6957,-1.1111,-21.0546,-1.5657,-0.5311,-1.6952,75,15.839,305,6.0422,8.5274,-7.5811,-0.6006,-0.8816,-0.2213,84,16.196,312,12.2059,-0.8158,-12.5632,-0.6245,-1.0869,-0.0704,74,85219.523,1647938,-6.2018,7.0276,-11.0953,-1.0208,-1.0919,-2.4845,46
16.351,315,11.4041,4.579,-12.7754,-0.4684,-1.0569,-1.3746,75,15.891,306,5.9351,7.779,-8.0386,-0.3995,-0.498,-0.4136,84,16.248,313,10.4919,-1.1201,-10.8037,-0.7193,-0.1149,-0.3415,74,85219.575,1647939,-2.7622,6.0063,-8.1641,-0.0712,-0.1084,-2.4894,46
16.403,316,10.5685,-0.3441,-6.7898,-0.122,-0.089,-0.6182,75,15.943,307,5.821,6.9657,-8.4337,-0.0983,-0.2934,-0.5968,84,16.3,314,9.4803,-0.9921,-10.6824,-0.5103,0.5945,-0.54,74,85219.627,1647940,-0.303,5.3827,-5.9497,0.6219,0.6096,-2.4929,46
16.455,317,5.2083,-2.7655,-5.7185,-0.7664,0.6175,-0.1258,75,15.995,308,4.6557,5.8219,-9.0604,-0.114,0.1496,-0.6939,84,16.352,315,10.1016,-1.6761,-11.1803,-0.1497,1.1122,-0.7359,74,85219.679,1647941,-1.7734,4.7543,-10.2263,0.9386,0.3239,-1.1437,46
16.507,318,4.3293,-4.892,-7.484,-1.2367,1.1331,0.5848,75,16.047,309,2.8753,5.0103,-9.8009,0.5885,0.3881,-0.8948,84,16.404,316,11.2409,-1.9587,-13.2346,0.5673,1.4901,-1.0423,74,85219.73,1647942,-1.7571,3.885,-9.8798,1.3493,0.1738,-0.1591,46
16.559,319,3.078,-3.6215,-10.2982,-0.2282,1.3706,0.7022,75,16.099,310,3.1209,6.5858,-9.9512,0.6761,0.0759,-0.6979,84,16.455,317,7.8515,-4.8978,-17.6641,-0.112,0.4608,-0.2906,74,85219.782,1647943,-1.7247,3.2698,-9.7209,1.6453,0.0548,0.5596,46
16.61,320,4.8091,1.7952,-12.6735,0.3703,0.504,-0.0772,75,16.15,311,6.9804,9.3645,-9.5908,1.0407,-0.1283,-0.6023,84,16.507,318,3.3443,-4.0004,-17.374,-0.5064,-0.2436,0.1483,74,85219.834,1647944,-1.6844,2.8154,-9.6097,1.8584,-0.0397,1.0841,46
16.662,321,7.8868,-3.4064,-15.5997,0.3574,1.027,0.2237,75,16.202,312,7.7415,10.3768,-9.474,0.8387,0.1685,-0.2582,84,16.559,319,7.6653,-2.9293,-16.8286,-0.2269,-0.7074,0.2621,74,85219.886,1647945,-1.6406,2.4736,-9.5352,2.0088,-0.1166,1.4669,46
16.714,322,1.5372,-0.7023,-19.0706,-0.1483,0.3387,0.1468,75,16.254,313,7.2977,11.2967,-8.8147,1.2803,0.7092,-0.1035,84,16.611,320,9.2642,-1.815,-16.3222,-0.3803,-0.5485,0.3178,74,85219.938,1647946,-6.4289,7.1364,-14.7088,2.14,0.2254,1.7463,46
16.766,323,3.1232,-1.346,-16.7316,-0.2238,-0.4221,-0.568,75,16.306,314,4.1613,9.7042,-9.0735,0.8557,1.1714,-0.0748,84,16.663,321,9.6704,-0.4028,-14.6651,-0.4925,-0.4243,0.2474,74,85219.989,1647947,-7.3484,4.4485,-10.3116,1.4818,0.3107,1.9502,46
16.818,324,7.3371,-4.0808,-13.6339,-0.8128,-0.9774,-1.0897,75,16.357,315,3.3473,7.8407,-8.6561,0.3579,1.3584,-0.1818,84,16.714,322,9.6941,0.3503,-10.537,-0.3088,-0.8703,-0.2349,74,85220.041,1647948,-6.3478,6.5306,-9.417,0.4036,0.1682,1.8862,46
16.869,325,9.1235,-6.0278,-10.4995,0.0812,-0.3149,-0.3346,75,16.409,316,2.454,5.89,-9.01,-0.214,1.6705,-0.2851,84,16.766,323,10.0283,-2.1232,-9.7127,0.4511,-1.3086,-0.8269,74,85220.093,1647949,-7.4644,1.787,-5.4937,-0.3833,0.1752,1.2358,46
16.921,326,7.964,-7.6245,-9.2823,0.7336,-0.2545,0.2044,75,16.461,317,2.3034,6.9877,-8.9706,-0.4166,1.8562,-0.1814,84,16.818,324,11.8513,-0.9386,-7.1159,0.2866,-1.5978,-1.2731,74,85220.145,1647950,-5.611,1.3971,-5.5604,-0.9576,0.2451,0.4118,46
16.973,327,5.8303,-7.7363,-9.7818,1.2098,-0.8551,0.6603,75,16.513,318,3.5871,7.5681,-9.2224,-0.0128,2.0225,0.124,84,16.87,325,11.8501,-1.2744,-5.1526,0.8467,-0.7968,-1.6032,74,85220.196,1647951,-4.2131,1.0915,-5.6895,-1.3768,0.277,-0.1872,46
17.025,328,-0.6932,-6.3522,-10.449,1.4925,-0.4897,1.1585,75,16.565,319,0.6122,7.5117,-9.5994,0.6624,2.1552,0.1886,84,16.921,326,11.4149,3.1962,-3.1417,0.2555,0.0968,-1.8441,74,85220.248,1647952,-2.8539,0.4051,-2.9676,-1.6827,-0.461,-0.6257,46
17.076,329,-2.2981,-6.1333,-9.7052,1.762,-0.8975,1.5222,75,16.616,320,0.4457,7.6995,-10.5098,1.1552,1.9522,0.1292,84,16.973,327,13.1411,-1.8948,-7.9495,0.863,0.749,-1.9827,74,85220.3,1647953,-2.1889,-0.0923,-1.2706,-1.906,-0.9995,-0.9528,46
17.128,330,-0.7984,-5.2646,-9.8236,1.9604,-0.9569,1.7876,75,16.668,321,3.3293,7.575,-8.8276,1.2369,1.3574,-0.2756,84,17.025,328,13.5549,-6.6199,-13.8068,1.3064,1.225,-2.1211,74,85220.352,1647954,-1.7294,-0.4621,0.023,-2.069,-1.3926,-1.1985,46
17.18,331,-0.5025,-2.7014,-9.123,1.6286,-0.3735,1.9492,75,16.72,322,7.3498,9.2162,-8.6182,1.5745,0.6028,-0.3994,84,17.077,329,6.7504,0.5204,-9.6544,0.2782,0.2207,-1.8157,74,85220.403,1647955,-1.4014,-0.7463,0.9814,-2.1879,-1.6794,-1.3839,46
17.232,332,4.6909,-7.1693,-4.0672,0.5112,0.4059,1.7647,75,16.772,323,8.6122,12.0533,-10.0581,0.6472,1.1191,-0.1121,84,17.129,330,10.1571,2.2374,-11.301,0.6875,-0.3763,-1.5056,74,85220.455,1647956,-1.1461,-0.9688,1.6952,-2.2747,-1.8888,-1.5275,46
17.284,333,-0.3994,-1.1016,-0.3773,0.0307,0.3968,0.6885,75,16.824,324,7.2488,9.8978,-10.6129,0.1,1.4958,0.1966,84,17.18,331,10.4069,3.22,-12.8088,0.736,-0.4647,-1.3573,74,85220.507,1647957,-1.2362,-1.6974,-6.7883,-2.338,-2.0416,-1.691,46
17.335,334,4.7661,-1.0864,-4.3464,0.668,-0.3798,-0.1726,75,16.875,325,4.8857,7.3912,-11.6963,0.6862,1.7708,0.5634,84,17.232,332,12.8538,4.7265,-12.4019,1.0496,-0.4012,-1.053,74,85220.559,1647958,-1.456,-1.694,-8.5397,-2.3843,-2.1532,-1.9102,46
17.387,335,8.5361,-5.9906,-11.1687,-0.1623,-0.9465,-0.8011,75,16.927,326,2.3426,6.4819,-12.8243,1.1726,1.9715,0.8744,84,17.284,333,12.1555,4.8815,-11.1439,0.8178,-0.5151,-0.6887,74,85220.61,1647959,0.0029,-3.4172,-14.0476,-1.6853,-1.4163,-1.7928,46
17.439,336,11.2877,-3.1214,-6.2844,0.5559,-1.3601,-1.2475,75,16.979,327,-1.055,5.414,-13.6128,1.5275,2.118,1.1017,84,17.336,334,11.5364,4.8515,-9.0225,1.1432,-0.9824,-0.9123,74,85220.662,1647960,0.051,-2.5852,-11.8697,-0.9562,-0.345,-1.5614,46
17.491,337,12.0246,-4.8517,-1.9955,-0.2624,-0.3881,-0.682,75,17.031,328,-0.4148,7.8824,-13.6662,1.4874,1.0419,0.4344,84,17.388,335,10.0047,-0.004,-8.0924,1.5109,-1.3866,-1.1591,74,85220.714,1647961,0.1155,-1.6577,-9.6573,-0.4176,0.4369,-1.4769,46
17.543,338,7.1394,-6.5697,-0.1866,-0.6804,0.3992,-0.1267,75,17.083,329,3.5358,9.0361,-13.0667,0.7146,0.3249,-0.1989,84,17.439,336,10.3227,-2.1444,-7.6092,0.5218,-0.9933,-1.52,74,85220.766,1647962,-5.1473,-6.4677,-4.4849,0.1078,0.8578,-0.6554,46
17.594,339,4.4802,-5.7932,-3.3641,-0.6073,0.9737,0.0885,75,17.135,330,6.4762,11.4491,-14.517,1.1932,-0.2999,-0.5927,84,17.491,337,12.0012,-4.7949,-8.9343,0.8901,-0.1548,-1.7834,74,85220.817,1647963,-4.1096,-3.8459,-6.3415,0.693,0.2441,0.1973,46
17.646,340,2.0426,-9.4258,-9.9031,-0.9624,1.3931,0.7412,75,17.186,331,5.5599,12.1381,-15.6627,1.0157,-0.6765,-0.3138,84,17.543,338,14.0248,-6.759,-9.5861,1.3261,0.5654,-1.9756,74,85220.869,1647964,-3.4643,-1.8603,-7.0882,1.1084,-0.2018,0.8197,46
17.698,341,-1.4604,-12.0301,-15.1882,-0.6633,0.4904,1.2176,75,17.238,332,4.1311,12.1435,-10.7983,0.0613,-1.1664,-0.4371,84,17.595,339,15.4776,-7.3975,-9.9117,1.6444,1.091,-2.1159,74,85220.921,1647965,-2.9395,-0.406,-7.6406,1.3812,-0.5274,1.274,46
17.75,342,1.8709,-8.2114,-19.0815,0.1551,-0.3114,1.1012,75,17.29,333,7.6001,9.2568,-9.7334,-0.5379,-0.6635,-0.9876,84,17.646,340,13.6966,-9.194,-13.457,1.8754,1.4746,-2.1795,74,85220.973,1647966,-2.5125,0.6495,-8.0607,1.5545,-0.7633,1.6055,46
17.802,343,6.4231,-4.4607,-21.923,-0.2648,0.2592,1.4803,75,17.342,334,10.3621,6.9356,-8.9265,-0.6189,0.1948,-1.2175,84,17.698,341,7.9333,-11.9472,-17.8264,2.0453,1.7546,-2.183,74,85221.024,1647967,-2.1533,1.3856,-8.3793,1.6508,-0.9312,1.8474,46
17.854,344,5.3662,-2.5671,-23.9969,0.3695,-0.4802,0.7345,75,17.394,335,9.3848,4.7897,-9.4051,-0.0752,0.8213,-0.9901,84,17.75,342,0.4659,-11.549,-10.4264,1.6783,0.7752,-1.9294,74,85221.076,1647968,-6.8031,6.3423,-3.5522,1.8116,-1.0332,2.024,46
17.905,345,8.2182,-7.0713,-20.2126,0.8939,-1.0198,0.4007,75,17.445,336,9.7342,8.8226,-9.4414,0.4019,1.2785,-0.4388,84,17.802,343,4.0817,-7.1898,-12.3376,1.8379,-0.0138,-1.4255,74,85221.128,1647969,-10.1968,1.7721,-1.3313,0.6443,-0.1444,2.1529,46
17.957,346,11.0556,-7.5441,-13.6334,1.1564,-1.2724,0.8566,75,17.497,337,6.8883,8.5236,-10.2338,-0.3867,1.6122,0.3451,84,17.854,344,5.5294,-4.8764,-13.5106,1.2345,-0.145,-0.9328,74,85221.18,1647970,-8.4614,-0.1586,-1.5416,-0.2076,0.5833,2.247,46
18.009,347,7.3815,-3.8104,-7.3591,1.5184,-1.04,1.3018,75,17.549,338,4.5188,6.4756,-9.6503,-0.3096,1.8344,0.9172,84,17.906,345,6.5648,-2.7809,-13.9652,0.9156,-0.0537,-0.5541,74,85221.231,1647971,-5.5271,-0.5481,-1.8882,-0.8294,1.1144,2.3156,46
18.061,348,2.3575,-1.7002,-2.9421,1.7407,-1.3422,1.2025,75,17.601,339,1.5755,8.3731,-10.5061,-0.049,2.0179,1.3348,84,17.957,346,7.4963,-1.7786,-13.9286,0.6919,-0.0725,-0.4077,74,85221.283,1647972,-3.3533,-0.8387,-2.1682,-1.2832,1.502,2.3658,46
18.112,349,0.7135,-3.7475,-4.2948,0.5931,-0.7331,0.2026,75,17.653,340,-0.4682,8.4529,-12.1297,-0.3787,1.4821,0.7919,84,18.009,347,8.1552,-0.3088,-13.168,0.5849,-0.0849,-0.1224,74,85221.335,1647973,-1.7133,-1.065,-2.3767,-1.6144,1.7849,2.4023,46
18.164,350,1.5752,-7.9171,-8.3089,1.0228,-0.1224,-0.3967,75,17.704,341,-1.1049,10.3343,-14.5766,0.3953,0.7786,-0.1031,84,18.061,348,9.9634,-0.3435,-12.0939,0.1334,-0.6851,-0.1596,74,85221.387,1647974,0.3389,0.6451,-7.8286,-0.5044,1.988,1.0773,46
18.216,351,3.6221,-10.976,-11.0184,0.0691,0.4607,0.2887,75,17.756,342,4.1135,12.8693,-14.5602,0.9603,-0.1044,-0.6304,84,18.113,349,12.1161,1.8808,-9.3208,0.4508,-1.1734,-0.4318,74,85221.439,1647975,1.8294,2.0243,-7.227,0.3058,2.1396,0.1102,46
18.268,352,-1.0501,-10.1222,-12.7965,0.7248,0.6201,0.8543,75,17.808,343,7.5596,14.7194,-13.9248,1.3726,-0.7489,-0.5901,84,18.165,350,13.4512,1.3235,-7.85,0.7466,-1.359,-0.6295,74,85221.49,1647976,2.8018,3.1679,-6.796,0.897,2.2502,-0.5957,46
18.32,353,3.2609,-6.2954,-17.336,1.2034,-0.2167,0.5934,75,17.86,344,7.9895,12.0696,-11.2947,0.7381,-0.5228,-0.3912,84,18.216,351,15.083,-3.6751,-8.5716,1.1265,-1.5586,-0.3114,74,85221.542,1647977,3.4133,4.077,-6.47,1.3286,2.331,-1.1108,46
18.371,354,7.4376,0.3564,-20.6491,0.7033,0.1863,1.0555,75,17.912,345,6.7573,11.3377,-10.8051,0.7758,-0.4877,0.2624,84,18.268,352,13.1396,-2.4522,-10.1268,0.4875,-0.5248,-0.7459,74,85221.594,1647978,3.748,4.8177,-6.2118,1.6435,2.3899,-1.4868,46
18.423,355,3.3523,-3.7071,-20.1825,-0.005,-0.4133,0.4529,75,17.963,346,5.4769,9.6748,-10.727,0.2483,0.3231,0.7505,84,18.32,353,10.5156,-3.9417,-10.9696,0.7806,0.2953,-1.0765,74,85221.645,1647979,8.0938,-0.9888,-12.5592,1.8734,2.4329,-1.7612,46
18.475,356,7.4846,-7.9033,-14.3184,0.096,0.1834,0.9381,75,18.015,347,3.6243,7.7592,-11.1148,-0.4147,0.9149,1.0137,84,18.372,354,9.2246,-4.4463,-12.4587,1.2462,0.8939,-1.4057,74,85221.697,1647980,9.8244,0.7748,-13.1451,2.0412,2.0275,-1.9614,46
18.527,357,8.2505,-9.2037,-11.4613,0.7445,-0.5184,1.3449,75,18.067,348,2.3836,5.4828,-11.2916,-0.3661,1.3468,0.763,84,18.424,355,8.6312,-5.2199,-16.7254,1.5861,1.3308,-1.2113,74,85221.749,1647981,7.6018,0.6026,-11.859,2.1636,1.4401,-2.1076,46
18.579,358,7.1448,-7.9108,-10.465,1.2177,-1.0476,1.6237,75,18.119,349,1.3584,4.5996,-10.9656,0.0551,1.6592,0.1716,84,18.475,356,6.0999,-9.0467,-20.2118,1.6842,1.5939,-0.5987,74,85221.801,1647982,5.9794,0.4488,-10.9288,2.253,1.0329,-2.2143,46
18.63,359,4.4354,-6.5863,-9.8807,1.5631,-1.434,1.8617,75,18.171,350,1.2471,4.8883,-10.3557,0.2505,1.866,-0.1822,84,18.527,357,3.4995,-8.3957,-22.7564,1.3668,0.8067,-0.5721,74,85221.852,1647983,4.8127,0.2806,-10.2378,2.3182,0.7579,-2.2921,46
18.682,360,2.0626,-3.5528,-9.4461,1.8152,-1.7159,2.0354,75,18.222,351,5.8301,6.2846,-11.8055,0.4243,2.0409,0.2889,84,18.579,358,2.8064,-6.9323,-22.6999,0.8339,0.0558,-0.9513,74,85221.904,1647984,4.9795,-0.9379,-5.6733,2.3658,-0.1099,-2.349,46
18.734,361,1.4899,-1.9227,-8.5388,1.9992,-1.9217,2.1622,75,18.274,352,3.571,7.464,-11.6073,0.9814,2.1379,0.8762,84,18.631,359,7.0139,-2.2015,-20.7394,0.7507,-0.3654,-0.9996,74,85221.956,1647985,5.0002,-1.2348,-3.6951,2.4005,-0.7433,-2.3904,46
18.786,362,-0.8137,0.0396,-8.4872,2.1335,-1.968,2.2547,75,18.326,353,6.6628,10.5769,-12.0843,1.388,2.126,1.2447,84,18.683,360,9.2074,-0.7597,-18.627,0.8061,-0.9401,-0.7366,74,85222.008,1647986,5.0186,-1.395,-2.2693,2.4259,-1.2056,-2.4207,46
18.837,363,-1.5316,4.4975,-9.6721,2.2315,-2.1057,1.3209,75,18.378,354,3.3546,10.0585,-11.6554,0.3331,2.1919,1.5722,84,18.734,361,11.9857,0.6879,-16.211,1.1907,-1.3595,-0.1743,74,85222.059,1647987,5.047,-1.4525,-1.2401,2.4444,-1.543,-2.4428,46
18.889,364,3.9398,-1.9153,-4.468,2.2296,-2.1714,0.3966,75,18.43,355,3.8122,9.2173,-11.4219,0.1363,1.5176,1.6583,84,18.786,362,10.4072,0.2425,-17.1218,0.7701,-1.3247,0.4933,74,85222.111,1647988,5.0842,-1.4671,-0.5128,2.4579,-1.7892,-2.4589,46
18.941,365,1.2007,2.5168,-8.7001,0.9499,-2.2482,-0.3856,75,18.481,356,3.244,8.4164,-11.319,0.1096,0.6155,1.3027,84,18.838,363,10.2287,1.294,-13.8067,0.2258,-0.2885,1.0378,74,85222.163,1647989,-1.5208,-6.3286,-1.2964,2.4678,-1.9689,-2.4707,46
18.993,366,5.9339,-1.3741,-12.9343,1.2225,-1.1392,0.048,75,18.533,357,4.3398,7.7588,-11.6696,-0.6001,-0.0021,0.7563,84,18.89,364,9.9039,1.5241,-11.5114,-0.5104,0.4678,1.4352,74,85222.215,1647990,-6.3415,-5.897,-1.5421,2.475,-1.3179,-1.1275,46
19.045,367,9.3885,-4.5216,-11.1548,0.2149,-0.3203,0.7117,75,18.585,358,5.363,6.343,-12.1494,-0.6323,0.0588,0.11,84,18.941,365,9.8004,1.5296,-11.0272,-0.5356,1.0198,1.7244,74,85222.266,1647991,-5.4449,-4.2689,-2.9646,2.4802,-0.6231,-0.1472,46
19.096,368,10.8487,-3.655,-7.9508,-0.165,0.4487,1.1961,75,18.637,359,6.4704,6.4689,-12.4822,-0.7502,-0.1747,-0.4394,84,18.993,366,9.6214,1.5668,-13.6503,-0.6564,1.4226,1.9292,74,85222.318,1647992,-1.3283,-3.6044,-5.4945,2.4841,-1.1179,0.5682,46
19.148,369,2.4027,1.06,-8.362,0.4795,1.0099,1.5496,75,18.689,360,6.7321,6.4058,-12.0494,-1.0247,-0.4129,-0.4233,84,19.045,367,7.8244,-4.0935,-17.9674,-0.9463,0.599,1.8029,74,85222.37,1647993,-1.4122,-1.2144,-5.6434,2.4868,-1.479,1.0904,46
19.2,370,2.6049,5.058,-9.5421,1.0174,1.3826,0.5215,75,18.74,361,9.8333,7.2475,-10.1198,-1.073,-0.3816,-0.3391,84,19.097,368,5.3236,-1.067,-17.0718,-1.338,-0.2363,1.6826,74,85222.422,1647994,-1.429,0.5334,-5.8041,2.4837,-1.7425,1.4715,46
19.252,371,2.05,8.8294,-14.9608,0.0652,1.1875,-0.2945,75,18.792,362,6.9709,8.4351,-9.0973,-1.4384,-0.6629,-0.1619,84,19.149,369,7.4969,-0.8235,-16.7588,-1.2561,-0.7284,1.0189,74,85222.474,1647995,-1.3866,1.835,-5.9292,2.4412,-1.9348,1.7497,46
19.304,372,6.4546,3.3571,-15.5103,0.3813,0.1973,-0.83,75,18.844,363,6.8268,6.2833,-7.837,-1.7299,-0.4953,-0.0475,84,19.2,370,8.3452,-1.137,-16.1311,-1.3044,-0.7864,0.9432,74,85222.525,1647996,-1.3106,2.8085,-6.0162,2.3379,-2.0752,1.9527,46
19.356,373,9.7684,2.3768,-11.3006,0.0886,-0.5253,-1.2809,75,18.896,364,5.5871,6.3459,-8.0868,-0.9627,-0.5637,-0.3177,84,19.252,371,8.6448,-1.4686,-15.3309,-1.3419,-0.6638,0.9389,74,85222.577,1647997,4.4018,4.932,-8.4163,2.08,-2.1777,2.1008,46
19.407,374,12.187,0.2029,-14.2857,-0.6127,0.299,-0.2582,75,18.948,365,3.8647,6.3251,-8.4809,-0.5898,-0.3416,-0.6496,84,19.304,372,7.8067,-1.9262,-14.9625,-1.441,-0.5263,0.9102,74,85222.629,1647998,6.9972,4.6804,-9.8128,1.1575,-2.2524,0.876,46
19.459,375,9.7777,-3.6729,-10.1158,-1.0321,0.9007,0.4882,75,18.999,366,3.1334,5.4988,-8.983,-0.5311,-0.3331,-1.1027,84,19.356,373,7.0247,-2.3683,-14.7251,-1.3628,-0.6088,0.6589,74,85222.68,1647999,4.849,3.0574,-9.3688,0.388,-2.307,-0.0367,46
19.511,376,7.7733,-6.6385,-8.7021,-1.0275,1.3398,1.0329,75,19.052,367,4.4135,4.8626,-9.4129,-0.5149,-0.3686,-1.4912,84,19.408,374,6.6768,-3.0381,-13.0904,-1.0578,-1.0916,0.2386,74,85222.732,1648000,7.4432,1.9133,-5.5401,0.9445,-2.3347,0.4597,46
19.563,377,5.2167,-4.897,-7.51,-0.0755,1.4594,1.4305,75,19.103,368,2.6152,4.8115,-11.3417,0.2955,-0.45,-1.6376,84,19.46,375,10.1388,-2.1648,-11.3819,-0.8598,-1.4701,-0.1749,74,85222.784,1648001,5.0714,2.1591,-4.2482,1.3632,-2.3671,1.0086,46
19.614,378,3.6264,-1.9047,-9.0597,0.6193,1.4566,1.7207,75,19.155,369,6.8286,8.8385,-14.0159,0.2568,-1.0011,-0.8475,84,19.511,376,11.3466,-2.0241,-11.3253,-0.5005,-1.7421,0.1696,74,85222.836,1648002,3.3336,2.3685,-3.2339,1.6688,-2.3907,1.4118,46
19.666,379,2.8187,3.1709,-13.9857,1.1212,0.4155,1.499,75,19.207,370,6.9042,9.6524,-13.4926,-0.4926,-1.4033,0.0468,84,19.563,377,10.9622,-1.005,-11.2927,-0.9501,-0.9409,0.7994,74,85222.887,1648003,2.0827,2.5314,-2.5096,1.8918,-2.4079,1.7061,46
19.718,380,7.1148,-2.8834,-7.6162,1.3714,-0.3637,0.4189,75,19.259,371,5.7273,9.2459,-12.8258,-1.0396,-1.6969,0.6541,84,19.615,378,10.0124,0.1363,-10.6672,-0.4184,-0.0083,1.2567,74,85222.939,1648004,1.1949,2.6607,-2.0111,2.0546,-2.4205,1.9209,46
19.77,381,0.2443,-4.8315,-6.9208,0.3235,0.113,-0.3694,75,19.311,372,4.9139,8.4607,-10.6611,-1.4387,-1.7889,0.7297,84,19.667,379,9.6412,0.8901,-10.0724,-0.8847,0.6723,1.5949,74,85222.991,1648005,0.552,2.7452,-1.6663,2.1734,-2.4297,2.0776,46
19.822,382,5.2359,-2.4185,-11.9737,-0.415,-0.5869,-0.9447,75,19.362,373,1.9117,6.7858,-9.3907,-1.7301,-1.2248,0.1316,84,19.718,380,12.3023,1.1937,-12.8965,-1.3209,1.169,1.8418,74,85223.043,1648006,-4.5211,0.3253,-2.3411,2.2571,-2.4364,2.192,46
19.873,383,8.879,-3.5572,-7.8211,-0.975,0.1541,-1.1693,75,19.414,374,1.6419,6.576,-11.6605,-1.9303,-0.9477,-0.5676,84,19.77,381,9.691,3.2023,-15.7311,-1.6393,1.5315,1.9708,74,85223.095,1648007,-7.7596,-0.7703,-5.798,1.4113,-1.9189,2.2755,46
19.925,384,9.2064,-6.1263,-6.7297,-1.389,0.7949,-1.3655,75,19.466,375,6.1182,6.4229,-12.279,-2.0839,-1.0155,-0.9066,84,19.822,382,9.35,-1.2225,-14.2363,-0.5199,0.6154,1.0644,74,85223.146,1648008,-5.1474,-0.4242,-6.922,0.6821,-1.2558,2.3365,46
19.977,385,5.8272,-5.7137,-7.0086,-1.6911,1.2626,-1.6717,75,19.518,376,7.6384,8.2016,-11.6881,-1.0425,-1.4138,-1.2407,84,19.874,383,2.8418,-4.1011,-15.9624,-1.0228,-0.2242,0.7943,74,85223.198,1648009,-3.1402,-0.336,-7.8808,0.1575,-0.7341,2.381,46
20.029,386,2.2789,-4.5317,-7.4007,-1.9116,1.6039,-1.6988,75,19.57,377,6.4805,9.0953,-10.8462,-1.1911,-1.7045,-0.8343,84,19.926,384,5.4423,-4.0988,-16.1875,-0.8618,-0.3944,0.7927,74,85223.25,1648010,-3.4019,0.3685,-4.901,0.7888,-1.1989,2.4134,46
20.081,387,0.23,-5.6012,-10.6121,-1.9616,1.853,-0.9177,75,19.621,378,6.08,8.2343,-9.3165,-1.0371,-1.9167,-0.6505,84,19.977,385,6.5763,-3.8929,-15.0563,-0.8946,-0.284,0.8541,74,85223.302,1648011,-3.082,0.9345,-4.353,1.2496,-1.5381,2.4371,46
20.132,388,4.9709,-6.4724,-13.0995,-0.7579,1.3171,-0.2919,75,19.673,379,6.0326,7.8744,-8.5554,-0.5872,-1.9188,-0.5726,84,20.029,386,5.4469,-4.3166,-14.7522,-1.1264,-0.5221,0.5658,74,85223.353,1648012,-2.856,1.3599,-3.9143,1.5859,-1.7857,2.4544,46
20.184,389,5.0732,-3.9469,-9.881,-0.2241,0.2919,-0.2007,75,19.725,380,8.2682,10.153,-7.2353,-0.8697,-1.4111,-0.5426,84,20.081,387,6.1358,-4.452,-14.347,-0.9331,-0.6524,0.1261,74,85223.405,1648013,-2.6933,1.6835,-3.5824,1.8313,-1.9663,2.467,46
20.236,390,1.2396,2.5093,-7.8227,0.5109,-0.4563,-0.3893,75,19.777,381,4.3764,7.4413,-7.7345,-1.3148,-0.3508,0.0878,84,20.133,388,8.687,-3.6757,-13.7864,-0.9609,-1.1322,0.0308,74,85223.457,1648014,-2.5754,1.9489,-3.3322,2.0105,-2.0982,2.4762,46
20.288,391,5.6965,5.2554,-3.1182,0.2117,-1.0023,-0.9592,75,19.829,382,2.8465,5.9671,-7.8394,-0.6308,-0.5092,0.2713,84,20.185,389,10.9639,-0.8815,-12.7541,-1.2731,-1.4503,0.5623,74,85223.509,1648015,-2.6489,1.7984,-4.9836,2.1412,-2.1944,2.483,46
20.34,392,3.6867,7.6794,-1.2174,-0.5229,-0.2973,-1.3394,75,19.88,383,2.6595,9.6819,-7.7307,-1.0568,-0.2587,-0.0011,84,20.236,390,13.2676,-4.9048,-12.91,-1.6044,-1.3825,1.0881,74,85223.56,1648016,-3.9207,-0.9384,-7.6971,2.2366,-2.2647,2.4879,46
20.391,393,7.7483,0.4071,-8.885,-0.3454,-0.8863,-1.6527,75,19.932,384,5.671,9.3308,-8.177,-1.4153,-0.4653,-0.5831,84,20.288,391,12.821,-3.7325,-14.7676,-1.7098,-0.9796,1.3923,74,85223.612,1648017,-5.2628,-3.1319,-10.2663,1.7601,-2.316,2.4914,46
20.443,394,5.3369,3.2571,-4.1966,-0.9244,0.0356,-0.6278,75,19.984,385,7.9161,7.771,-7.4649,-1.3062,-0.1051,-0.9194,84,20.34,392,12.2376,-2.6414,-12.7117,-1.8488,-0.0366,1.4243,74,85223.664,1648018,-3.5766,-1.0011,-9.27,1.164,-2.3534,2.4941,46
20.495,395,6.2971,-2.8206,-5.7851,-1.3521,0.7084,0.2184,75,20.036,386,10.3803,6.5617,-7.5145,-0.9701,0.3343,-1.0335,84,20.391,393,10.9654,-2.1225,-10.5397,-1.2754,0.6516,1.473,74,85223.715,1648019,-2.2127,0.5897,-8.4453,0.6716,-2.3807,2.496,46
20.547,396,6.4763,-3.645,-3.7407,-0.3124,0.7836,0.8361,75,20.088,387,8.1685,4.7774,-8.1939,-1.1007,0.7121,-0.6972,84,20.443,394,10.6825,-0.3806,-12.7693,-1.576,1.1539,1.7508,74,85223.767,1648020,-0.6659,0.848,-8.6972,-0.1877,-2.4006,1.3124,46
20.599,397,2.6839,-3.3659,-5.4634,-0.0257,1.2544,1.2868,75,20.139,388,5.7379,3.736,-6.9388,-0.1316,0.4735,-0.3231,84,20.495,395,10.7093,2.8223,-17.3245,-0.9605,1.5205,1.9233,74,85223.819,1648021,-0.7609,0.466,-6.1033,-0.8149,-2.4152,0.4261,46
20.65,398,3.7414,1.3679,-8.4904,0.6556,0.2463,1.4193,75,20.191,389,2.1903,7.6329,-9.0055,0.5756,0.4713,0.4296,84,20.547,396,2.492,0.3061,-20.6491,-1.0079,1.4595,1.0716,74,85223.871,1648022,-0.8793,0.1986,-4.1558,-1.2726,-2.4258,-0.2256,46
20.702,399,7.7882,-0.1037,-14.1932,0.608,-0.4896,0.3608,75,20.243,390,2.3202,10.8628,-6.7522,-0.2584,-0.3287,0.9789,84,20.599,397,-1.1931,1.5344,-22.3379,-1.1509,1.7436,1.3664,74,85223.922,1648023,-0.9796,0.0056,-2.7335,-1.6067,-2.4335,-0.7061,46
20.754,400,2.6633,5.3142,-18.3553,-0.094,0.3251,0.602,75,20.295,391,1.2687,11.102,-6.9152,-0.8686,-0.9126,0.535,84,20.651,398,1.4991,-0.2956,-19.2486,-1.0501,1.7449,1.064,74,85223.974,1648024,-1.0687,-0.1439,-1.6994,-1.8505,-2.4392,-1.0636,46
20.806,401,7.0014,4.1841,-19.2782,0.435,-0.4321,-0.2357,75,20.347,392,0.7885,9.973,-8.0367,-1.314,-1.1713,-0.1171,84,20.703,399,4.5548,-0.887,-13.9679,-1.4393,0.6928,0.827,74,85224.026,1648025,-3.2868,1.9884,-2.7345,-2.0284,-2.1087,-0.7071,46
20.858,402,10.1675,-2.144,-16.1115,-0.3599,-0.4971,-0.8472,75,20.399,393,1.0643,12.6056,-8.137,-1.639,-0.7682,-0.7718,84,20.754,400,8.5901,-1.1969,-10.463,-1.7257,-0.1677,0.982,74,85224.078,1648026,-0.0049,4.28,0.4401,-1.8137,-0.9109,-0.9333,46
20.909,403,9.3499,-6.7625,-18.5452,-0.94,0.3196,-1.0469,75,20.45,394,2.7619,14.1636,-8.7434,-1.8762,0.1184,-1.2497,84,20.806,401,9.8349,-2.1053,-8.2077,-1.9347,-0.3223,1.3921,74,85224.129,1648027,-0.9694,8.0658,1.4306,-0.6559,0.0238,-1.3572,46
20.961,404,8.2956,-7.3754,-13.1508,-1.3635,0.9157,-1.2589,75,20.502,395,6.9356,15.0338,-8.0224,-2.0494,0.1632,-1.3068,84,20.858,402,7.9973,-1.2401,-5.6233,-1.7032,0.4431,1.6938,74,85224.181,1648028,-0.1698,6.5727,-0.1164,0.1952,0.7061,-1.6666,46
21.013,405,0.5222,-9.0077,-10.4787,-0.5828,1.3507,-0.6086,75,20.554,396,9.8784,12.9859,-5.6893,-1.7744,0.2048,-1.2982,84,20.91,403,8.0775,1.4776,-6.7832,-1.6502,1.0018,1.4838,74,85224.233,1648029,0.3947,5.4704,-1.3289,0.8163,1.204,-1.8924,46
21.065,406,-2.4087,-10.4003,-8.5617,0.249,1.6683,0.2324,75,20.606,397,9.7179,7.5447,-6.7531,-1.8398,0.746,-0.7645,84,20.962,404,3.579,1.3783,-12.9555,-0.5494,1.4095,0.4837,74,85224.285,1648030,0.3885,4.5953,1.5935,1.2697,1.1171,-1.2588,46
21.117,407,-3.3722,-6.5685,-11.1006,0.8561,1.9,0.8463,75,20.658,398,9.5692,3.8489,-5.1792,-1.3009,0.4806,-0.0366,84,21.013,405,0.2818,6.3578,-6.8715,0.2756,0.6791,0.6928,74,85224.337,1648031,0.3655,3.9432,3.7264,1.6005,0.9943,-0.8002,46
21.168,408,-0.2733,-1.8422,-14.8685,1.1294,1.0699,-0.0575,75,20.709,399,7.5549,2.9682,-5.2655,-0.2777,0.1225,0.6386,84,21.065,406,5.4714,9.9921,-2.431,0.8777,-0.1773,0.1695,74,85224.389,1648032,0.3468,3.4984,5.2831,1.842,0.8621,-0.469,46
21.22,409,4.8582,1.7918,-18.8482,0.749,0.1115,-0.717,75,20.761,400,5.0889,5.5565,-6.3059,0.469,0.4596,1.1315,84,21.117,407,6.7277,6.7926,-5.507,0.787,-0.5015,-0.0248,74,85224.44,1648033,0.3445,3.2037,6.4192,2.0183,0.7165,-0.2317,46
21.272,410,8.6033,6.681,-11.1651,1.0915,-0.0758,-0.6623,75,20.813,401,2.8754,4.2249,-6.3448,-0.335,-0.3029,1.4912,84,21.169,408,8.0857,4.3431,-7.5109,0.4861,-0.5785,0.1906,74,85224.492,1648034,0.3504,3.0083,7.2484,2.1469,0.5677,-0.062,46
21.324,411,10.8274,6.4459,-15.904,1.471,-0.7247,-1.1164,75,20.865,402,2.8323,8.4104,-7.3457,0.4272,-0.8888,1.6032,84,21.22,409,8.4565,2.5514,-8.8928,-0.0064,-0.4892,0.4261,74,85224.544,1648035,-0.5624,-3.0623,0.5269,2.2408,0.2957,0.1968,46
21.376,412,12.96,2.5576,-17.3859,0.3962,-0.4563,-0.1824,75,20.917,403,3.3235,7.8538,-7.5618,-0.3682,-1.3214,1.0776,84,21.272,410,8.7518,0.8736,-9.7539,-0.441,-0.7504,0.3785,74,85224.596,1648036,-1.8803,-7.4928,-2.9668,1.0481,0.1098,0.8193,46
21.427,413,14.5163,-3.331,-12.1306,-0.3882,-0.1351,0.5435,75,20.969,404,2.3688,6.8286,-7.8561,-0.9488,-1.6329,0.1191,84,21.324,411,8.4024,-0.5018,-10.6596,-0.666,-0.9003,0.1951,74,85224.647,1648037,0.7018,-5.0769,-3.6576,0.0871,0.216,1.2737,46
21.479,414,15.6523,-3.6308,-7.0852,-0.3673,0.5838,1.0733,75,21.02,405,3.6506,5.9938,-8.0821,-0.682,-1.8644,-0.5995,84,21.376,412,7.9134,-0.7589,-11.3853,-0.8817,-1.2885,0.1835,74,85224.699,1648038,-4.7193,-6.7201,-0.1061,-0.3235,-0.4298,1.4456,46
21.531,415,10.0566,-4.4876,-7.5059,-0.9454,1.1085,1.46,75,21.072,406,4.2499,4.7361,-8.8814,-1.0744,-2.0334,-1.0982,84,21.427,413,11.0413,-1.1474,-11.432,-1.3187,-1.6138,0.2772,74,85224.751,1648039,-3.2659,-4.438,-1.4463,-0.5541,-0.9768,1.704,46
21.583,416,5.2518,-0.1265,-10.1497,-0.0156,1.4914,1.7422,75,21.124,407,8.0217,7.3138,-12.3657,-1.4642,-2.1567,-1.0002,84,21.479,414,13.3242,-4.5382,-11.9873,-1.2011,-1.8512,0.2588,74,85224.803,1648040,-2.1733,-2.7617,-2.4004,-0.7477,-1.376,1.9187,46
21.634,417,1.1907,5.2976,-14.0155,0.5979,1.7255,0.6842,75,21.176,408,10.1875,6.4261,-11.2226,-1.7128,-2.0282,-0.9141,84,21.531,415,10.1815,-1.896,-15.1014,-0.8154,-1.5423,0.0185,74,85224.854,1648041,-1.3906,-1.5375,-3.102,-0.9085,-1.6674,2.0761,46
21.686,418,5.9267,-1.3313,-7.638,-0.0755,0.8203,-0.1758,75,21.228,409,9.3127,6.0347,-10.818,-1.9301,-1.409,-0.7911,84,21.583,416,8.4921,0.0296,-14.204,-1.0405,-0.4473,-0.1617,74,85224.906,1648042,-0.8206,-0.6485,-3.6296,-1.0509,-1.88,2.1909,46
21.738,419,0.7073,1.4004,-7.6237,-0.7325,1.279,-0.5963,75,21.279,410,7.8184,4.8854,-10.0896,-1.1491,-1.0594,-0.753,84,21.635,417,8.1607,1.715,-13.9592,-0.8585,0.3519,-0.2729,74,85224.958,1648043,-5.8305,1.7219,-10.6746,-1.0227,-1.9982,2.2576,46
21.79,420,5.5738,-4.1756,-13.5606,-1.212,0.2641,-1.1103,75,21.331,411,6.4105,5.7734,-9.6299,-0.9075,-0.6572,-0.4972,84,21.687,418,8.8007,2.3455,-13.6986,-0.9015,0.9352,-0.4016,74,85225.009,1648044,-9.4869,2.4828,-5.2274,-0.0725,-1.1063,2.3234,46
21.842,421,9.1256,2.3424,-7.306,-0.2102,0.1955,-1.4855,75,21.383,412,4.861,4.587,-10.0341,-1.3424,-0.3511,-0.3059,84,21.739,419,10.0662,1.7308,-14.0202,-0.6221,1.3609,-0.3825,74,85225.061,1648045,-7.6046,1.1177,-5.0787,0.6209,-0.1188,2.3714,46
21.893,422,10.6577,-0.9656,-5.7184,-0.8308,0.8251,-0.6249,75,21.435,413,5.4724,3.2609,-10.4556,-0.351,-0.0506,-0.5324,84,21.79,420,9.1862,-1.2331,-16.1735,0.2225,1.6716,-0.6655,74,85225.113,1648046,-5.9903,0.1594,-4.639,1.1271,0.602,2.4064,46
21.945,423,2.2814,-5.9025,-8.5581,-1.2299,1.2846,-0.0502,75,21.487,414,4.5125,4.5453,-10.8478,0.4155,0.2363,-0.7207,84,21.842,421,6.3475,-0.0172,-16.8306,0.3079,1.2179,-0.3855,74,85225.165,1648047,-4.76,-0.6716,-4.3787,1.4965,1.128,2.432,46
21.997,424,1.3692,-4.8639,-8.7283,-0.5379,1.1971,0.64,75,21.538,415,6.3045,3.7756,-11.0808,0.1933,0.1792,-0.6219,84,21.894,422,9.8985,-5.2496,-20.2886,0.3269,0.2155,0.3924,74,85225.216,1648048,-3.7424,-0.7627,-5.315,0.4143,0.1602,1.2013,46
22.049,425,0.5905,-4.1634,-11.9138,-0.4095,1.3303,1.129,75,21.59,416,9.5212,4.2959,-10.4201,0.8044,-0.2797,-0.2207,84,21.945,423,9.7733,1.3714,-20.3493,0.4894,-0.4537,0.6223,74,85225.268,1648049,-2.9702,-0.7646,-5.4807,-0.3755,-0.5462,0.2313,46
22.101,426,5.4886,1.7115,-16.6917,0.1013,0.4208,0.7666,75,21.642,417,10.8409,6.3802,-9.4782,0.9753,-0.2655,0.3285,84,21.997,424,9.9505,1.3797,-19.0093,0.4463,-0.5601,0.5228,74,85225.32,1648050,-2.4077,-0.7651,-5.6212,-0.9519,-1.0617,-0.4967,46
22.153,427,4.5117,-3.9486,-9.5912,0.0403,0.8828,0.0285,75,21.694,418,9.4782,5.4894,-8.1365,1.2192,0.3023,0.659,84,22.049,425,10.0351,1.2832,-17.6072,0.4738,-0.3881,0.2813,74,85225.372,1648051,-1.9893,-0.7757,-5.7226,-1.3726,-1.438,-1.0305,46
22.204,428,0.232,-3.789,-13.4067,-0.638,-0.025,-0.6543,75,21.746,419,6.1346,6.0117,-8.3059,1.5076,0.8997,0.6063,84,22.101,426,10.1637,2.1939,-15.0987,0.3403,-0.2285,0.4325,74,85225.424,1648052,-1.6847,-0.8031,-5.7858,-1.6797,-1.7126,-1.4213,46
22.256,429,5.2269,-6.0894,-10.9851,-0.9963,-0.6876,-1.1526,75,21.797,420,3.6837,5.9848,-8.7761,1.6775,0.8639,0.527,84,22.153,427,9.5118,1.0693,-13.4034,0.1469,-0.4126,0.4359,74,85225.475,1648053,-4.8756,-3.3384,-2.2434,-1.197,-0.6488,-0.7477,46
22.308,430,8.8725,-9.642,-15.4684,-1.403,-0.4207,-0.6287,75,21.849,421,4.0789,4.3744,-9.4123,1.7984,0.186,0.1553,84,22.205,428,10.4497,0.9904,-12.3166,-0.1719,-0.9745,0.3803,74,85225.527,1648054,-5.94,-6.5982,-2.2814,-0.3416,0.215,-0.0236,46
22.36,431,9.2026,-7.2754,-12.8793,-0.3496,-0.771,-0.5814,75,21.901,422,5.4918,7.4472,-10.2032,1.3973,-0.4108,-0.1568,84,22.256,429,12.8924,2.3063,-11.2615,-0.3241,-1.3847,0.1662,74,85225.579,1648055,-4.3402,-5.1506,-3.8948,-0.0315,0.8456,0.6585,46
22.412,432,6.5426,-7.8715,-12.6747,0.135,0.1197,-0.1869,75,21.953,423,6.3988,6.1062,-10.3321,0.3983,0.2097,-0.6651,84,22.308,430,11.048,-1.2137,-11.4027,-0.4793,-1.68,0.0469,74,85225.631,1648056,-3.1342,-4.1338,-5.0871,0.2163,1.3058,1.1563,46
22.463,433,1.354,-5.0827,-12.3558,0.7729,0.7698,0.2876,75,22.005,424,6.7226,5.7282,-11.442,0.9461,0.3038,-1.088,84,22.36,431,9.7079,-1.6766,-9.1172,0.2475,-1.1968,-0.5136,74,85225.682,1648057,-4.2582,-1.5246,-7.5709,-0.52,1.5853,0.1678,46
22.515,434,-0.2755,-5.9468,-11.4417,0.1123,0.3899,0.3085,75,22.057,425,7.1175,6.9636,-11.5517,0.2857,-0.0083,-0.7018,84,22.412,432,9.9379,-2.1776,-9.0023,0.6712,-0.2,-1.0418,74,85225.734,1648058,-3.9079,-0.506,-6.5412,-1.0574,1.7893,-0.5536,46
22.567,435,-4.7531,-4.2322,-11.0769,-0.4801,0.967,0.4695,75,22.108,426,7.5045,6.5146,-11.1287,0.0313,-0.1761,-0.4914,84,22.463,433,10.7662,-2.4964,-9.1378,1.1664,0.5324,-1.4024,74,85225.786,1648059,-3.6511,0.2259,-5.9702,-1.4496,1.8837,-1.0801,46
22.619,436,-3.8744,-5.8703,-14.4443,0.1342,0.1026,-0.0243,75,22.16,427,8.4097,6.0056,-10.2624,-0.5873,0.2978,-0.5753,84,22.515,434,9.0546,-2.9087,-12.4485,1.5278,1.0669,-1.5461,74,85225.838,1648060,-3.481,0.7293,-5.5403,-1.7359,1.9079,-1.4643,46
22.671,437,2.2299,-8.6398,-18.1215,0.7447,0.713,-0.6668,75,22.212,428,7.984,4.0714,-10.1802,-0.6341,0.8964,-0.6212,84,22.567,435,10.959,-7.2059,-15.7779,1.7916,1.457,-1.5528,74,85225.889,1648061,-3.3851,1.0723,-5.2238,-1.9448,1.8702,-1.7448,46
22.722,438,4.2676,-9.0772,-17.5073,1.1932,-0.1489,-0.6546,75,22.264,429,6.2313,4.2076,-8.9793,0.2073,1.3333,-0.52,84,22.619,436,5.1545,0.0927,-19.4924,1.6331,0.6299,-0.7995,74,85225.941,1648062,-3.2186,3.5822,-11.8381,-2.0973,2.0192,-1.9495,46
22.774,439,6.551,-6.5111,-15.8774,1.5452,-0.778,-0.2269,75,22.316,430,5.6312,5.4762,-8.1736,0.7739,1.6522,-0.2177,84,22.671,437,6.2455,0.5176,-18.7187,1.4003,-0.0226,-0.4406,74,85225.993,1648063,-1.2923,2.9344,-13.406,-1.4881,0.9207,-2.0989,46
22.826,440,7.2739,0.6379,-8.9969,0.6992,-0.3366,0.511,75,22.367,431,5.0905,6.3752,-7.7291,1.058,1.8849,0.0374,84,22.722,438,7.0542,0.5593,-17.5409,1.0276,-0.3105,-0.335,74,85226.045,1648064,-0.3632,1.7623,-10.3944,-0.4122,0.0089,-2.2079,46
22.878,441,3.773,-2.6291,-3.9752,0.3536,0.4368,1.0349,75,22.419,432,3.7281,5.5374,-8.172,0.7303,2.0548,0.4129,84,22.774,439,7.8483,0.6467,-16.4919,0.7508,-0.4046,-0.3492,74,85226.096,1648065,0.4552,0.8566,-8.4317,0.3731,-0.6566,-2.2875,46
22.929,442,2.7826,-5.3975,-5.5724,0.9324,0.9582,1.3782,75,22.471,433,2.9781,5.5973,-9.1962,0.7982,2.1788,0.4957,84,22.826,440,8.6269,1.6935,-15.212,0.6526,-0.8224,-0.3839,74,85226.148,1648066,1.0789,0.2374,-6.9909,0.9461,-1.1423,-2.3456,46
22.981,443,1.1293,-6.6449,-7.0064,1.0204,1.3817,1.2078,75,22.523,434,2.073,5.626,-10.1071,1.2543,2.2692,0.2161,84,22.878,441,11.1363,3.2569,-13.4374,0.6224,-1.2736,-0.5719,74,85226.2,1648067,1.5254,-0.097,-5.9192,1.3644,-1.4968,-2.388,46
23.033,444,3.0797,-3.4926,-10.2642,0.0673,0.9372,0.9262,75,22.575,435,5.4351,8.1102,-10.1986,1.2794,1.1547,0.2314,84,22.93,442,11.7556,2.2338,-12.9858,0.7766,-1.6029,-0.4537,74,85226.252,1648068,-0.0261,-0.2178,-6.6257,1.6697,-0.4657,-1.0671,46
23.085,445,4.1956,-7.7468,-12.1837,0.3125,1.175,0.608,75,22.626,436,5.3107,9.9249,-10.6876,1.6055,0.2675,0.5274,84,22.981,443,8.133,-3.0925,-14.9441,1.2434,-1.1468,-0.9972,74,85226.303,1648069,-1.0764,-0.2927,-6.7594,1.8925,0.2472,-0.1032,46
23.137,446,5.0534,-5.6784,-14.1064,-0.3261,0.5916,0.7409,75,22.678,437,6.8757,12.5705,-10.1627,1.8435,-0.1007,0.5785,84,23.033,444,8.1085,-1.4378,-13.5774,1.1447,-0.3158,-1.4018,74,85226.355,1648070,-1.8593,-0.3142,-6.8437,2.0551,0.7172,0.6004,46
23.188,447,7.9339,-7.0288,-18.292,0.4364,-0.2376,0.9467,75,22.73,438,5.9859,12.6053,-8.8629,1.8697,0.6056,0.2288,84,23.085,445,11.1837,-2.4246,-11.0512,1.0168,0.4479,-1.6971,74,85226.407,1648071,-2.4292,-0.3113,-6.9062,2.1738,1.0173,1.1139,46
23.24,448,2.1227,-2.8354,-12.2686,0.9929,0.1503,1.3224,75,22.782,439,4.497,11.767,-8.2019,1.9119,1.121,-0.3156,84,23.137,446,9.4921,-2.0969,-10.2087,1.4187,1.0052,-1.9127,74,85226.459,1648072,-2.8746,-0.2746,-6.931,2.2604,1.184,1.4887,46
23.292,449,6.6068,-1.4495,-13.304,1.399,-0.5596,0.847,75,22.834,440,2.9191,10.5861,-8.0321,1.4204,1.4973,-0.9147,84,23.189,447,11.9593,-0.8965,-15.4556,1.0827,1.412,-2.0516,74,85226.51,1648073,-2.6885,0.2475,-7.256,1.7413,0.462,1.7622,46
23.344,450,9.8796,-6.2557,-16.0665,0.3437,-1.0778,1.2661,75,22.885,441,2.3064,9.5573,-8.3088,0.8145,1.7719,-1.268,84,23.24,448,13.9942,-3.9088,-12.1988,1.3097,0.6871,-1.1318,74,85226.562,1648074,-2.5583,-1.0777,-3.9396,0.593,-0.3259,1.9618,46
23.396,451,12.1941,-8.6368,-9.2341,0.6919,-0.1335,1.6007,75,22.937,442,2.7866,9.9991,-8.4042,0.6875,1.9723,-1.31,84,23.292,449,13.0289,-1.7748,-13.664,0.9496,0.2484,-0.9495,74,85226.614,1648075,-1.9343,-0.665,-2.8737,-0.2451,-0.901,1.8599,46
23.447,452,9.2481,-8.6572,-8.4397,1.1794,-0.7668,1.8449,75,22.989,443,2.5835,8.9574,-9.1337,0.473,2.1185,-1.0209,84,23.344,450,12.4992,1.1295,-14.3224,0.5553,0.2321,-0.6615,74,85226.666,1648076,-1.0707,-0.1657,-2.5339,-0.8567,-1.3206,1.7831,46
23.499,453,4.4525,-5.7465,-8.5739,1.5351,-1.0672,2.0231,75,23.041,444,1.6084,6.7945,-9.2517,0.2798,2.2253,-0.4952,84,23.396,451,11.9001,2.3728,-13.7117,0.3244,-0.3362,-0.1036,74,85226.717,1648077,-0.8853,0.4936,-1.1947,-1.3032,-1.6269,1.9179,46
23.551,454,0.2601,-3.6405,-9.1972,1.7948,-1.1849,2.1532,75,23.093,445,-0.1015,5.5245,-10.0165,0.3453,2.0145,-0.0214,84,23.447,452,12.2568,3.9362,-12.4827,0.3372,-0.9188,-0.0768,74,85226.769,1648078,-0.2731,0.966,-0.8917,-1.629,-1.8505,2.0389,46
23.603,455,-0.2604,-1.9926,-10.6428,0.8489,-1.378,0.9615,75,23.144,446,1.9103,7.3581,-10.1279,0.9237,0.8712,0.0793,84,23.499,453,14.2113,3.0114,-10.5213,0.7609,-1.344,-0.5484,74,85226.821,1648079,0.1826,1.3165,-0.6263,-1.8668,-2.0137,2.1304,46
23.655,456,0.2021,-1.1538,-12.5182,-0.0578,-1.0668,0.0267,75,23.196,447,5.3684,10.3555,-11.4668,0.7983,0.9507,0.7077,84,23.552,454,13.6682,-1.0257,-14.0385,1.2319,-1.6543,-1.0743,74,85226.873,1648080,0.5204,1.5691,-0.4226,-2.0403,-2.1327,2.1955,46
23.706,457,-0.9902,-6.0398,-16.5001,-0.6253,-0.7934,-0.6557,75,23.248,448,5.4238,10.7231,-10.0023,1.0425,0.8571,1.0524,84,23.603,455,14.296,-2.4909,-13.3841,0.7522,-1.0941,-1.4581,74,85226.924,1648081,0.7834,1.7427,-0.2454,-2.167,-2.2197,2.2402,46
23.758,458,3.7174,0.9818,-17.8088,0.218,-1.2484,-1.1536,75,23.3,449,4.9578,11.3553,-9.1019,0.6622,0.9105,1.1464,84,23.655,456,13.3676,-3.9279,-13.0434,0.6334,-0.1202,-1.7382,74,85226.976,1648082,0.996,1.8633,-0.1283,-2.2594,-2.2831,2.2716,46
23.81,459,5.9953,-1.8265,-20.2934,0.8335,-1.5804,-1.5171,75,23.352,450,3.8185,9.3706,-8.8384,-0.1264,0.8727,0.9266,84,23.707,457,13.7403,-6.584,-13.43,1.0967,0.5906,-1.9426,74,85227.028,1648083,-4.5046,0.4471,-6.8177,-2.0239,-2.3294,1.6216,46
23.862,460,9.4332,-5.2187,-17.6202,-0.0691,-0.4786,-0.4306,75,23.404,451,2.3432,7.5738,-9.1762,-0.0456,0.8361,0.5786,84,23.759,458,13.9866,-7.9138,-13.4343,1.4769,1.1094,-2.0594,74,85227.079,1648084,-4.0892,-0.9296,-8.0067,-0.8032,-2.3632,0.5176,46
