right_hand_timestamp,right_hand_index,right_hand_accel_x,right_hand_accel_y,right_hand_accel_z,right_hand_gyro_x,right_hand_gyro_y,right_hand_gyro_z,right_hand_battery_percentage,left_hand_timestamp,left_hand_index,left_hand_accel_x,left_hand_accel_y,left_hand_accel_z,left_hand_gyro_x,left_hand_gyro_y,left_hand_gyro_z,left_hand_battery_percentage,ball_timestamp,ball_index,ball_accel_x,ball_accel_y,ball_accel_z,ball_gyro_x,ball_gyro_y,ball_gyro_z,ball_battery_percentage
0.473,9,-1.8619,-0.029,-6.9096,1.677,-0.3909,0.1069,75,0.01,0,-0.7997,3.6067,-11.249,-1.7771,-0.9718,0.4959,86,80879.64,1564026,-3.5847,0.2734,-3.7854,1.4099,-1.4875,0.502,47
0.525,10,-0.8272,1.1272,-6.5303,1.8846,-0.9547,0.7332,75,0.062,1,0.7272,6.6437,-9.6905,-1.9383,-0.6004,1.0273,86,80879.692,1564027,-2.871,0.506,-4.8316,1.3794,-1.7473,0.4821,47
0.577,11,3.3031,6.2126,-2.175,2.0494,-1.3661,1.2117,75,0.113,2,4.8659,9.7479,-9.1209,-2.0665,-1.1109,1.4152,86,80879.744,1564028,-2.1089,0.3958,-6.1237,1.2045,-1.868,0.3811,47
0.629,12,7.4683,3.4871,-5.2454,0.8476,-1.6664,1.561,75,0.165,3,5.0288,3.334,-11.8999,-2.1883,-1.4834,1.6982,86,80879.795,1564029,-1.0986,0.4195,-7.6533,0.7425,-1.8492,0.0949,47
0.681,13,9.266,2.5004,-5.7069,0.1536,-0.7804,0.9159,75,0.217,4,7.722,0.8276,-12.8037,-0.9254,-1.1824,1.1461,86,80879.847,1564030,-1.2368,0.3858,-9.8891,0.6962,-2.0127,0.0856,47
0.732,14,9.2372,3.7485,-5.8683,0.209,0.1129,0.2248,75,0.269,5,10.0504,2.3068,-12.1599,-0.0294,-0.6118,0.9092,86,80879.899,1564031,-1.5777,-0.0282,-10.9662,0.8226,-2.1296,0.0736,47
0.784,15,8.2632,5.0679,-4.9277,0.4213,0.6266,-0.2207,75,0.32,6,10.8006,2.2052,-11.4321,-0.0156,-0.965,1.3267,86,80879.951,1564032,-1.0169,0.0059,-10.3003,1.168,-2.154,-0.1236,47
0.836,16,7.6853,5.6864,-3.0982,0.5918,1.1344,-0.6493,75,0.372,7,10.9978,1.9287,-11.3942,0.2821,-1.377,1.6337,86,80880.002,1564033,-0.5692,0.0516,-9.7929,1.4188,-2.1686,-0.2671,47
0.888,17,5.2164,7.0437,-3.0915,0.8561,1.5104,-1.149,75,0.424,8,10.638,1.7272,-11.5535,0.3443,-1.664,1.8577,86,80880.054,1564034,-2.3849,1.3729,-10.1796,0.7185,-1.7802,0.3014,47
0.94,18,4.0417,7.0862,-2.9487,0.7985,1.7785,-1.5137,75,0.476,9,10.424,1.2219,-11.8462,0.3718,-1.7038,2.0212,86,80880.106,1564035,-1.2755,1.2043,-10.1577,-0.1472,-1.5816,0.8956,47
0.991,19,2.4437,4.7799,-8.0404,1.1357,1.9804,-1.7799,75,0.528,10,9.7248,1.3012,-11.7201,0.4757,-1.3361,1.8938,86,80880.158,1564036,-0.5355,1.0618,-9.7846,-0.7853,-1.4177,1.3294,47
1.043,20,-0.0462,-1.7091,-13.8273,0.7435,0.9214,-0.7619,75,0.58,11,8.6436,1.15,-11.3881,0.3381,-0.9857,1.6452,86,80880.209,1564037,-0.0026,0.9347,-9.5258,-1.251,-1.2793,1.6459,47
1.095,21,1.1931,2.4548,-9.838,0.6583,0.0031,0.1206,75,0.631,12,7.5162,0.0688,-11.7499,0.134,-0.5743,1.3051,86,80880.261,1564038,-0.3406,1.5186,-10.0349,-1.5909,-1.197,1.877,47
1.147,22,5.7615,7.1816,-9.8082,0.0568,-0.6671,0.7646,75,0.683,13,7.7403,-0.4024,-11.6803,-0.1683,-0.4909,0.9304,86,80880.313,1564039,-0.5239,3.4826,-10.373,-1.839,-1.0382,2.0456,47
1.199,23,9.2626,2.4982,-6.9215,-0.2113,-0.6015,0.5882,75,0.735,14,7.9832,-3.1205,-12.6746,-0.6443,-0.3711,0.6634,86,80880.365,1564040,-1.0404,7.8729,-12.2762,-1.6254,-1.0107,1.347,47
1.25,24,9.8134,5.4464,-6.1734,-0.8284,-0.0493,-0.182,75,0.787,15,7.0016,-5.0429,-13.7086,-0.3694,0.2515,0.1031,86,80880.417,1564041,-3.1824,10.2769,-14.3182,-1.05,-1.0548,0.4607,47
1.302,25,8.6132,6.5641,-4.3157,-0.4037,0.6464,-0.7286,75,0.839,16,7.3217,-4.7674,-13.4459,-0.0909,0.2616,-0.0347,86,80880.468,1564042,-3.8539,8.3737,-14.2558,-0.335,-1.291,-0.3398,47
1.354,26,7.4855,6.325,-3.6916,-0.4366,1.0124,-0.9384,75,0.89,17,6.5834,-4.4634,-12.9879,-0.0909,0.3358,0.0842,86,80880.52,1564043,-2.3707,5.8661,-12.8025,0.316,-1.5071,-0.9241,47
1.406,27,2.7998,7.3429,-4.4391,0.0511,1.4213,-1.36,75,0.942,18,5.4496,-4.3959,-12.6206,-0.5003,0.0578,0.3911,86,80880.572,1564044,3.6281,-0.9765,-6.7804,0.1542,-1.0313,-0.3367,47
1.458,28,0.9888,7.5465,-4.3255,0.0701,1.3775,-1.6677,75,0.994,19,5.7568,-4.7867,-13.0747,-0.2419,0.1251,0.3491,86,80880.624,1564045,2.9824,-1.3536,-6.3764,-0.3654,-0.064,0.43,47
1.509,29,-0.779,6.634,-6.1909,0.047,1.3997,-1.8923,75,1.046,20,5.2128,-4.4295,-12.9218,-0.404,0.2286,0.3338,86,80880.675,1564046,2.5547,-1.7062,-6.4315,-0.7084,0.642,0.9895,47
1.561,30,-1.3178,5.4193,-6.9556,0.0428,1.0658,-1.8036,75,1.098,21,4.9336,-4.4783,-13.1405,-0.6277,0.163,0.3856,86,80880.727,1564047,2.2113,-1.9679,-6.4607,-0.9137,1.1572,1.3979,47
1.613,31,0.2839,-0.0897,-10.9291,0.2926,0.4355,-0.9,75,1.149,22,5.0701,-4.6896,-13.5373,-0.6289,0.0601,0.4495,86,80880.779,1564048,1.9202,-2.1687,-6.4659,-1.0175,1.5332,1.6959,47
1.665,32,1.1456,5.3245,-15.973,0.0928,0.446,-0.1691,75,1.201,23,5.2746,-4.6655,-14.0024,-0.4362,0.1466,0.388,86,80880.83,1564049,1.6688,-2.3206,-6.4841,-1.055,1.8077,1.9135,47
1.717,33,5.8937,9.276,-13.0489,0.7338,-0.3439,0.5533,75,1.253,24,5.623,-4.3702,-13.5558,-0.4772,-0.0452,0.3872,86,80880.882,1564050,1.4381,-2.431,-6.5159,-1.0364,2.008,2.0722,47
1.768,34,9.3591,1.5946,-8.5494,-0.1418,-0.8045,1.0717,75,1.305,25,6.0342,-5.0388,-13.4509,-0.5106,-0.1513,0.4092,86,80880.934,1564051,1.2552,-2.4909,-6.5419,-0.9842,2.1542,2.1881,47
1.82,35,10.6012,4.9643,-7.0721,-0.7743,-0.2582,0.4417,75,1.357,26,6.0625,-5.8631,-13.9158,-0.1318,0.1277,0.2172,86,80880.986,1564052,6.2745,-2.2916,-5.0532,-0.6257,2.0858,2.1806,47
1.872,36,8.1675,7.5043,-5.2987,-0.9695,0.2485,-0.3396,75,1.409,27,5.8675,-5.942,-14.2413,-0.1175,0.2623,0.0655,86,80881.037,1564053,9.9377,-3.8719,-5.4463,-0.6434,1.273,1.6023,47
1.924,37,6.1789,9.6797,-4.1513,-0.8983,0.3435,-0.7609,75,1.46,28,6.5582,-5.5447,-14.3873,-0.3488,0.5486,0.1212,86,80881.089,1564054,7.2246,-2.8872,-6.2191,-0.7005,0.266,0.8993,47
1.976,38,4.6272,10.1528,-3.5625,-0.9753,0.7106,-1.2305,75,1.512,29,6.1298,-5.1413,-14.19,-0.9128,0.5835,0.2751,86,80881.141,1564055,5.1339,-2.1446,-6.8048,-0.7371,-0.4689,0.3843,47
2.027,39,4.0847,6.3115,-6.9947,-1.1336,0.7981,-1.5731,75,1.564,30,5.6639,-5.3472,-14.7479,-1.1591,0.9507,0.2994,86,80881.193,1564056,3.8556,-1.1054,-4.6975,-0.5765,-0.6354,0.9562,47
2.079,40,2.2306,7.2897,-9.6759,-0.2272,1.2649,-1.8233,75,1.616,31,5.4745,-4.3056,-15.0357,-1.027,1.1167,0.3571,86,80881.245,1564057,2.8809,-0.6181,-6.0988,-0.4671,-0.7531,1.3736,47
2.131,41,0.8583,0.1226,-13.8547,-0.1989,0.3471,-1.0737,75,1.668,32,5.3468,-4.0845,-15.5852,-0.9942,1.288,0.278,86,80881.296,1564058,2.1753,-0.2571,-7.0479,-0.3953,-0.8332,1.6782,47
2.183,42,-1.4829,-1.2244,-13.9021,-0.6148,-0.3799,-0.107,75,1.72,33,5.0625,-3.0794,-15.8276,-0.8214,1.4078,0.2603,86,80881.348,1564059,1.6893,-2.2812,-9.9798,-0.3075,-0.8773,1.9005,47
2.234,43,3.9754,0.0845,-11.8009,0.2237,-0.9466,0.5986,75,1.771,34,4.7696,-2.5411,-16.0011,-1.0086,1.1231,0.3398,86,80881.4,1564060,2.0696,-4.4012,-8.6133,0.2369,-0.9217,2.0628,47
2.286,44,7.959,0.2543,-6.2292,-0.0428,-0.8824,1.0969,75,1.823,35,4.9399,-3.5186,-16.2398,-0.8113,0.8188,0.7211,86,80881.452,1564061,3.4324,-8.47,-8.3529,-0.3156,-1.0745,1.6566,47
2.338,45,10.4978,2.156,-6.2553,-0.7086,0.0384,0.2571,75,1.875,36,5.3752,-4.0393,-16.4469,-0.3814,0.8594,0.4571,86,80881.503,1564062,6.1445,-11.4397,-10.1309,-0.6086,-1.4205,1.8721,47
2.39,46,8.4076,3.0036,-6.0028,-0.4351,0.5894,-0.0659,75,1.927,37,4.2506,-5.0739,-16.6386,-0.5553,0.3144,0.3814,86,80881.555,1564063,4.9645,-9.2849,-10.0706,-1.1221,-1.6998,1.5308,47
2.441,47,4.8337,5.7659,-4.7235,-0.5064,1.0325,-0.4142,75,1.979,38,5.3498,-5.4268,-16.3488,-0.8382,-0.4367,0.607,86,80881.607,1564064,3.7116,-6.604,-9.2586,-1.4968,-1.9037,1.2036,47
2.493,48,2.5746,6.1186,-3.8894,-0.7692,1.3041,-0.8798,75,2.03,39,5.4924,-5.4743,-15.63,-0.7322,-0.5958,0.5783,86,80881.659,1564065,8.0673,0.5112,-14.7829,-1.2039,-1.4934,0.9727,47
2.545,49,0.0914,6.0698,-3.906,-0.523,1.6342,-1.2399,75,2.082,40,5.1803,-5.4475,-14.5216,-0.6342,-0.4887,0.3937,86,80881.71,1564066,5.731,0.4748,-13.4246,-0.2048,-1.2498,1.2425,47
2.597,50,1.1057,1.5467,-5.1362,-0.1832,1.5884,-1.5235,75,2.134,41,4.6474,-5.1563,-13.3792,-0.572,-0.345,0.2382,86,80881.762,1564067,4.0191,0.4882,-11.9032,0.5244,-1.0859,1.5104,47
2.649,51,-0.8024,0.2443,-11.7451,-0.4433,1.1835,-0.8464,75,2.186,42,4.598,-4.6954,-12.9841,-0.5386,-0.2064,0.2589,86,80881.814,1564068,2.7627,0.4989,-10.7962,1.0566,-0.9785,1.7074,47
2.701,52,0.6937,2.5575,-11.0707,0.2421,0.1945,0.0589,75,2.238,43,5.4238,-4.509,-13.3907,-0.4249,-0.1068,0.2156,86,80881.865,1564069,1.8596,0.5108,-9.9771,1.445,-0.9151,1.8497,47
2.753,53,2.5283,6.8921,-5.4887,0.2922,-0.5274,0.7196,75,2.289,44,5.8802,-3.9193,-13.4093,-0.4686,-0.056,0.1803,86,80881.918,1564070,0.7873,1.2813,-4.7183,1.7285,-1.2171,2.0024,47
2.804,54,6.9028,4.9126,-2.9531,0.6731,-0.6935,1.1727,75,2.341,45,6.4054,-4.8317,-14.1923,-0.6789,-0.0718,0.1688,86,80881.969,1564071,-4.657,-1.2156,-0.8803,1.9354,-1.1784,1.8607,47
2.856,55,10.0956,5.6076,-4.0412,-0.1861,0.1599,0.1808,75,2.393,46,7.1513,-5.7955,-15.5322,-0.3374,0.0958,-0.0207,86,80882.021,1564072,-6.0952,-4.8333,1.9209,1.3371,-0.1891,1.0891,47
2.908,56,8.6287,6.2168,-4.5,-0.2423,0.5645,-0.5432,75,2.445,47,5.6342,-6.2553,-16.628,0.213,0.712,-0.6067,86,80882.073,1564073,-8.3709,-8.7854,1.0755,0.4635,0.5219,1.0113,47
2.96,57,6.9728,6.5556,-5.071,-0.3122,0.7115,-0.7765,75,2.497,48,5.6393,-4.4957,-15.9184,-0.165,0.354,-0.4038,86,80882.124,1564074,-5.9276,-6.2826,-1.1342,-0.3396,1.0696,0.6872,47
3.012,58,5.9245,9.0797,-1.1099,0.0784,0.8537,-1.1606,75,2.549,49,6.0474,-4.4382,-16.5019,-0.4189,-0.0947,-0.053,86,80882.176,1564075,1.0321,0.7458,1.7356,-0.0178,1.1489,0.988,47
3.063,59,5.0904,8.9248,-0.5076,-0.0335,1.2893,-1.5156,75,2.6,50,5.7293,-3.8458,-16.3683,-0.3086,-0.0036,-0.0196,86,80882.228,1564076,0.8086,0.8382,-0.7809,0.6088,0.2004,1.3968,47
3.115,60,0.639,1.9755,-8.01,-0.0795,1.191,-1.5127,75,2.652,51,5.3576,-3.6226,-15.9395,-0.3926,-0.0628,-0.0451,86,80882.28,1564077,0.4933,0.9351,-2.9046,1.0557,-0.4959,1.6951,47
3.167,61,-1.1217,-0.1585,-12.9232,0.4966,0.3041,-0.4741,75,2.704,52,5.189,-3.2922,-15.5446,-0.4346,-0.0928,-0.0224,86,80882.331,1564078,-1.0841,2.7201,-3.483,1.3746,-1.0052,1.9129,47
3.218,62,1.5105,4.6658,-8.0394,0.6734,-0.4474,0.3307,75,2.756,53,5.3364,-3.1895,-14.8126,-0.4785,-0.2579,0.0734,86,80882.383,1564079,-2.3935,1.6697,-3.9014,1.1824,-1.3967,2.0718,47
3.27,63,6.16,4.6868,-11.1543,-0.1859,-0.9959,0.918,75,2.808,54,5.406,-3.7934,-15.2575,-0.4659,-0.273,0.2245,86,80882.435,1564080,-4.03,2.2496,-3.495,0.772,-1.6825,2.1859,47
3.322,64,9.4037,8.8106,-8.1876,0.5387,-0.0444,-0.0051,75,2.86,55,5.6622,-3.7876,-15.6015,-0.2331,-0.1847,0.2776,86,80882.487,1564081,-6.3522,5.779,-0.9593,-0.0243,-1.0615,0.9855,47
3.374,65,11.9187,5.1542,-7.1411,-0.2842,0.65,-0.6703,75,2.911,56,5.3924,-3.7409,-16.502,0.3015,0.0503,0.2143,86,80882.538,1564082,-8.5185,3.9759,1.8287,-0.6216,-0.5782,0.0432,47
3.426,66,8.0211,8.6144,-5.0795,0.1127,1.1421,-0.9881,75,2.963,57,5.9779,-2.9313,-16.6805,0.3079,-0.0964,0.3237,86,80882.59,1564083,-6.6583,3.5399,-0.1338,-1.1316,0.2667,-0.6445,47
3.477,67,5.3938,6.727,-5.2148,0.611,1.516,-1.3591,75,3.015,58,5.0269,-3.0831,-16.4524,-0.0794,-0.1624,0.2777,86,80882.642,1564084,-5.2664,3.2254,-1.7695,-1.5037,0.8833,-1.1465,47
3.529,68,3.4837,6.9098,-5.3339,0.7248,1.6092,-1.667,75,3.067,59,4.837,-3.2062,-16.4109,0.1368,-0.2067,0.0603,86,80882.694,1564085,-3.5682,1.2269,-7.6319,-0.4236,-0.0184,-0.161,47
3.581,69,3.6627,6.8492,-3.7552,-0.1334,1.6785,-1.8398,75,3.119,60,4.6877,-2.8017,-15.5985,0.2305,-0.2779,-0.1493,86,80882.745,1564086,-2.8038,1.4263,-7.4757,0.3647,-0.6765,0.5582,47
3.633,70,1.6435,-0.1989,-10.7372,-0.7748,1.9074,-1.9798,75,3.17,61,4.5188,-3.2503,-15.3177,0.1624,-0.3729,-0.2679,86,80882.797,1564087,-2.285,1.5742,-7.2985,0.9401,-1.1568,1.0831,47
3.685,71,2.5916,-4.4432,-14.2827,-0.7043,0.7256,-0.7683,75,3.222,62,4.7409,-3.4244,-15.1218,0.47,-0.2832,-0.5107,86,80882.849,1564088,-1.9113,1.6899,-7.1769,1.36,-1.5074,1.4662,47
3.736,72,1.862,0.1191,-11.2741,0.1603,-0.1398,0.1159,75,3.274,63,4.8358,-3.2205,-14.4822,0.4292,-0.1793,-0.5918,86,80882.901,1564089,-0.7444,3.2518,-5.0659,1.6664,-1.7633,1.7458,47
3.788,73,6.4166,5.4768,-6.508,-0.4213,-0.7714,0.7612,75,3.326,64,5.6974,-3.6156,-13.5275,0.3411,-0.3037,-0.5721,86,80882.953,1564090,-0.2582,2.4498,-5.8806,1.8901,-1.8974,1.9397,47
3.84,74,9.7407,9.3872,-6.4848,0.3669,0.1194,-0.1195,75,3.378,65,6.7391,-4.7466,-13.1824,0.3956,-0.426,-0.5746,86,80883.004,1564091,3.1217,2.8072,-3.3347,1.6588,-0.9834,1.3849,47
3.892,75,11.2026,3.0417,-5.8358,-0.0892,0.7696,-0.6911,75,3.429,66,6.3297,-4.6062,-14.4682,0.9559,0.1401,-0.4383,86,80883.056,1564092,6.1475,3.8075,0.1184,1.0988,-0.173,0.3899,47
3.944,76,7.7956,5.5489,-4.8891,0.2318,1.2064,-1.1117,75,3.481,67,6.9175,-4.7249,-15.044,0.5885,0.3027,-0.4978,86,80883.108,1564093,-0.7449,5.5126,0.5678,0.6169,0.5624,-0.3915,47
3.995,77,4.985,6.4825,-4.3089,0.627,1.3522,-1.4787,75,3.533,68,6.3264,-4.3655,-15.6168,0.3987,0.5732,-0.6566,86,80883.159,1564094,-0.4565,5.221,-0.9774,0.1944,1.0991,-0.9618,47
4.047,78,3.5844,7.803,-4.5978,0.4691,1.4152,-1.7543,75,3.585,69,6.6951,-3.8857,-15.5382,0.2955,0.5128,-0.5402,86,80883.211,1564095,-1.6725,5.5589,-5.9458,0.7735,0.1391,-0.0263,47
4.099,79,2.0123,7.5958,-5.5979,0.6066,1.6949,-1.9555,75,3.637,70,6.5775,-3.9894,-15.8308,0.2632,0.5889,-0.471,86,80883.263,1564096,-1.4239,4.7366,-6.4867,1.2229,-0.5616,0.6565,47
4.151,80,-0.1889,9.0958,-7.0719,1.1171,1.9194,-2.1023,75,3.688,71,6.0963,-3.803,-15.1443,0.2113,0.6162,-0.6257,86,80883.315,1564097,-1.2561,4.1463,-6.8354,1.5338,-1.0729,1.1548,47
4.203,81,-0.4657,7.1962,-8.9136,0.2234,1.3704,-2.2095,75,3.74,72,5.442,-3.8029,-14.4967,0.0454,0.7006,-0.6632,86,80883.367,1564098,-1.1159,3.7259,-7.0828,1.728,-1.4462,1.5185,47
4.255,82,-0.0071,1.9863,-9.4256,0.2503,0.7167,-1.1651,75,3.792,73,6.1827,-3.088,-13.7346,-0.0776,0.4495,-0.3519,86,80883.418,1564099,-0.6575,3.527,-7.4259,1.764,-1.7186,1.784,47
4.306,83,0.876,-2.579,-9.8733,0.0854,-0.1462,-0.1737,75,3.844,74,6.9509,-3.1215,-13.7018,-0.0739,0.2405,0.0549,86,80883.47,1564100,0.6468,2.4664,-8.2425,1.5142,-1.9174,1.9777,47
4.358,84,3.2183,-2.8655,-9.1592,0.2336,-0.7761,0.5499,75,3.896,75,7.4278,-2.8217,-13.6781,-0.0381,0.1297,0.2708,86,80883.522,1564101,2.6011,0.5956,-9.4275,0.9804,-2.0625,2.1191,47
4.41,85,7.4065,0.8844,-7.0072,0.8449,-1.2357,1.078,75,3.947,76,7.213,-2.5509,-12.9547,-0.038,0.0341,0.3805,86,80883.574,1564102,4.5938,-1.1149,-9.9832,0.6186,-2.1684,2.0828,47
4.462,86,10.4632,6.0354,-7.5628,0.2675,-0.7172,1.46,75,3.999,77,7.3236,-3.5142,-13.6964,0.008,-0.1735,0.4239,86,80883.625,1564103,7.6813,-1.2768,-10.4134,0.4382,-2.2224,1.7311,47
4.513,87,9.944,4.1749,-6.4026,-0.4822,0.159,0.6729,75,4.051,78,6.7705,-3.926,-14.3102,0.3403,0.0395,0.106,86,80883.677,1564104,8.118,-1.019,-10.77,0.2456,-2.0109,1.0632,47
4.565,88,7.8818,8.437,-4.5033,0.3225,0.7984,-0.184,75,4.103,79,7.0679,-4.1006,-14.3959,0.3339,0.3273,-0.3054,86,80883.729,1564105,5.8945,-0.3684,-10.2369,-0.4686,-1.0417,0.0999,47
4.617,89,8.6557,6.7687,-2.5103,-0.442,1.0098,-0.5479,75,4.155,80,6.5073,-3.8459,-13.6686,0.0169,0.5325,-0.5224,86,80883.781,1564106,3.9787,-0.0016,-9.7884,-1.0182,-0.3057,-0.6031,47
4.669,90,7.6395,6.5231,-2.1577,0.0669,1.4194,-1.0079,75,4.206,81,6.3003,-3.4754,-12.995,0.0756,0.5712,-0.5933,86,80883.832,1564107,-2.3277,-5.2591,-4.5806,-0.5621,-0.5279,-0.1295,47
4.721,91,4.11,6.9068,-2.4578,-0.06,1.7183,-1.1981,75,4.258,82,6.7871,-3.3647,-12.7808,0.3928,0.2869,-0.4615,86,80883.884,1564108,-2.2331,-3.5145,-5.6999,0.2636,-0.8734,0.5812,47
4.772,92,1.8357,8.9469,-2.95,0.4904,1.9365,-1.5496,75,4.31,83,6.4487,-3.5795,-12.5782,0.3444,0.0955,-0.3828,86,80883.936,1564109,-2.0654,-2.1472,-6.3513,0.8663,-1.1455,1.0999,47
4.824,93,1.7763,6.6389,-4.1613,0.0095,1.9239,-1.6138,75,4.362,84,6.6357,-3.274,-12.2874,0.4843,-0.0361,-0.3135,86,80883.988,1564110,-1.9319,-1.1363,-6.8148,1.3061,-1.3627,1.4784,47
4.876,94,2.5321,1.1412,-6.5642,-0.2698,1.4606,-0.776,75,4.414,85,6.943,-2.8681,-11.6761,0.7337,-0.3203,-0.1041,86,80884.039,1564111,-1.5268,-1.1082,-7.4954,1.6272,-1.5388,1.7547,47
4.928,95,3.6184,-3.5041,-10.0417,0.0522,0.4569,0.1103,75,4.466,86,7.1408,-2.8303,-11.4077,0.5487,-0.5853,0.0006,86,80884.091,1564112,-1.752,-2.3288,-8.0786,1.8476,-1.5748,1.9564,47
4.979,96,4.333,-4.6687,-11.2488,0.5081,-0.3358,0.7571,75,4.517,87,7.645,-2.5367,-11.6346,0.5198,-0.6892,0.0173,86,80884.143,1564113,-3.7905,-2.2922,-7.68,2.0223,-1.4,2.1035,47
5.031,97,8.22,1.7726,-6.744,1.0452,-0.9144,1.2292,75,4.569,88,7.8358,-2.6715,-12.0118,0.3795,-0.5251,-0.0869,86,80884.195,1564114,-2.4274,-3.4548,-7.871,2.1499,-1.1775,2.2109,47
5.083,98,11.0569,2.0732,-7.2733,1.1584,-1.3367,1.5738,75,4.621,89,8.3905,-4.1324,-13.8351,0.5519,-0.1184,-0.3978,86,80884.247,1564115,-3.7577,-7.3126,-7.6429,1.9938,-0.5358,2.0333,47
5.135,99,12.22,6.0131,-7.1363,0.2412,-0.527,0.7515,75,4.673,90,8.1819,-3.4672,-14.2374,0.8694,0.0783,-0.5655,86,80884.298,1564116,-3.4599,-10.5949,-8.1146,1.5292,0.2946,1.2484,47
5.187,100,13.2434,5.6249,-5.9439,-0.2588,0.2978,-0.1177,75,4.725,91,8.0849,-3.2205,-14.5791,0.9066,0.0418,-0.5133,86,80884.35,1564117,-1.4446,-11.6711,-9.1545,0.4632,0.9037,0.2351,47
5.238,101,11.2208,6.1391,-3.9749,0.2185,0.8998,-0.4208,75,4.776,92,7.6883,-3.0303,-14.5509,0.8349,-0.046,-0.4552,86,80884.402,1564118,-1.5664,-7.7418,-8.5704,-0.3398,1.3482,-0.5045,47
5.29,102,9.9942,4.451,-2.3933,0.7646,1.3391,-0.076,75,4.828,93,7.1469,-2.4,-14.1687,0.8073,-0.2685,-0.3743,86,80884.453,1564119,-1.7389,-4.8457,-8.1109,-0.9259,1.6726,-1.0443,47
5.342,103,7.4405,3.6507,-3.0114,1.2324,1.6598,0.3972,75,4.88,94,7.136,-2.031,-14.0374,0.9815,-0.4653,-0.2595,86,80884.505,1564120,-1.0502,-2.6493,-6.4894,-0.0365,1.8201,-0.693,47
5.394,104,4.0048,2.6545,-5.6354,1.2186,1.8938,0.5234,75,4.932,95,6.7899,-1.8405,-13.7625,1.3531,-0.4178,-0.3415,86,80884.557,1564121,-0.8696,-1.9905,-6.2538,0.6473,2.0171,-0.2621,47
5.446,105,2.6191,0.585,-7.8081,0.3827,2.0646,0.8255,75,4.984,96,6.701,-1.6695,-13.8242,1.6593,-0.3897,-0.4335,86,80884.609,1564122,-0.7382,-1.5081,-6.1271,1.1463,2.1608,0.1275,47
5.497,106,1.4502,-1.4772,-11.5204,0.8359,1.7276,1.2301,75,5.035,97,6.4428,-1.4109,-12.8741,1.7566,-0.4585,-0.5863,86,80884.66,1564123,-0.6415,-1.1651,-6.0383,1.5105,2.2657,0.4082,47
5.549,107,2.4523,-0.2166,-10.1827,1.2458,0.5916,1.5745,75,5.087,98,7.0482,-2.8807,-13.1797,1.3305,-0.6195,-0.7027,86,80884.712,1564124,-0.5502,-0.9118,-5.986,1.7763,2.3423,0.6094,47
5.601,108,6.8474,5.2318,-8.5733,1.5836,-0.2376,1.8257,75,5.139,99,7.9453,-3.1369,-12.1415,1.4267,-0.6738,-0.7413,86,80884.764,1564125,0.5264,-2.1394,-9.1949,1.9703,2.3982,0.6702,47
5.653,109,10.0552,4.0123,-7.6397,0.9773,0.1934,1.9825,75,5.191,100,8.0024,-4.2785,-12.0397,1.5515,-0.8481,-0.5449,86,80884.816,1564126,-4.4752,-1.0974,-4.1474,1.5214,2.1249,-0.0166,47
5.705,110,11.043,5.5936,-5.9854,0.4298,0.8236,0.7895,75,5.242,101,7.6156,-4.0604,-11.9871,1.8041,-0.6217,-0.6137,86,80884.868,1564127,-4.2209,-4.7753,-0.4636,0.7866,1.08,-0.6882,47
5.757,111,8.1203,7.4967,-4.4545,0.3746,1.2835,-0.0989,75,5.294,102,7.41,-3.3144,-11.7928,1.9884,-0.4092,-0.6434,86,80884.919,1564128,0.5018,-7.0298,-0.6611,-0.0853,0.1251,-1.1783,47
5.808,112,6.9992,7.6541,-2.4422,-0.0384,1.6192,-0.7473,75,5.346,103,7.1386,-2.4797,-11.2416,1.6762,-0.6348,-0.4009,86,80884.971,1564129,0.1401,-5.4118,-2.427,-0.7401,-0.5718,-1.5361,47
5.86,113,5.0833,7.0165,-2.2705,-0.2413,1.8642,-0.9975,75,5.398,104,7.2918,-2.5693,-10.9684,1.461,-0.8458,-0.2877,86,80885.023,1564130,-5.1293,1.3813,-9.7969,-0.3968,-0.0665,-0.7833,47
5.912,114,3.6585,6.8289,-4.2449,0.1413,2.043,-1.1125,75,5.45,105,7.5574,-2.5885,-10.2521,1.3861,-0.8002,-0.4471,86,80885.075,1564131,-3.8861,0.7981,-8.6621,0.3842,0.6401,0.068,47
5.964,115,3.9865,10.374,-1.6685,0.7775,2.1735,-1.4871,75,5.502,106,7.6938,-2.9468,-9.869,1.0274,-0.6846,-0.5379,86,80885.126,1564132,-3.0083,0.3447,-7.974,0.9543,1.1558,0.7002,47
6.016,116,4.9638,2.3737,-5.8562,-0.1099,1.6146,-1.1673,75,5.553,107,7.6307,-3.0642,-10.1965,1.0769,-0.4649,-0.5855,86,80885.178,1564133,-2.3811,0.0216,-7.4519,1.3704,1.5322,1.1597,47
6.067,117,2.8822,-3.4653,-11.9857,0.386,0.9701,-0.5626,75,5.605,108,7.5495,-2.5751,-10.1017,1.1226,-0.299,-0.6646,86,80885.23,1564134,-1.9293,-0.2156,-7.0684,1.674,1.807,1.4924,47
6.119,118,5.8673,-3.3856,-14.8697,0.9561,0.0387,0.266,75,5.657,109,7.9551,-3.0859,-11.2723,0.4363,-0.2164,-0.6563,86,80885.282,1564135,-3.4092,1.6377,-5.9484,1.8957,2.0075,1.3649,47
6.171,119,9.3398,0.0776,-8.2614,0.762,-0.6411,0.8708,75,5.709,110,8.5115,-4.2581,-12.944,0.259,0.3477,-0.964,86,80885.333,1564136,-1.5763,1.0672,-5.0149,2.0574,2.1538,1.1601,47
6.223,120,11.5428,5.4466,-4.0519,1.2226,-0.3313,1.07,75,5.761,111,9.0496,-4.4707,-13.8547,0.4911,0.4661,-0.8588,86,80885.385,1564137,-3.5919,2.7863,-4.6432,1.8663,2.26,1.0043,47
6.275,121,10.246,7.0869,-3.9761,0.2149,0.0244,0.4421,75,5.813,112,8.8032,-4.2108,-14.591,1.0302,0.4091,-0.5601,86,80885.437,1564138,-4.7298,6.9788,-5.2052,1.0214,1.4928,0.3715,47
6.326,122,6.8492,10.5622,-2.7899,0.4771,0.356,0.1856,75,5.864,113,8.209,-3.4678,-14.2808,1.3272,0.0776,-0.2443,86,80885.489,1564139,-4.2779,4.0731,-4.0834,0.0676,0.6159,-0.4049,47
6.378,123,4.974,11.1135,-1.1898,0.022,0.7656,-0.2909,75,5.916,114,7.5822,-2.6272,-13.4691,1.0398,-0.5412,0.1695,86,80885.54,1564140,-3.3693,2.8072,-5.0625,-0.6285,-0.0891,-0.9716,47
6.43,124,3.2077,11.6862,-0.2013,0.2103,1.2412,-0.8875,75,5.968,115,7.3857,-2.2786,-12.7622,0.9792,-0.908,0.3973,86,80885.592,1564141,-2.6038,1.8663,-5.8506,-1.1366,-0.6193,-1.3852,47
6.482,125,4.7378,9.2081,0.2059,0.1322,1.5883,-1.3228,75,6.02,116,7.2106,-2.114,-12.3803,1.0779,-0.7771,0.2335,86,80885.644,1564142,-1.8709,1.261,-7.1299,-0.1557,0.0304,-0.3353,47
6.533,126,5.329,6.8092,-0.7741,0.1766,1.8416,-1.5198,75,6.072,117,7.2883,-2.0543,-12.5156,0.9525,-0.5294,0.0121,86,80885.696,1564143,-1.7211,0.7903,-7.386,0.5603,0.4809,0.431,47
6.585,127,4.1658,5.2721,-6.3243,-0.5225,2.0265,-1.4779,75,6.123,118,7.4474,-2.5903,-13.2066,0.9646,-0.2062,-0.2869,86,80885.747,1564144,-1.6438,0.4669,-7.5539,1.0828,0.7864,0.9903,47
6.637,128,5.1623,-1.3499,-11.0497,0.0948,1.1542,-0.5002,75,6.175,119,7.3255,-1.8816,-12.8729,1.037,-0.2438,-0.3706,86,80885.799,1564145,-1.5901,0.2463,-7.6646,1.4641,0.9893,1.3984,47
6.689,129,5.5049,-0.3304,-12.9496,0.7399,0.173,0.3116,75,6.227,120,7.4238,-1.6594,-12.7638,0.9097,-0.7097,-0.1879,86,80885.851,1564146,-1.3605,0.6766,-7.9708,1.7425,1.1644,1.6963,47
6.741,130,9.0753,0.732,-11.3817,0.2375,-0.543,0.9041,75,6.279,121,7.3609,-1.7427,-12.4545,0.1437,-1.1907,-0.0359,86,80885.903,1564147,-0.3127,2.1507,-9.4307,1.9456,1.1188,1.9137,47
6.792,131,11.6812,3.6242,-6.7484,0.5562,0.0555,0.8547,75,6.331,122,7.6921,-4.4169,-14.2816,-0.1182,-1.4432,-0.6766,86,80885.954,1564148,1.4042,3.5851,-9.9256,2.0614,1.039,1.934,47
6.844,132,11.6444,2.9034,-5.421,-0.2714,0.6586,-0.0259,75,6.382,123,7.7281,-3.3531,-15.195,0.5855,-0.9429,-1.1802,86,80886.006,1564149,4.8468,6.3508,-13.55,1.517,0.1749,0.7835,47
6.896,133,8.4062,5.6909,-4.3991,-0.2733,1.1355,-0.694,75,6.434,124,7.3644,-3.3546,-15.2847,0.897,-0.57,-1.2127,86,80886.058,1564150,1.5914,6.3907,-12.3921,0.4942,-0.5337,-0.1042,47
6.948,134,5.7435,5.7703,-3.3349,-0.1278,1.2943,-0.7428,75,6.486,125,6.3587,-2.8747,-14.6071,1.2969,-0.29,-0.9707,86,80886.11,1564151,0.7467,4.0112,-11.0473,-0.3172,-1.0526,-0.7521,47
7.0,135,3.8387,5.1996,-1.952,0.2835,1.6271,-0.4662,75,6.538,126,6.4616,-2.7054,-13.7242,1.069,-0.5279,-0.9423,86,80886.161,1564152,0.6224,1.8992,-9.9983,-0.9094,-1.4313,-1.225,47
7.052,136,2.0282,7.1282,-1.4847,0.7576,1.8699,-0.6943,75,6.59,127,6.5811,-2.2472,-13.2861,1.0028,-0.7124,-0.7701,86,80886.213,1564153,0.3727,1.3212,-10.0378,-0.6901,-0.6648,-0.2184,47
7.103,137,2.8537,5.7786,-0.6115,0.6792,2.0472,-1.1274,75,6.641,128,6.6606,-2.495,-13.113,0.8037,-0.6595,-0.7327,86,80886.265,1564154,0.3298,0.8314,-9.937,-0.5236,-0.1022,0.5163,47
7.155,138,1.8394,3.8942,-3.1394,0.5117,1.7443,-1.1458,75,6.693,129,6.9198,-2.5871,-13.5818,0.9286,-0.4241,-0.7155,86,80886.317,1564155,0.3156,0.491,-9.8717,-0.3928,0.3123,1.0525,47
7.207,139,1.6417,-0.2605,-5.5158,0.2084,1.344,-0.2768,75,6.745,130,7.2439,-2.2058,-13.5384,1.1208,-0.1562,-0.7983,86,80886.369,1564156,0.295,0.244,-9.8147,-0.2895,0.618,1.4439,47
7.259,140,1.0762,-2.399,-6.5967,0.5296,0.6054,0.4746,75,6.797,131,7.0485,-2.5438,-13.2865,0.7591,-0.055,-0.8543,86,80886.42,1564157,0.918,1.2135,-10.3023,-0.1269,0.8001,1.7295,47
7.31,141,1.019,-1.0662,-7.2827,0.5355,-0.2275,1.023,75,6.849,132,7.2454,-2.8594,-13.2276,0.746,0.0528,-0.7722,86,80886.472,1564158,3.373,1.4077,-10.0372,-0.0526,0.6114,1.938,47
7.362,142,5.8014,-1.9179,-6.9492,0.5356,-0.8354,1.4233,75,6.901,133,7.2002,-3.0423,-12.4195,0.8771,0.0292,-0.6474,86,80886.524,1564159,4.7187,2.8639,-8.742,-0.3033,0.258,1.9291,47
7.414,143,9.1613,3.9902,-4.9645,-0.0159,-0.1778,0.6326,75,6.953,134,8.0769,-3.3961,-13.6443,0.7392,-0.0823,-0.3165,86,80886.576,1564160,5.784,5.1379,-8.0035,-0.6177,0.3421,1.1146,47
7.466,144,9.2619,4.6389,-4.1814,-0.2984,0.5527,-0.2034,75,7.004,135,7.275,-5.2016,-16.158,1.1848,0.619,-0.8363,86,80886.628,1564161,6.3554,8.318,-8.3161,-1.0894,0.5153,0.1374,47
7.518,145,6.7882,7.3785,-4.0603,-0.0785,0.9016,-0.7776,75,7.056,136,7.2391,-3.4248,-15.2499,1.3742,1.1208,-1.231,86,80886.679,1564162,4.1037,6.3424,-8.52,-1.4729,0.6152,-0.5758,47
7.569,146,6.0037,7.131,-3.5606,-0.2236,1.1744,-1.021,75,7.108,137,7.4414,-3.3607,-14.9009,0.869,0.4871,-0.7139,86,80886.731,1564163,2.4504,4.8495,-8.6513,-1.7529,0.6676,-1.0963,47
7.621,147,5.3433,8.1999,-2.9544,0.1499,1.5395,-1.3014,75,7.16,138,7.213,-3.2519,-14.6127,0.9716,-0.0036,-0.3299,86,80886.783,1564164,-3.4432,8.8705,-3.7507,-1.2835,-0.1758,-0.1244,47
7.673,148,4.8795,6.5164,-2.9096,0.1533,1.806,-1.5519,75,7.212,139,6.8462,-3.1065,-13.8785,1.1079,-0.2126,-0.186,86,80886.835,1564165,-2.3035,7.3877,-4.6522,-1.1152,-0.7914,0.5849,47
7.725,149,3.5403,5.5161,-3.6302,0.1613,2.0005,-1.6859,75,7.263,140,6.66,-2.7934,-13.3684,1.0783,-0.2543,-0.1858,86,80886.886,1564166,-1.4652,6.2449,-5.4189,-1.0353,-1.2407,1.1026,47
7.776,150,3.0298,-0.5656,-7.9542,0.3067,2.1107,-1.2919,75,7.315,141,6.621,-2.3037,-12.826,1.0956,-0.2756,-0.1875,86,80886.938,1564167,-0.8148,5.4036,-5.9705,-1.0124,-1.5686,1.4804,47
7.828,151,1.6037,-2.5695,-11.9464,-0.0897,1.2672,-0.3085,75,7.367,142,6.8951,-1.9612,-12.7408,1.1374,-0.2654,-0.1603,86,80886.99,1564168,0.7131,5.2175,-6.2156,-1.042,-1.8079,1.7562,47
7.88,152,2.9204,-1.755,-12.1399,0.5748,0.2555,0.4515,75,7.419,143,7.3196,-2.0331,-12.856,0.9835,-0.2677,-0.1696,86,80887.041,1564169,1.5209,4.8728,-6.8353,-0.8251,-1.9826,1.9574,47
7.932,153,7.189,4.1091,-7.5834,0.9984,-0.4828,1.0062,75,7.471,144,7.7203,-2.5283,-12.5298,0.7989,-0.1472,-0.2348,86,80887.093,1564170,1.3711,3.3664,-7.2464,-0.6002,-2.0703,2.1043,47
7.984,154,10.3045,4.8762,-7.052,0.5692,-0.6394,1.2113,75,7.522,145,8.116,-3.6365,-12.1952,0.5809,-0.3415,-0.0287,86,80887.145,1564171,3.042,-1.6183,-9.1417,-0.63,-1.7216,1.9604,47
8.035,155,9.3805,5.5477,-6.1409,-0.2619,0.2105,0.2801,75,7.574,146,7.5143,-4.0863,-12.7087,0.7251,-0.0818,-0.1731,86,80887.197,1564172,5.1234,-3.4833,-10.7055,-0.8094,-1.1409,0.957,47
8.087,156,6.0896,9.1575,-5.0971,0.1611,0.836,-0.4707,75,7.626,147,8.1689,-3.9305,-13.009,0.6754,0.1838,-0.3991,86,80887.248,1564173,5.7712,-0.8289,-9.6373,-1.0137,-0.1484,0.0224,47
8.139,157,5.1593,8.5197,-3.2752,-0.2676,0.6075,-0.8478,75,7.678,148,7.7592,-4.2697,-12.8995,0.1623,0.3199,-0.4943,86,80887.3,1564174,3.941,0.299,-9.1486,-1.1887,0.5804,-0.6597,47
8.191,158,4.4787,7.4589,-1.95,-0.039,1.1258,-1.0522,75,7.73,149,7.1564,-4.1571,-12.3488,-0.0789,0.3222,-0.5319,86,80887.352,1564175,1.8799,0.7794,-9.0358,-1.3598,1.1123,-1.1576,47
8.243,159,2.9155,6.212,-2.3648,0.6283,1.5041,-1.2808,75,7.782,150,6.8206,-3.9267,-12.0693,0.0429,0.1163,-0.3438,86,80887.404,1564176,1.6599,0.8398,-9.937,-0.3977,0.1487,-0.1691,47
8.294,160,1.6459,6.5857,-4.2384,-0.1483,1.5752,-1.3234,75,7.833,151,6.5343,-3.697,-11.8894,0.1393,0.0306,-0.1844,86,80887.455,1564177,1.0787,1.3457,-8.846,0.2824,-0.5546,0.5522,47
8.346,161,2.1498,6.1453,-6.7966,0.0461,1.5869,-1.6358,75,7.885,152,6.4491,-3.401,-11.9426,0.1837,0.0097,-0.122,86,80887.507,1564178,0.6761,1.7102,-8.065,0.7444,-1.0678,1.0787,47
8.398,162,1.8464,-0.3985,-11.6003,0.708,0.5579,-0.7421,75,7.937,153,6.6724,-3.0225,-11.7976,0.2939,-0.0308,-0.1199,86,80887.559,1564179,0.4103,1.9625,-7.5012,1.0403,-1.4424,1.463,47
8.45,163,0.9824,-3.0946,-10.4649,0.8067,-0.2622,0.135,75,7.989,154,7.0126,-2.6276,-11.9085,0.1647,-0.1983,-0.0417,86,80887.611,1564180,0.2347,2.1592,-7.0889,1.2221,-1.7158,1.7435,47
8.502,164,5.7746,3.1313,-8.8745,1.2631,-0.8607,0.7752,75,8.04,155,7.2966,-3.1216,-11.1833,0.0534,-0.2618,-0.0724,86,80887.662,1564181,-2.586,-2.7235,-7.3824,1.026,-1.9154,1.9481,47
8.553,165,9.2722,7.3437,-4.5971,0.2886,-0.6332,1.2424,75,8.092,156,8.3192,-4.3984,-11.553,0.4321,-0.1926,-0.0434,86,80887.714,1564182,-3.5435,-4.9457,-8.319,0.7972,-2.061,2.0975,47
8.605,166,11.068,8.6394,-4.6935,0.3258,0.2203,0.6129,75,8.144,157,9.0337,-4.268,-12.8404,0.7963,-0.0278,-0.0145,86,80887.766,1564183,-6.8521,-6.4026,-12.0261,-0.0836,-1.4493,2.1269,47
8.657,167,9.0541,9.0445,-5.4028,0.3352,0.8432,0.2449,75,8.196,158,8.7963,-3.8539,-13.3078,1.0348,0.5997,-0.3725,86,80887.818,1564184,-7.0152,-7.7464,-14.4652,-0.7389,-0.3742,2.228,47
8.709,168,6.2616,9.1817,-6.2963,0.4304,1.2188,-0.111,75,8.248,159,8.1713,-3.0252,-13.0391,0.4306,0.3927,-0.2811,86,80887.87,1564185,-4.4735,-5.9938,-12.0258,-1.2172,0.4156,2.3018,47
8.761,169,5.275,9.7587,-5.5408,0.2547,1.4434,-0.7274,75,8.299,160,7.9792,-3.3821,-13.2641,0.062,0.2141,-0.2287,86,80887.922,1564186,-4.7769,-4.4035,-8.6527,-0.992,0.5456,1.8974,47
8.812,170,4.111,10.3606,-5.6044,0.3976,1.7359,-1.206,75,8.351,161,7.578,-3.4581,-12.9951,-0.0532,0.0993,-0.1981,86,80887.973,1564187,-3.5862,-3.4706,-9.7295,-0.6328,-0.2649,1.1663,47
8.864,171,2.4062,9.1006,-6.2035,0.4705,1.9485,-1.5553,75,8.403,162,7.065,-3.2589,-12.5446,-0.1972,0.1338,-0.13,86,80888.025,1564188,-2.4588,-2.8535,-8.8849,-0.3485,-0.8564,0.304,47
8.916,172,1.4676,7.4967,-6.1609,1.0177,2.1045,-1.8103,75,8.455,163,6.6089,-2.8667,-12.0812,-0.3003,0.1036,-0.0111,86,80888.077,1564189,-1.6689,-2.3964,-8.2321,-0.1245,-1.2881,-0.392,47
8.968,173,0.2343,7.7825,-6.4081,1.1523,1.798,-1.9963,75,8.507,164,6.5805,-2.7156,-12.0335,-0.3629,0.1609,0.0307,86,80888.129,1564190,-1.0604,-2.0673,-7.7649,0.0586,-1.6032,-0.9125,47
9.019,174,0.1344,2.2091,-10.5007,0.8944,1.0968,-1.7525,75,8.558,165,7.2166,-2.4902,-12.0865,-0.4412,0.1367,0.1903,86,80888.18,1564191,-0.7868,-1.7613,-7.4279,0.2104,-1.8332,-1.2943,47
9.071,175,1.7571,3.3935,-10.6551,0.7554,0.1312,-0.6588,75,8.61,166,7.189,-2.5629,-12.2792,-0.3428,0.108,0.2929,86,80888.232,1564192,-1.1712,-0.7498,-6.4056,0.3547,-2.001,-1.5859,47
9.123,176,2.9224,1.4566,-11.603,-0.1261,-0.5736,0.1958,75,8.662,167,7.4705,-2.3074,-11.9441,-0.2654,0.1082,0.291,86,80888.284,1564193,-1.5081,-0.2617,-5.9145,0.5916,-2.1235,-1.719,47
9.175,177,7.1905,5.1926,-8.2958,-0.2063,-1.088,0.8195,75,8.714,168,7.6452,-1.9814,-11.3833,-0.4169,-0.1117,0.4697,86,80888.335,1564194,-1.3214,-0.8039,-5.2069,0.8994,-2.2129,-1.7324,47
9.227,178,10.3056,9.0977,-3.711,0.5238,-0.8515,0.97,75,8.766,169,7.9976,-2.7997,-11.7266,-0.6063,-0.2126,0.4205,86,80888.387,1564195,-2.5287,-1.4941,-1.2368,1.239,-2.2756,-1.7145,47
9.278,179,8.5043,11.6882,-2.2149,0.0758,-0.1626,0.2679,75,8.817,170,8.0503,-3.4118,-12.257,-0.2943,0.1533,0.1515,86,80888.439,1564196,-5.0241,-5.5912,1.6607,1.2024,-1.6955,-1.4738,47
9.33,180,5.1575,13.9205,-2.0696,0.4122,0.4566,-0.4796,75,8.869,171,7.5952,-3.1936,-11.9144,-0.1256,0.5718,-0.2369,86,80888.491,1564197,-5.0066,-6.8923,0.1853,0.2004,-0.5488,-0.7794,47
9.382,181,4.7523,13.5168,-1.5495,-0.0612,0.4265,-1.0251,75,8.921,172,7.5199,-2.8269,-11.4504,-0.629,0.5678,-0.2222,86,80888.542,1564198,-3.3746,-5.0717,-1.8324,-0.5316,0.2881,-0.2432,47
9.434,182,4.8507,11.6008,-1.596,0.0545,0.8889,-1.4233,75,8.973,173,7.793,-3.2036,-11.461,-0.7786,0.6506,-0.1846,86,80888.594,1564199,-1.9889,-3.6321,-3.4933,-1.0659,0.899,0.1485,47
9.485,183,4.749,9.3633,-4.8,0.5885,1.3312,-1.5085,75,9.025,174,7.894,-3.1859,-11.6215,-0.5567,0.8819,-0.3992,86,80888.646,1564200,-0.5846,-2.4852,-2.972,-0.104,-0.007,0.4193,47
9.537,184,4.673,6.9165,-4.2092,0.0779,1.654,-1.4937,75,9.076,175,7.6402,-2.7279,-11.3216,-0.5314,0.8791,-0.4707,86,80888.698,1564201,-0.4153,-1.616,-4.0044,0.598,-0.6682,0.6187,47
9.589,185,2.3332,4.0989,-9.3803,0.6326,1.8896,-1.3424,75,9.128,176,7.5,-2.4359,-11.0805,-0.4173,0.6542,-0.3814,86,80888.75,1564202,-0.3057,-1.0103,-4.7713,1.1103,-1.1508,0.7647,47
9.641,186,1.4375,1.9831,-12.9515,0.0723,1.0736,-0.6193,75,9.18,177,7.1897,-2.0205,-10.6206,-0.347,0.3259,-0.2562,86,80888.801,1564203,-0.2096,-0.5826,-5.3507,1.4842,-1.503,0.8728,47
9.692,187,2.4129,-0.1547,-13.511,0.5067,0.1142,0.2245,75,9.231,178,7.3344,-2.0821,-10.0337,-0.5448,-0.097,-0.2637,86,80888.853,1564204,-0.5978,-0.4193,-1.3418,1.6276,-1.76,1.1297,47
9.744,188,2.1845,-0.128,-14.0031,0.9473,-0.586,0.8405,75,9.283,179,7.9964,-2.7137,-10.2517,-1.0639,-0.2351,0.0234,86,80888.905,1564205,-2.1047,0.5352,-2.374,1.5522,-1.9476,1.1059,47
9.796,189,6.652,5.2965,-10.1041,0.2918,-1.097,1.2901,75,9.335,180,8.5179,-2.2046,-10.4439,-1.0614,-0.1604,0.1465,86,80888.957,1564206,-0.6257,3.406,-1.3901,1.4842,-1.8089,0.7384,47
9.848,190,9.9125,3.3487,-7.364,-0.4644,-0.8037,0.9809,75,9.387,181,9.3129,-2.5423,-11.4637,-0.9683,-0.0057,0.3648,86,80889.008,1564207,2.0451,7.8148,-0.671,1.7157,-1.6271,0.2767,47
9.9,191,8.6796,5.3444,-6.0563,-0.4648,-0.2232,0.1944,75,9.439,182,9.0553,-2.4996,-12.8918,-0.6884,0.4952,0.3572,86,80889.06,1564208,-1.5561,10.4086,0.4147,1.9261,-1.0528,-0.4741,47
9.952,192,6.7576,6.7536,-3.9036,-0.5075,0.0481,-0.1637,75,9.49,183,8.8088,-1.6625,-12.8612,-0.5776,0.2533,0.217,86,80889.112,1564209,-0.1825,8.2164,-1.2792,2.0796,-0.0797,-1.0221,47
10.003,193,4.5957,7.1628,-2.2054,-0.3688,0.7175,-0.7946,75,9.542,184,7.9925,-1.253,-12.2118,-1.0298,-0.3026,0.4464,86,80889.164,1564210,0.8247,6.5999,-2.467,2.1917,0.6305,-1.422,47
10.055,194,3.643,7.0592,-1.3326,-0.1275,1.2061,-1.2551,75,9.594,185,7.4101,-0.853,-11.6253,-1.2894,-0.3109,0.4661,86,80889.215,1564211,5.9603,-0.441,0.7629,2.21,1.113,-1.3008,47
10.107,195,1.947,5.8452,-2.8974,0.2372,1.5627,-1.5911,75,9.646,186,7.4426,-0.6133,-11.4833,-1.6207,-0.0675,0.2454,86,80889.267,1564212,4.5502,-0.2822,-1.2724,2.2868,1.501,-1.0571,47
10.159,196,-0.0858,6.3524,-6.1447,0.5361,1.7651,-1.8364,75,9.697,187,7.9731,-0.5301,-11.8897,-1.8412,0.0527,0.2535,86,80889.319,1564213,3.4141,-0.1239,-2.6639,2.3429,1.7841,-0.8806,47
10.21,197,0.176,4.0691,-9.9011,0.4496,0.8384,-1.6534,75,9.749,188,7.8113,-0.7398,-12.5993,-1.6973,0.3492,0.2221,86,80889.371,1564214,2.5837,0.0068,-3.6727,2.3838,1.9908,-0.753,47
10.262,198,1.818,8.3208,-11.0078,-0.1924,0.0794,-1.374,75,9.801,189,7.4012,-0.6892,-13.0388,-1.6227,0.5235,0.0881,86,80889.423,1564215,1.987,0.1086,-4.4059,2.4137,2.1416,-0.6597,47
10.314,199,3.4461,5.7167,-13.0679,0.3244,-0.6114,-0.4207,75,9.853,190,7.7447,-1.0875,-13.3289,-1.3725,0.3931,0.1278,86,80889.474,1564216,1.528,0.1825,-4.9523,2.4355,2.2517,-0.5924,47
10.366,200,7.1389,6.2975,-11.0634,0.3801,-1.1155,0.3696,75,9.905,191,8.4496,-1.2728,-12.6939,-0.9065,-0.0067,0.2367,86,80889.526,1564217,3.4427,-0.722,-11.4363,2.4514,2.3321,-0.5407,47
10.418,201,10.2679,9.9862,-5.6597,0.4296,-1.4818,0.9339,75,9.957,192,8.5902,-1.0364,-11.9307,-0.5153,-0.4085,0.3742,86,80889.578,1564218,6.4656,-3.4943,-14.5999,2.463,2.3272,-0.5956,47
10.469,202,11.1936,9.5956,-1.8768,-0.3638,-0.4221,0.4649,75,10.009,193,8.4128,-2.3283,-12.5572,-0.0873,-0.3773,0.4591,86,80889.629,1564219,6.167,-6.9393,-17.5564,2.2809,1.0369,-0.3699,47
10.521,203,8.9754,12.2489,0.2893,-0.4013,0.3743,-0.3358,75,10.061,194,8.2487,-2.0481,-12.4429,-0.1402,0.224,-0.0186,86,80889.681,1564220,6.1594,-9.0173,-19.8286,1.7028,0.0937,0.369,47
10.573,204,8.2145,11.1145,0.4462,-0.5107,0.9556,-0.9202,75,10.112,195,8.4028,-1.0723,-11.0368,-0.6552,-0.0031,0.0914,86,80889.733,1564221,4.7657,-5.2904,-14.9062,1.0477,-0.5947,0.945,47
10.625,205,7.023,9.5162,-0.9164,-0.409,1.3799,-1.3467,75,10.164,196,8.4601,-1.4295,-10.8069,-1.1148,-0.0846,0.3488,86,80889.785,1564222,3.8286,-2.5278,-11.2967,0.5137,-1.0971,1.3654,47
10.677,206,5.8414,6.2987,-2.78,-0.486,1.6895,-1.658,75,10.216,197,8.5171,-1.7701,-11.0941,-1.1656,0.4627,0.173,86,80889.836,1564223,0.4867,-1.9592,-5.9518,0.9237,-0.8752,0.5575,47
10.728,207,4.3739,4.3638,-4.1709,0.1181,1.7831,-1.5955,75,10.268,198,8.0451,-1.4108,-11.0484,-1.2016,0.7846,0.0694,86,80889.888,1564224,0.5862,-1.4418,-6.9534,1.3025,-0.7841,-0.135,47
10.78,208,3.4326,2.9607,-7.4663,0.5151,1.3969,-1.3756,75,10.32,199,7.4529,-0.9785,-11.0529,-1.4134,0.8065,0.0508,86,80889.94,1564225,0.6256,-1.0309,-7.5642,1.5818,-0.711,-0.6477,47
10.832,209,-3.027,7.5508,-13.4346,0.0364,1.6997,-0.996,75,10.371,200,8.1561,-0.7962,-11.8538,-1.7056,0.7033,-0.0572,86,80889.992,1564226,0.6539,-0.719,-8.0139,1.7853,-0.6515,-1.0226,47
10.884,210,1.2329,9.4032,-13.2312,0.6678,0.5712,-0.508,75,10.423,201,8.3308,-1.0418,-13.135,-1.8444,0.9409,-0.204,86,80890.043,1564227,0.6806,-0.5012,-8.3348,1.9337,-0.6009,-1.2957,47
10.936,211,0.1114,5.2794,-16.3448,-0.1089,-0.2525,0.3059,75,10.475,202,8.7535,-1.3686,-13.5651,-1.4612,0.921,-0.4048,86,80890.095,1564228,0.7003,-0.3253,-8.586,2.0414,-0.5567,-1.4951,47
10.987,212,5.1389,8.1115,-17.6871,0.5949,-0.8536,0.8999,75,10.527,203,8.7537,-0.9513,-14.1135,-1.6016,0.235,0.2684,86,80890.147,1564229,0.7755,-5.4953,-3.703,1.3289,-0.4043,-1.5513,47
11.039,213,8.8082,7.067,-15.2025,-0.0566,-1.2923,1.3334,75,10.579,204,8.7673,-1.3966,-13.2162,-1.8489,-0.3646,0.487,86,80890.199,1564230,-0.0893,-6.1715,-2.6558,1.1964,-0.4157,-0.7369,47
11.091,214,10.0188,6.2703,-14.0711,-0.7187,-0.2608,0.5849,75,10.63,205,8.1118,-1.9229,-13.0596,-1.6897,-0.9387,0.8435,86,80890.25,1564231,-3.8608,-7.5689,-2.6464,1.4167,-0.9373,0.1379,47
11.143,215,11.0115,7.418,-12.4628,0.0816,0.4921,-0.2483,75,10.682,206,8.2232,-1.7644,-12.7185,-0.6285,-1.0965,0.932,86,80890.302,1564232,-7.6106,-5.2837,-4.663,1.3079,-0.5147,0.7763,47
11.194,216,7.0591,7.658,-11.6371,-0.3256,1.0312,-0.8563,75,10.734,207,9.0289,-0.5627,-11.7839,-0.4466,-1.0125,1.1798,86,80890.354,1564233,-5.5837,-3.9777,-6.0485,1.2717,0.1188,1.2423,47
11.246,217,5.9443,9.0744,-12.2051,-0.2741,0.7076,-1.3001,75,10.786,208,8.3188,-0.8093,-12.0125,-0.7415,-0.7163,1.359,86,80890.405,1564234,-3.9262,-3.0292,-7.1729,1.2651,0.582,1.5824,47
11.298,218,4.5103,10.206,-12.2083,-0.2242,0.518,-1.624,75,10.838,209,7.9637,-0.8004,-12.3357,-0.8545,-0.2356,1.2765,86,80890.457,1564235,-3.6004,-1.4753,-5.7376,1.2096,-0.233,1.8306,47
11.35,219,1.2297,9.7315,-13.3222,-0.4369,-0.0189,-1.8604,75,10.889,210,7.9801,-0.9039,-12.9674,-0.8364,0.2837,1.0927,86,80890.509,1564236,-2.6143,-0.7696,-6.6284,1.1434,-0.8271,2.0117,47
11.402,220,0.847,9.0165,-13.8386,-0.9962,-0.6831,-2.0329,75,10.941,211,7.6062,-1.1815,-13.3133,-0.82,0.7859,0.7818,86,80890.561,1564237,-1.897,-0.2565,-7.2893,1.0818,-1.2612,2.1439,47
11.454,221,-1.7754,9.9307,-11.6302,-0.4438,-0.2115,-2.1588,75,10.993,212,7.1983,-1.6648,-13.523,-0.9957,1.1345,0.4343,86,80890.613,1564238,-1.3786,0.124,-7.7656,1.0208,-1.5781,2.2404,47
11.505,222,-0.3999,6.8702,-10.5445,-0.3505,-0.8237,-1.6588,75,11.045,213,7.8089,-1.6615,-13.3957,-0.9653,1.2217,0.237,86,80890.664,1564239,-1.0037,0.3952,-8.113,0.9611,-1.8093,2.3109,47
11.557,223,1.7765,-0.1836,-13.839,-0.6577,-1.2705,-0.534,75,11.097,214,7.8437,-2.6234,-13.5967,-0.9209,1.1564,0.2787,86,80890.717,1564240,-0.7306,0.5874,-8.3609,0.9034,-1.9798,2.3623,47
11.609,224,6.3542,0.9384,-11.132,0.0346,-1.5966,0.2869,75,11.149,215,7.2866,-2.2063,-13.3175,-1.0845,1.1756,0.2701,86,80890.768,1564241,-0.4838,0.7166,-7.4463,0.9228,-2.108,2.3998,47
11.661,225,9.6951,-1.4431,-6.8787,-0.1899,-1.8346,0.8823,75,11.2,216,7.3908,-1.677,-12.7796,-1.1456,0.7566,0.4925,86,80890.82,1564242,0.9676,2.4878,-7.3207,0.7303,-1.7707,2.4272,47
11.713,226,10.4198,4.1858,-4.6895,-0.8141,-0.789,0.4453,75,11.252,217,7.9257,-2.448,-13.702,-0.767,0.4647,0.6417,86,80890.872,1564243,0.9029,3.8065,-6.0725,0.5105,-0.9116,2.4471,47
11.764,227,9.077,7.7946,-3.1662,-0.0021,0.1009,-0.3501,75,11.304,218,7.8954,-2.106,-13.5303,-0.3928,0.4577,0.4485,86,80890.923,1564244,0.6996,8.1092,-3.6232,0.6738,0.0013,1.6135,47
11.816,228,6.636,8.3065,-2.5286,-0.6217,0.105,-0.9307,75,11.356,219,7.4525,-2.1871,-12.971,-0.9667,0.3236,0.3351,86,80890.975,1564245,1.1917,7.0277,-4.1108,1.1657,0.6896,0.5016,47
11.868,229,4.0285,8.6402,-2.3209,-0.4256,0.759,-1.3543,75,11.408,220,7.6117,-2.3763,-12.5228,-1.1529,0.2618,0.2602,86,80891.027,1564246,1.5612,6.2144,-4.2387,1.5246,1.192,-0.31,47
11.92,230,3.4271,7.8888,-2.5604,0.1707,0.9808,-1.6636,75,11.459,221,7.5534,-2.6241,-12.3524,-1.0883,0.3173,0.1983,86,80891.079,1564247,6.4978,-0.7223,-1.2044,1.4487,0.6989,-0.2356,47
11.971,231,3.3944,7.4866,-3.4081,-0.4347,0.8837,-1.8893,75,11.511,222,7.6431,-2.4875,-12.0649,-1.0748,0.3761,0.1845,86,80891.13,1564248,4.8752,-0.5303,-3.4201,1.6364,0.0697,-0.0716,47
12.023,232,4.6283,10.6704,-3.3049,0.3249,1.198,-2.054,75,11.563,223,7.574,-2.4174,-11.7291,-1.0193,0.4402,0.1812,86,80891.182,1564249,3.6062,-0.3774,-4.9647,1.7722,-0.3876,0.0486,47
12.075,233,3.1448,3.8627,-8.8002,-0.3681,0.6103,-2.1585,75,11.615,224,7.5153,-2.5696,-11.9405,-1.0806,0.4242,0.1972,86,80891.234,1564250,2.6854,-0.2561,-6.1004,1.8705,-0.7238,0.1373,47
12.127,234,1.2049,1.1345,-9.902,-0.0141,-0.2239,-0.9075,75,11.667,225,7.9696,-2.6021,-12.4932,-1.0298,0.6874,0.0238,86,80891.286,1564251,2.0285,-0.178,-6.9214,1.9409,-0.9699,0.2026,47
12.179,235,1.1433,3.0061,-7.9284,0.6641,-0.8327,0.0143,75,11.719,226,8.6356,-2.0531,-12.2942,-0.9885,0.7213,0.0702,86,80891.337,1564252,2.1236,0.3592,-6.2596,1.7874,-0.966,0.5156,47
12.23,236,3.0132,6.0036,-8.9701,0.8817,-1.2771,0.6871,75,11.77,227,9.0939,-2.0376,-13.2021,-0.9601,0.5335,0.1419,86,80891.389,1564253,2.5642,2.1694,-7.7778,1.448,-0.7568,0.6087,47
12.282,237,7.2567,5.7417,-7.4954,-0.0338,-1.3729,1.1781,75,11.822,228,9.1606,-1.8648,-13.5509,-0.5647,0.7203,0.238,86,80891.441,1564254,4.1901,5.5522,-9.7426,1.2586,-0.7046,-0.2137,47
12.334,238,9.3896,4.4895,-6.6611,0.1146,-0.3196,1.0163,75,11.874,229,8.931,-1.5468,-12.9815,-0.276,0.7353,0.2191,86,80891.493,1564255,4.8983,9.3833,-12.7002,0.2617,-0.8357,-0.8305,47
12.386,239,6.7072,8.0705,-5.8024,0.758,0.4492,0.2356,75,11.926,230,8.4408,-1.3215,-12.2324,-0.0546,0.7131,0.2397,86,80891.544,1564256,1.8995,8.1758,-12.4429,-0.4799,-1.273,-1.2822,47
12.438,240,3.5798,10.673,-5.6229,1.2202,1.0103,-0.4851,75,11.978,231,7.7743,-0.712,-11.5709,-0.3649,0.7337,0.3206,86,80891.596,1564257,1.2479,5.3601,-11.0828,-0.9768,-1.5922,-1.6119,47
12.489,241,2.6404,10.5513,-5.1222,1.2066,1.4197,-1.0291,75,12.029,232,7.6347,-0.9443,-11.1257,-0.6339,0.5572,0.1936,86,80891.648,1564258,0.8783,3.159,-10.1459,-1.297,-1.8252,-1.8525,47
12.541,242,1.2144,10.4775,-5.1578,1.1909,1.7164,-1.4262,75,12.081,233,7.8108,-1.0107,-10.9524,-0.5301,0.5806,0.1428,86,80891.7,1564259,0.0026,2.4712,-8.9999,-0.2727,-0.7324,-0.6763,47
12.593,243,0.3791,9.6318,-5.946,0.8837,1.7666,-1.7078,75,12.133,234,7.8742,-1.0497,-10.6528,-0.5188,0.6468,0.1255,86,80891.752,1564260,-0.7475,1.5907,-8.6977,0.4748,0.031,0.1821,47
12.645,244,0.3617,7.9041,-6.2922,0.966,1.8343,-1.6943,75,12.185,235,7.7821,-1.1174,-10.2541,-0.6345,0.5946,0.0284,86,80891.803,1564261,-1.3214,0.981,-8.4698,1.0204,0.5508,0.8086,47
12.697,245,1.3063,11.1529,-5.2425,1.0272,1.5266,-1.2911,75,12.237,236,8.4691,-1.3442,-10.4093,-0.6342,0.4813,-0.03,86,80891.855,1564262,-1.7664,0.5716,-8.2792,1.4186,0.8973,1.2658,47
12.748,246,4.8366,8.8208,-7.608,1.1458,0.7976,-0.7139,75,12.288,237,8.1476,-2.4266,-10.3078,-0.5224,0.6498,-0.1338,86,80891.907,1564263,-2.0951,0.3188,-8.1323,1.7093,1.1113,1.5996,47
12.8,247,6.5025,4.3367,-10.2557,0.1976,-0.0872,0.1556,75,12.34,238,8.2793,-2.6086,-10.8364,-0.5221,0.6105,-0.3138,86,80891.958,1564264,-2.168,-0.0423,-8.2036,1.9214,1.2327,1.8431,47
12.852,248,9.7423,2.0503,-8.1563,-0.5305,-0.733,0.7902,75,12.392,239,9.1546,-2.2496,-10.6674,-0.5778,0.3948,-0.4284,86,80892.01,1564265,0.1608,-1.9429,-8.8179,2.0762,1.1021,2.0209,47
12.904,249,12.168,6.8863,-3.3617,-0.9072,-0.9498,1.2534,75,12.444,240,9.0568,-2.9895,-10.5388,-0.698,0.26,-0.3641,86,80892.062,1564266,3.1761,-4.3025,-11.9706,1.7193,0.5264,2.1506,47
12.956,250,10.3028,8.5944,-0.8359,-1.1506,-0.4084,0.7897,75,12.496,241,8.5581,-3.5511,-10.1792,-0.7338,0.1152,-0.326,86,80892.114,1564267,4.6579,-4.6602,-13.1009,1.0119,-0.2248,2.0131,47
13.007,251,6.8275,10.5356,-0.4033,-1.5007,-0.1448,-0.0291,75,12.547,242,8.2035,-3.1544,-10.0288,-0.7801,-0.1525,-0.1397,86,80892.165,1564268,4.2393,-4.0049,-12.865,0.4186,-0.733,1.3769,47
13.059,252,5.5556,10.5027,-0.1209,-1.1804,0.2541,-0.6791,75,12.599,243,7.926,-2.7956,-9.8462,-0.8179,-0.3791,0.1037,86,80892.217,1564269,3.0849,-2.8925,-11.8306,-0.0864,-1.084,0.7831,47
13.111,253,4.3488,9.1463,-0.2503,-0.6673,0.837,-1.1585,75,12.651,244,7.7882,-2.5073,-9.7619,-0.8763,-0.3304,0.1754,86,80892.269,1564270,2.2294,-2.0453,-11.0611,-0.4539,-1.3402,0.3473,47
13.163,254,3.126,7.4577,-0.4118,0.0567,1.2933,-1.5061,75,12.703,245,7.7835,-2.2132,-9.798,-0.8702,-0.1446,0.074,86,80892.321,1564271,1.5619,-1.2831,-10.348,-0.7225,-1.5266,0.026,47
13.215,255,2.3433,6.6915,-0.2271,0.1871,1.6263,-1.5069,75,12.755,246,7.7626,-2.0831,-10.0564,-0.9186,0.1032,-0.0223,86,80892.373,1564272,1.7594,-0.6623,-8.5289,-0.8341,-1.6111,0.1111,47
13.266,256,2.5314,3.9738,-2.7849,0.3645,1.8694,-1.1923,75,12.807,247,7.7588,-1.8422,-10.3557,-0.9429,0.2542,-0.1379,86,80892.424,1564273,1.3961,-0.3351,-8.6357,-0.9687,-1.7337,0.412,47
13.318,257,1.7915,0.3562,-10.029,0.686,1.666,-0.4868,75,12.858,248,7.2842,-2.0715,-10.8668,-0.7854,0.273,-0.1749,86,80892.476,1564274,1.1462,-0.1014,-8.744,-1.0744,-1.8182,0.8468,47
13.37,258,3.6837,5.0293,-4.7285,-0.1767,0.5466,-0.2312,75,12.91,249,7.8396,-1.8273,-10.9501,-0.6009,0.1565,-0.513,86,80892.528,1564275,0.963,0.0704,-8.822,-1.1577,-1.8752,1.2001,47
13.422,259,1.6675,9.0605,-4.5331,0.5454,-0.2704,0.5079,75,12.962,250,8.8399,-2.6479,-11.608,-0.7569,-0.1757,-0.7235,86,80892.58,1564276,0.8328,0.1956,-8.8683,-1.225,-1.9112,1.4586,47
13.474,260,6.2747,10.9752,-10.3067,-0.2793,-0.8667,1.0473,75,13.014,251,9.3006,-2.7393,-12.0638,-0.8082,-0.1171,-0.3545,86,80892.631,1564277,0.7569,0.2762,-8.9067,-1.2789,-1.9331,1.6477,47
13.525,261,9.6371,10.4037,-7.0461,0.4696,0.0152,0.2607,75,13.066,252,9.5966,-2.4056,-12.0861,-0.5037,-0.1931,0.0361,86,80892.683,1564278,-4.6791,-0.732,-11.2354,-1.1709,-1.8344,1.3383,47
13.577,262,8.4864,10.9311,-6.1073,0.0646,0.6935,-0.4736,75,13.117,253,9.0793,-2.7218,-12.1811,0.0109,-0.1812,0.5144,86,80892.735,1564279,-8.6466,2.4367,-16.2256,-1.4687,-1.0911,1.4246,47
13.629,263,5.7249,11.4999,-5.9886,-0.1254,1.1882,-1.0208,75,13.169,254,8.5083,-1.5732,-11.3253,-0.1985,-0.1579,0.5645,86,80892.787,1564280,-5.8626,1.6969,-14.4782,-1.7498,-0.2763,1.7154,47
13.681,264,5.0549,10.2923,-5.904,-0.3868,1.2994,-1.4201,75,13.221,255,8.0954,-1.3588,-11.2325,-0.4605,-0.1661,0.6328,86,80892.839,1564281,-3.7763,1.0555,-12.6415,-1.955,0.3557,1.9277,47
13.732,265,3.2834,9.5884,-6.6671,-0.1712,1.4232,-1.7116,75,13.273,256,8.0132,-1.0012,-11.1365,-0.2861,-0.0216,0.4851,86,80892.89,1564282,0.5873,-1.4722,-12.3701,-1.6148,-0.288,1.321,47
13.784,266,1.5233,8.3516,-8.7482,-0.1978,1.3057,-1.9243,75,13.325,257,7.7585,-1.1735,-11.206,-0.3208,0.2813,0.1754,86,80892.942,1564283,0.1893,-1.4676,-10.5508,-1.8564,-0.8732,0.5724,47
13.836,267,0.2591,5.4072,-10.059,-0.4672,0.732,-1.9927,75,13.376,258,7.6181,-1.3758,-11.2225,-0.5176,0.5584,-0.2107,86,80892.994,1564284,-0.1825,-1.4434,-9.1293,-2.0328,-1.3004,-0.249,47
13.888,268,-0.8855,0.2033,-4.7503,0.0255,-0.0263,-1.8022,75,13.428,259,7.8179,-0.985,-11.2923,-0.5051,0.4831,-0.3113,86,80893.046,1564285,-0.4388,-1.4284,-8.1,-2.1615,-1.6122,-0.8578,47
13.94,269,-1.0472,-5.0493,-10.8169,0.5656,-0.4596,-0.8201,75,13.48,260,7.9665,-1.1199,-11.2735,-0.6332,0.5871,-0.474,86,80893.097,1564286,-0.6261,-1.4226,-7.359,-2.2554,-1.8397,-1.3021,47
13.991,270,4.2573,-1.4442,-10.3813,1.0872,-0.9274,0.0781,75,13.532,261,7.4115,-2.0184,-11.9056,-0.478,0.5231,-0.1547,86,80893.149,1564287,-0.759,-1.4207,-6.8314,-2.324,-2.0058,-1.6264,47
14.043,271,8.1648,4.229,-6.7552,0.1161,-1.3462,0.7336,75,13.584,262,8.5925,-1.5411,-11.1352,-0.3822,0.2005,0.1058,86,80893.201,1564288,-0.8527,-1.4248,-6.4693,-2.374,-2.127,-1.8631,47
14.095,272,10.6121,8.2476,-6.2504,-0.2562,-0.3001,-0.1219,75,13.635,263,9.9119,-2.42,-11.1309,0.1729,-0.3062,0.5647,86,80893.252,1564289,-3.8528,-3.8261,-2.1582,-1.8452,-2.1933,-1.3894,47
14.147,273,7.7868,11.348,-5.7681,-0.1613,0.3104,-0.5474,75,13.687,264,8.8057,-2.9955,-11.1136,0.7979,-0.4192,0.9169,86,80893.304,1564290,-3.8837,-5.4376,-0.8911,-0.6772,-1.3709,-0.581,47
14.199,274,4.5143,12.9988,-3.5257,-0.7951,0.4526,-1.0693,75,13.739,265,8.1448,-2.4865,-10.3635,0.3327,-0.5159,0.5447,86,80893.356,1564291,-3.0499,-3.5026,-1.4606,0.1796,-0.6169,0.0837,47
14.251,275,3.1411,11.0217,-2.933,-1.1589,0.9577,-1.4556,75,13.791,266,7.8623,-2.9109,-9.9641,-0.1231,-0.7141,0.5306,86,80893.408,1564292,-2.4156,-2.4659,-2.9614,0.805,-0.0812,0.5782,47
14.302,276,1.1627,9.1646,-2.7188,-0.5988,1.3814,-1.7127,75,13.843,267,7.2243,-2.9,-9.6387,-0.1034,-0.6155,0.3382,86,80893.459,1564293,3.5953,-3.7365,-10.1869,0.0287,-0.6662,0.1527,47
14.354,277,0.8012,6.6787,-3.6278,-0.4422,1.6906,-1.682,75,13.894,268,6.8705,-2.732,-9.7337,-0.1821,-0.3735,0.1507,86,80893.511,1564294,2.5653,-2.7949,-9.2108,-0.6569,-1.1493,-0.2729,47
14.406,278,0.9448,6.208,-3.5328,0.3119,1.9001,-1.8744,75,13.946,269,6.8488,-2.9752,-10.3379,-0.1245,-0.0082,-0.0966,86,80893.563,1564295,1.7102,-2.0428,-8.2799,-1.1573,-1.5019,-0.586,47
14.458,279,-0.0158,9.3464,-7.5317,-0.1904,1.7742,-1.9575,75,13.998,270,7.2235,-2.7669,-10.57,0.1618,0.2827,-0.3335,86,80893.615,1564296,1.0886,-1.5,-7.5992,-1.5225,-1.7593,-0.818,47
14.509,280,1.023,1.6237,-12.5508,0.5354,0.6565,-0.9008,75,14.05,271,7.3409,-2.8982,-10.7325,0.1097,0.2418,-0.4867,86,80893.667,1564297,0.6307,-1.1049,-7.0927,-1.7891,-1.9471,-0.9897,47
14.561,281,2.8387,0.3792,-10.2207,1.0498,-0.1902,0.0192,75,14.102,272,7.0366,-3.1646,-11.0712,0.1849,0.1684,-0.4253,86,80893.718,1564298,0.7942,-0.7164,-4.9578,-1.9836,-2.0841,-1.0707,47
14.613,282,7.1294,3.7277,-10.0059,1.4406,-0.8082,0.6907,75,14.154,273,7.0966,-2.6847,-10.5162,0.246,0.0054,-0.3158,86,80893.77,1564299,1.3357,-1.8496,-8.9907,-2.1256,-2.1842,-1.1411,47
14.665,283,10.261,6.8904,-9.7619,0.6804,-0.8118,1.1556,75,14.206,274,7.817,-2.9431,-10.0635,0.5104,-0.4805,0.0187,86,80893.822,1564300,0.8708,-3.1529,-13.6355,-2.2292,-2.0079,-1.3389,47
14.717,284,11.6746,7.2651,-7.2141,-0.1808,0.0899,0.6596,75,14.257,275,9.4022,-3.3498,-10.5739,0.7889,-0.8114,0.1192,86,80893.874,1564301,3.6062,-5.8763,-16.9516,-1.6718,-1.0562,-0.9289,47
14.768,285,9.3005,10.6923,-4.6833,0.4681,0.7481,-0.1937,75,14.309,276,9.2638,-4.3204,-12.4364,0.8022,0.0776,-0.163,86,80893.925,1564302,3.2492,-5.1782,-13.3574,-0.5774,-0.0822,-0.0022,47
14.82,286,7.9543,10.4465,-3.724,0.1936,1.2284,-0.8165,75,14.361,277,8.3411,-3.0265,-11.179,0.7206,0.6529,-0.76,86,80893.977,1564303,2.0439,-4.0022,-10.2825,0.2525,0.6287,0.6112,47
14.872,287,6.725,8.8534,-4.5938,-0.2582,1.5696,-1.2309,75,14.413,278,8.3989,-2.3059,-10.7912,0.5103,0.2623,-0.4019,86,80894.029,1564304,0.9723,-2.7528,-8.2901,0.8581,1.1475,1.0462,47
14.924,288,3.8751,7.1174,-6.7014,-0.4545,1.828,-1.2815,75,14.465,279,8.0177,-2.4499,-10.7548,0.6005,-0.1097,-0.0909,86,80894.081,1564305,0.6767,-2.0344,-4.9863,-0.0516,0.1744,0.5046,47
14.976,289,1.3804,5.6965,-7.263,0.1113,2.0166,-1.2016,75,14.516,280,7.2255,-2.298,-10.2886,0.6165,0.0605,-0.1594,86,80894.133,1564306,0.3817,-1.5191,-4.3583,-0.7155,-0.5358,0.1054,47
15.027,290,-1.1095,8.1777,-4.4071,-0.3191,2.1542,-1.1634,75,14.568,281,7.1299,-2.2833,-10.0079,0.5472,0.1437,-0.248,86,80894.184,1564307,0.1658,-1.1502,-3.9002,-1.2001,-1.0541,-0.191,47
15.079,291,-0.348,5.0388,-5.4437,-0.433,1.985,-0.7457,75,14.62,282,7.1909,-2.1537,-9.9415,0.6437,0.206,-0.3222,86,80894.236,1564308,0.0275,-0.8874,-3.5532,-1.5537,-1.4324,-0.4117,47
15.131,292,1.4014,1.921,-8.3064,-0.3176,1.1588,0.1324,75,14.672,283,7.3012,-1.4132,-10.0703,0.8605,0.2021,-0.1792,86,80894.288,1564309,-0.0778,-0.717,-3.3,-1.8119,-1.7085,-0.5778,47
15.183,293,4.1233,-2.5263,-11.5242,-0.4271,0.1764,0.7733,75,14.723,284,7.46,-1.3284,-10.2225,1.0054,0.2294,-0.0153,86,80894.34,1564310,-2.3401,-0.1966,-3.8213,-2.0003,-1.9101,-0.6595,47
15.234,294,6.7575,-3.1356,-7.9615,-0.9891,-0.5406,1.241,75,14.775,285,7.7145,-1.2363,-10.5183,1.2062,0.1412,0.0896,86,80894.391,1564311,-2.5608,1.1659,-4.4743,-2.1377,-2.0571,-0.3533,47
15.286,295,9.9895,-6.5004,-5.2873,-0.6436,-1.0639,1.5824,75,14.827,286,7.4516,-1.235,-9.7703,1.0691,-0.3365,0.1943,86,80894.443,1564312,-4.7808,1.7942,-5.86,-2.2381,-2.1645,-0.1158,47
15.338,296,11.6234,0.6457,-2.7874,-1.1453,-0.2037,1.0861,75,14.879,287,7.9916,-2.5292,-9.8208,0.687,-0.9183,0.3086,86,80894.495,1564313,-8.7208,3.9858,-8.419,-1.8397,-1.7227,0.3565,47
15.39,297,12.0589,2.5015,-0.0772,-0.2411,0.4809,0.1518,75,14.931,288,8.1613,-4.1088,-10.6703,0.7255,-0.8188,0.3401,86,80894.546,1564314,-11.5964,4.6836,-12.9139,-1.3618,-0.5904,0.9359,47
15.441,298,7.3834,3.4926,1.0213,0.4639,1.0334,-0.3779,75,14.982,289,7.9134,-3.8178,-10.8716,0.8197,-0.6032,0.3203,86,80894.598,1564315,-8.395,2.4594,-9.6285,-0.6872,0.2578,1.3587,47
15.493,299,5.9657,3.7406,1.1941,0.994,1.4367,-0.3973,75,15.034,290,7.465,-3.7539,-11.4654,0.92,-0.5744,0.2741,86,80894.65,1564316,-6.0605,0.8113,-7.1578,-0.1423,0.8768,1.6673,47
15.545,300,4.8528,3.604,0.012,1.1392,1.731,-0.2756,75,15.086,291,7.4054,-3.8401,-11.9376,0.9863,-0.5669,0.0779,86,80894.702,1564317,-9.6548,-4.6657,-2.6607,-0.3157,1.2876,1.4444,47
15.597,301,3.6747,0.4862,-3.1937,1.125,1.9457,0.0535,75,15.138,292,7.3016,-3.6675,-12.0111,1.0706,-0.7236,-0.0933,86,80894.753,1564318,-6.933,-3.3717,-4.9866,0.0523,0.3627,1.1759,47
15.648,302,3.6945,-4.0825,-10.2387,0.4816,2.1025,0.1034,75,15.19,293,7.301,-3.1969,-12.2122,1.292,-0.9475,-0.2851,86,80894.805,1564319,-5.0486,-2.3883,-6.1053,0.3176,-0.3128,1.1349,47
15.7,303,1.3034,-4.2355,-15.4691,1.0101,1.1497,0.7521,75,15.241,294,7.4401,-2.4004,-12.1512,1.3831,-1.1574,-0.3432,86,80894.857,1564320,-3.6717,-1.6609,-6.9304,0.5059,-0.8057,1.1054,47
15.752,304,-2.6362,-4.8394,-14.3819,1.2953,0.1719,1.2256,75,15.293,295,7.5336,-1.6318,-12.5433,1.2978,-1.3367,-0.1916,86,80894.909,1564321,-2.6666,-1.1221,-7.5371,0.6398,-1.1667,1.0849,47
15.804,305,3.1336,1.3758,-12.972,1.6197,-0.5439,1.5711,75,15.345,296,7.7761,-1.3903,-12.1271,1.2024,-1.321,-0.0622,86,80894.96,1564322,-4.5053,-1.1915,-10.1598,0.3766,-1.4585,1.1365,47
15.856,306,7.3446,1.3089,-11.0356,1.6962,-0.9131,1.8233,75,15.397,297,7.6203,-1.8479,-11.9077,1.0723,-1.5323,-0.0175,86,80895.012,1564323,-8.5197,-2.7259,-15.4406,-0.2932,-1.2964,1.3277,47
15.908,307,8.4736,2.231,-11.1193,0.5606,0.016,1.523,75,15.449,298,7.5435,-2.0319,-12.4793,1.4067,-1.526,-0.1516,86,80895.064,1564324,-5.79,-0.2565,-19.2948,-0.8919,-0.6003,1.6318,47
15.96,308,8.9069,3.887,-7.3731,0.2531,0.6941,0.4496,75,15.5,299,7.1243,-3.3574,-13.5918,1.505,-1.0852,-0.71,86,80895.116,1564325,-3.8479,0.7601,-18.396,-1.3288,-0.2013,1.836,47
16.011,309,7.3617,6.1091,-4.407,-0.2247,1.189,-0.3041,75,15.552,300,7.5801,-2.6764,-12.9659,1.095,-0.7268,-0.9602,86,80895.168,1564326,-2.1272,0.4184,-14.3785,-1.6477,0.5417,2.0157,47
16.063,310,6.0094,5.2441,-3.4593,0.0821,1.5502,-0.7424,75,15.604,301,7.6426,-3.4889,-13.3139,0.9713,-0.7748,-0.8111,86,80895.22,1564327,-0.8924,0.1229,-11.4621,-1.8804,1.084,2.1468,47
16.115,311,4.32,4.0583,-3.2553,0.7096,1.8138,-0.5451,75,15.656,302,7.4297,-3.3288,-13.6516,1.3806,-0.442,-0.9263,86,80895.271,1564328,4.707,-1.3101,-16.3911,-1.0492,0.4445,0.9635,47
16.167,312,3.4512,2.7548,-4.3075,1.0743,2.0062,-0.3937,75,15.708,303,6.6955,-3.1071,-13.5662,1.4675,-0.223,-1.1293,86,80895.323,1564329,3.7572,-1.0794,-14.2837,-0.0919,-0.0877,0.0271,47
16.219,313,2.7838,2.0387,-5.3591,0.2372,1.9287,0.0176,75,15.76,304,6.4929,-2.4488,-13.3089,1.3391,-0.212,-1.1531,86,80895.375,1564330,3.0797,-0.8826,-12.7813,0.6068,-0.4624,-0.6563,47
16.27,314,4.7557,2.9026,-1.6451,0.7778,1.7618,-0.4923,75,15.811,305,6.7999,-2.1404,-13.3845,1.4788,-0.3784,-0.9207,86,80895.427,1564331,2.5934,-0.7311,-11.6999,1.1168,-0.7206,-1.155,47
16.322,315,1.408,-3.0793,-7.4661,-0.0078,1.1259,0.1107,75,15.863,306,7.3443,-1.7582,-13.6503,1.7507,-0.5914,-0.7017,86,80895.478,1564332,2.2384,-0.6181,-10.9051,1.4889,-0.8957,-1.5191,47
16.374,316,2.9549,-1.2035,-5.9944,0.3607,0.1524,0.7574,75,15.915,307,7.769,-1.5839,-13.6506,1.8846,-0.6669,-0.6152,86,80895.53,1564333,1.9907,-0.5307,-10.3274,1.7606,-1.0074,-1.7847,47
16.425,317,7.2142,4.1834,-2.3277,-0.198,-0.5581,1.2294,75,15.967,308,7.7041,-1.4378,-13.0343,1.6496,-0.7938,-0.5009,86,80895.582,1564334,2.3649,1.7649,-15.5499,1.9588,-1.0908,-1.9786,47
16.477,318,10.3229,4.7423,-4.6415,0.4434,-0.0853,0.936,75,16.019,309,7.9834,-1.6524,-12.7924,1.6335,-1.1107,-0.344,86,80895.634,1564335,0.3278,0.0842,-17.0386,1.7182,-1.2721,-1.9507,47
16.529,319,8.9469,4.5122,-3.2708,-0.3537,0.604,0.2532,75,16.07,310,7.2752,-2.156,-13.0366,1.8449,-1.0233,-0.5498,86,80895.685,1564336,-2.6136,0.3933,-19.9784,0.7497,-1.5903,-1.0365,47
16.581,320,4.7533,8.6332,-0.9818,0.1944,1.1233,0.1718,75,16.122,311,8.4243,-2.1999,-12.0296,0.8295,-0.9579,-0.8791,86,80895.737,1564337,-1.6608,1.6461,-16.7848,-0.1307,-1.821,-0.0808,47
16.633,321,3.1174,6.9859,0.1982,0.769,1.4616,0.4404,75,16.174,312,8.1188,-3.9506,-11.8734,-0.0746,-0.7164,-0.8872,86,80895.789,1564338,-0.2791,1.597,-13.476,-0.7733,-1.9566,0.6167,47
16.684,322,1.8296,6.0821,1.4243,1.1945,1.7491,0.2398,75,16.226,313,7.4312,-4.6385,-12.3187,0.053,-0.1819,-1.0566,86,80895.84,1564339,0.8727,1.1309,-11.1978,-1.2422,-2.0156,1.1258,47
16.736,323,1.4676,3.3694,2.1051,1.508,1.959,0.3195,75,16.278,314,7.7022,-4.2616,-12.8553,0.6975,0.2509,-1.0699,86,80895.892,1564340,0.9117,0.8555,-9.9567,-0.2328,-1.2659,0.6604,47
16.788,324,1.112,3.1957,2.6234,1.775,2.1122,0.2699,75,16.329,315,7.1484,-3.6757,-13.197,1.0717,0.5115,-0.9857,86,80895.944,1564341,0.8382,0.7202,-8.9083,0.504,-0.7218,0.3208,47
16.84,325,1.3072,3.2724,1.4472,0.9224,2.224,0.3258,75,16.381,316,6.9929,-2.9874,-12.7592,1.3395,0.5015,-0.84,86,80895.996,1564342,0.7841,0.6196,-8.1524,1.0417,-0.3253,0.0726,47
16.892,326,1.17,1.3275,-4.1173,0.5799,2.3056,0.3017,75,16.433,317,7.1067,-2.8949,-12.9998,1.5488,0.2398,-0.5655,86,80896.047,1564343,0.7354,0.5528,-7.603,1.4342,-0.0373,-0.1095,47
16.943,327,2.0166,2.4296,-7.5628,0.5553,1.1079,0.835,75,16.485,318,7.5983,-2.4114,-12.7833,1.7503,-0.0247,-0.5317,86,80896.099,1564344,0.6976,0.507,-7.2081,1.7206,0.173,-0.2431,47
16.995,328,2.4147,1.3986,-10.1115,0.6976,0.1392,1.2861,75,16.537,319,7.7682,-2.3907,-12.5683,1.7811,-0.3156,-0.5141,86,80896.151,1564345,0.8561,-0.5124,-7.9104,1.9296,0.4877,-0.4981,47
17.047,329,6.5071,2.4152,-9.8631,1.1835,-0.5677,1.6153,75,16.588,320,7.9238,-2.4317,-11.9663,1.6542,-0.5474,-0.4738,86,80896.203,1564346,0.8237,-1.7437,-8.1019,2.0822,0.881,-1.0396,47
17.099,330,9.8067,3.3847,-5.0639,0.3926,-0.5831,1.8555,75,16.64,321,8.3865,-2.5062,-11.5502,1.3432,-0.5501,-0.4396,86,80896.254,1564347,1.1752,-6.0017,-10.4578,2.1936,0.9999,-1.077,47
17.151,331,10.0756,4.4611,-4.5059,-0.2162,0.2569,1.0194,75,16.692,322,8.6321,-3.6129,-12.5804,1.5308,-0.0636,-0.6768,86,80896.306,1564348,0.6102,-8.9541,-13.8164,2.1098,0.6729,-0.7915,47
17.202,332,7.6588,7.0741,-4.1493,-0.4733,0.7556,0.3627,75,16.744,323,8.7089,-3.2427,-12.747,1.5514,0.6075,-0.9811,86,80896.358,1564349,-0.3442,-10.5022,-15.7259,1.5921,0.1928,-0.165,47
17.254,333,4.8834,8.3576,-3.8659,-0.5182,0.9189,-0.2196,75,16.796,324,8.6468,-2.1282,-12.0346,0.9879,0.368,-0.6989,86,80896.41,1564350,-0.0044,-7.3817,-13.8383,0.5541,-0.331,0.5553,47
17.306,334,3.1477,8.9384,-3.7801,-0.1478,1.1073,-0.8354,75,16.847,325,8.1236,-2.3882,-12.3271,0.4642,-0.0118,-0.4083,86,80896.462,1564351,0.2554,-5.0637,-12.4054,-0.2121,-0.7018,1.081,47
17.358,335,2.2636,8.7027,-4.0349,-0.1606,1.0862,-1.2848,75,16.899,326,7.7343,-2.1682,-12.2129,0.3371,-0.04,-0.2799,86,80896.513,1564352,-0.8132,-3.3375,-17.0795,0.0643,-0.6115,0.7789,47
17.41,336,2.7344,4.5368,-4.2525,-0.7946,0.9112,-1.6128,75,16.951,327,7.3692,-2.2908,-12.2541,0.2331,0.1232,-0.2947,86,80896.565,1564353,-0.3658,-2.4396,-14.3007,0.7208,-1.1094,0.4688,47
17.461,337,2.5916,1.2883,-5.797,-1.2159,0.886,-1.2633,75,17.003,328,7.5222,-2.1768,-12.3336,0.1007,0.244,-0.2663,86,80896.617,1564354,-0.0594,-1.7952,-12.241,1.2,-1.4728,0.1419,47
17.513,338,3.5862,-4.2575,-6.697,-0.9854,0.2124,-0.2453,75,17.055,329,7.3043,-2.1914,-12.808,0.0825,0.4255,-0.2475,86,80896.669,1564355,0.1695,-1.3285,-10.7407,1.5497,-1.738,-0.0967,47
17.565,339,1.6888,-2.752,-7.2388,-0.0922,-0.4376,0.4976,75,17.107,330,6.6694,-1.3881,-12.3885,0.1127,0.3922,-0.2984,86,80896.721,1564356,0.335,-0.9936,-9.6449,1.8049,-1.9315,-0.271,47
17.617,340,6.2902,3.1117,-4.2792,0.6071,-0.9887,1.0398,75,17.158,331,7.2188,-0.8755,-12.0157,0.0402,-0.062,0.12,86,80896.772,1564357,2.1939,-5.983,-6.6052,1.9912,-2.0728,-0.3451,47
17.669,341,9.6484,1.3313,-1.4617,0.984,-1.1113,1.4058,75,17.21,332,8.101,-1.7624,-12.9968,0.6909,-0.4233,0.4963,86,80896.824,1564358,1.3259,-9.6245,-7.6984,2.0849,-2.0221,-0.1193,47
17.72,342,11.0162,3.0073,-1.1975,0.0667,-0.4095,0.8333,75,17.262,333,8.1829,-2.0967,-13.3568,1.1759,-0.0884,0.1013,86,80896.876,1564359,-0.0902,-9.6401,-7.4177,2.1065,-1.6868,0.2713,47
17.772,343,9.2265,3.7269,-0.8504,0.1729,0.3836,0.359,75,17.314,334,9.3084,-2.2578,-12.8716,0.5817,-0.4626,-0.1563,86,80896.928,1564360,-3.525,-8.416,-7.2659,2.2113,-0.8945,0.8737,47
17.824,344,5.2619,3.9922,-1.1544,0.5837,0.9624,0.2517,75,17.366,335,8.8047,-3.1792,-12.2206,0.5752,-0.5386,-0.1793,86,80896.979,1564361,-2.8831,-6.2926,-7.7027,2.2878,-0.0841,1.3133,47
17.876,345,3.4144,5.1194,-1.6925,0.9982,1.3848,0.0138,75,17.417,336,8.2303,-2.9112,-11.7883,1.0916,-0.4411,-0.3288,86,80897.031,1564362,-2.4043,-4.7313,-8.0342,2.3436,0.4871,1.6342,47
17.928,346,3.2303,3.5875,-2.008,0.9004,1.6931,-0.2114,75,17.469,337,7.6551,-2.4316,-11.3957,1.4566,-0.2692,-0.3562,86,80897.083,1564363,2.281,-8.711,-13.8892,2.3771,0.8805,1.8684,47
17.979,347,3.4147,2.6612,-3.6281,1.0737,1.9181,-0.3008,75,17.521,338,7.5212,-2.0734,-11.1381,1.4374,-0.226,-0.4004,86,80897.134,1564364,0.6879,-5.8782,-12.482,1.057,0.9709,0.6876,47
18.031,348,3.5275,2.2535,-4.4043,0.7863,1.8988,-0.4059,75,17.573,339,7.5555,-2.0785,-10.9078,1.2894,-0.1887,-0.5676,86,80897.186,1564365,-0.3371,-3.8557,-10.848,0.0936,0.9963,-0.1742,47
18.083,349,2.4657,-0.6529,-9.6109,0.3632,1.848,-0.0987,75,17.625,340,7.4317,-2.1199,-10.6826,1.3613,-0.2038,-0.541,86,80897.238,1564366,-1.0941,-2.4125,-9.6668,-0.6096,0.9664,-0.8032,47
18.135,350,5.7161,4.9134,-12.0381,0.9222,1.939,0.2796,75,17.676,341,7.3373,-2.3183,-10.0541,1.2763,-0.2037,-0.3288,86,80897.29,1564367,-1.6595,-1.3685,-8.8004,-1.1228,0.904,-1.2623,47
18.186,351,2.841,8.9759,-9.8654,1.3475,0.8065,0.8807,75,17.728,342,7.0187,-2.813,-10.3411,1.0555,-0.1645,-0.0244,86,80897.341,1564368,-2.093,-0.632,-8.162,-1.4973,0.8093,-1.5973,47
18.238,352,7.1311,3.9337,-8.8203,0.3061,0.0287,1.3184,75,17.78,343,7.9449,-1.9278,-9.5934,1.2359,-0.4857,0.36,86,80897.393,1564369,-2.4266,-0.1311,-7.6876,-1.7707,0.6995,-1.8419,47
18.29,353,10.2622,6.261,-6.1694,-0.4165,0.7033,0.4611,75,17.832,344,9.8824,-3.0728,-10.7678,1.1227,-1.0272,0.7949,86,80897.445,1564370,-2.638,0.2119,-7.4004,-1.9702,0.5694,-2.0203,47
18.342,354,8.215,9.8391,-4.5423,-0.1339,1.1957,-0.3386,75,17.884,345,9.1667,-3.485,-11.5481,0.9417,-0.1311,0.1596,86,80897.497,1564371,3.433,-3.8094,-11.0399,-1.1677,0.8275,-0.7988,47
18.394,355,4.3998,9.9918,-5.4236,-0.5885,1.5551,-0.9222,75,17.936,346,8.7366,-2.4743,-10.8568,0.6832,0.1709,-0.2274,86,80897.549,1564372,2.1512,-3.2866,-9.5733,-0.1783,1.2926,0.0927,47
18.445,356,1.8413,8.7232,-5.9392,-0.5216,1.7127,-1.3482,75,17.987,347,8.3931,-2.3919,-10.8245,0.481,-0.0654,-0.0769,86,80897.6,1564373,2.0258,0.3562,-9.3795,0.5437,1.6321,-0.2705,47
18.497,357,-0.5852,6.1983,-6.4804,-0.8004,1.9173,-1.5373,75,18.039,348,7.5483,-2.9115,-10.781,0.0857,-0.0306,-0.1093,86,80897.652,1564374,2.1936,0.7481,-9.789,1.0707,1.6589,-0.8735,47
