right_hand_timestamp,right_hand_index,right_hand_accel_x,right_hand_accel_y,right_hand_accel_z,right_hand_gyro_x,right_hand_gyro_y,right_hand_gyro_z,right_hand_battery_percentage,left_hand_timestamp,left_hand_index,left_hand_accel_x,left_hand_accel_y,left_hand_accel_z,left_hand_gyro_x,left_hand_gyro_y,left_hand_gyro_z,left_hand_battery_percentage,ball_timestamp,ball_index,ball_accel_x,ball_accel_y,ball_accel_z,ball_gyro_x,ball_gyro_y,ball_gyro_z,ball_battery_percentage
0.457,8,-0.2256,-9.613,-9.9575,0.4078,-0.7423,2.3073,91,0.293,5,-0.1931,1.2276,-9.7067,-1.9146,-0.9371,1.2477,85,12541.146,242490,2.7367,-1.0031,-10.4137,-1.3787,-1.5644,-1.5848,59
0.509,9,-1.9042,-8.4533,-11.1758,0.972,-0.4334,2.1717,91,0.344,6,4.2225,4.3944,-7.939,-2.0774,-1.3566,1.576,85,12541.198,242491,1.9639,-0.7928,-10.1504,-1.3427,-1.6399,-1.8327,59
0.561,10,-2.9078,-6.6106,-11.3821,1.3838,-0.3098,1.5882,91,0.396,7,8.0013,-0.4141,-6.8707,-2.1285,-1.6628,1.8156,85,12541.249,242492,4.3403,-1.6212,-6.9063,-1.3253,-1.8511,-1.9411,59
0.613,11,-2.7656,-4.6289,-10.766,1.6843,-0.5226,0.7857,91,0.448,8,9.3219,-0.1842,-9.7328,-0.8817,-1.2437,0.6387,85,12541.301,242493,3.9075,-3.0418,-5.8842,-1.5068,-2.0141,-2.0928,59
0.664,12,-2.9643,-2.9161,-9.9478,1.7921,-0.86,-0.0934,91,0.5,9,11.4612,5.1924,-9.2155,0.0282,-0.3188,-0.2202,85,12541.353,242494,1.2618,-2.4326,-4.7663,-1.4475,-2.1331,-2.2035,59
0.716,13,-2.2159,-3.4189,-9.9417,1.8428,-1.297,-0.7433,91,0.552,10,9.7814,4.176,-8.0397,0.5506,0.3524,-0.841,85,12541.405,242495,0.0207,-2.5735,-4.1769,-1.3662,-2.2199,-2.2842,59
0.768,14,-1.9615,-2.7132,-9.694,2.0193,-1.616,-1.2176,91,0.604,11,6.8737,6.0861,-12.0826,1.0736,0.9363,-1.3001,85,12541.456,242496,-0.9805,-2.0264,-4.3945,-1.3156,-2.239,-2.3432,59
0.82,15,-0.3308,-4.0889,-7.2865,2.1482,-1.8487,-1.5638,91,0.655,12,5.4056,8.3764,-12.9318,1.2398,0.0107,-1.6353,85,12541.508,242497,-2.0744,-2.5875,-5.1249,-1.4707,-1.8993,-2.3862,59
0.872,16,4.0332,2.4057,-11.1221,2.2422,-2.0186,-1.6129,91,0.707,13,2.0627,9.2925,-12.3798,0.8194,-0.1313,-1.8799,85,12541.56,242498,-1.0671,-2.0959,-4.4924,-1.6432,-1.7373,-2.3506,59
0.923,17,8.0004,3.7155,-10.4274,0.9591,-2.1426,-0.7271,91,0.759,14,-0.4936,7.633,-11.7529,0.3238,-0.1578,-2.0584,85,12541.612,242499,-1.1732,-1.7342,-5.0742,-1.7462,-1.3957,-2.1409,59
0.975,18,8.1254,-1.1099,-8.3965,0.0226,-0.8813,0.0823,91,0.811,15,-0.8399,4.5144,-12.005,0.7679,-0.6757,-0.9319,85,12541.664,242500,-1.1581,-0.9844,-6.1801,-1.6146,-0.8603,-1.7335,59
1.027,19,4.8281,-2.629,-6.8739,0.0644,-0.3163,0.3906,91,0.863,16,2.4275,3.2722,-16.7016,1.0572,-1.1659,-0.0147,85,12541.715,242501,-0.8761,-0.1519,-7.4228,-1.6157,-0.1803,-1.1977,59
1.079,20,2.7402,-4.2762,-6.1096,-0.6304,-0.2392,0.8274,91,0.914,17,0.7682,2.0478,-18.6177,0.793,-0.4703,-0.613,85,12541.767,242502,-0.2151,1.7862,-9.5571,-1.6347,0.5571,-0.7318,59
1.13,21,2.0013,-7.7281,-5.4969,-0.6466,-0.0471,1.2805,91,0.966,18,-0.441,6.8214,-18.9961,1.2215,-0.5596,-0.3677,85,12541.819,242503,-1.2234,4.9331,-10.7671,-1.241,0.8653,-0.5781,59
1.182,22,-0.138,-6.7951,-5.3051,-0.6761,0.3991,1.6112,91,1.018,19,-1.335,6.8192,-18.9602,0.3469,-0.148,-0.9547,85,12541.871,242504,-0.7852,3.6039,-10.3376,-0.4236,1.0235,-0.9724,59
1.234,23,-1.4313,-6.6776,-5.9312,-1.1708,0.1986,1.8526,91,1.07,20,-2.2114,7.0572,-17.8727,0.0968,-0.7438,-1.1268,85,12541.922,242505,-0.4641,2.6464,-9.9735,0.1697,1.1427,-1.2587,59
1.286,24,-0.4415,-6.0743,-8.6709,-1.4938,-0.4941,1.0854,91,1.122,21,-1.2384,7.4026,-16.1942,-0.5788,-1.2156,-1.2836,85,12541.974,242506,-4.3238,-3.3264,-4.7157,0.1736,0.9575,-1.0926,59
1.338,25,4.7346,-8.5023,-3.7373,-1.761,-1.03,1.3773,91,1.173,22,-1.5187,6.5945,-14.7865,-1.1025,-0.6308,-1.6232,85,12542.026,242507,-3.02,-2.2554,-6.0818,-0.4588,0.6119,-0.578,59
1.389,26,0.6646,-9.5682,-5.49,-1.4177,-0.5851,1.4478,91,1.225,23,-1.1963,5.8077,-13.8112,-1.4847,-0.7292,-1.4413,85,12542.078,242508,-2.0884,-1.6287,-6.8573,-1.0023,0.3663,-0.0366,59
1.441,27,-1.2339,-10.4148,-6.5967,-0.3672,0.1789,1.6719,91,1.277,24,-0.3842,4.7485,-12.6137,-1.7636,-1.0152,-0.6639,85,12542.129,242509,-1.4149,-1.1776,-7.4912,-1.3947,0.1901,0.3579,59
1.493,28,-1.7561,-8.9763,-6.4611,0.4063,0.1136,1.8968,91,1.329,25,0.521,2.1944,-10.3507,-1.9672,-1.4136,0.1808,85,12542.181,242510,-0.9124,-0.8457,-7.9556,-1.683,0.0651,0.6462,59
1.545,29,-1.7238,-9.178,-6.7719,0.6686,0.5514,2.0099,91,1.381,26,1.5457,4.0354,-7.7754,-2.1157,-1.7044,0.7974,85,12542.233,242511,-0.5511,-0.606,-8.2955,-1.8931,-0.0223,0.8568,59
1.597,30,-2.0171,-7.8269,-7.473,1.1624,0.9819,1.9987,91,1.432,27,2.9916,8.2721,-3.6203,-2.1343,-1.9166,1.2473,85,12542.285,242512,-0.2995,-0.4376,-8.5456,-2.0483,-0.0839,1.011,59
1.648,31,-2.2945,-4.7643,-7.2823,1.3563,0.5844,1.5002,91,1.484,28,7.1031,0.7765,-1.5782,-1.9835,-2.0715,1.5757,85,12542.336,242513,3.7961,-1.3084,-5.3416,-2.0375,0.2352,0.944,59
1.7,32,-1.7103,-4.0169,-7.6573,1.6643,-0.1831,0.7716,91,1.536,29,5.0504,5.5539,-4.4991,-0.7759,-0.8328,0.4637,85,12542.388,242514,-1.8168,0.0523,-8.2929,-1.6938,0.0617,0.4051,59
1.752,33,-1.334,-2.4092,-7.4477,1.747,-0.803,-0.0152,91,1.588,30,3.8334,8.2989,-5.4214,0.1054,-1.273,0.1484,85,12542.44,242515,-2.069,-3.5541,-8.7571,-1.1953,0.074,-0.3683,59
1.804,34,-0.5626,-2.8963,-6.1921,1.9494,-1.2554,-0.6862,91,1.64,31,3.6249,9.3775,-8.3897,0.0287,-0.8754,-0.4551,85,12542.492,242516,-2.66,-6.6,-9.3567,-0.758,0.0601,-0.6057,59
1.856,35,0.5331,-3.8769,-4.6543,2.0971,-1.5856,-1.176,91,1.692,32,3.0052,8.6801,-11.6954,0.6927,-1.097,-1.0185,85,12542.543,242517,-2.5142,-5.6165,-10.0497,-0.4253,-0.002,-1.0759,59
1.908,36,4.306,2.5604,-7.6599,2.205,-1.8266,-0.9885,91,1.743,33,2.5803,9.1043,-13.11,0.6858,-1.4733,-1.026,85,12542.595,242518,-1.7375,-4.8485,-10.0034,-0.0264,-0.1628,-1.4613,59
1.959,37,6.7397,2.1311,-8.7331,0.9319,-2.0024,-0.6871,91,1.795,34,1.9802,7.7738,-14.0786,0.0911,-1.7393,-0.9409,85,12542.647,242519,-1.6343,-4.4574,-9.4631,0.0168,-0.0911,-1.7426,59
2.011,38,5.9567,-1.2775,-5.6289,0.0028,-0.779,-0.1343,91,1.847,35,4.2127,9.5347,-16.2212,0.5187,-1.9421,-1.195,85,12542.699,242520,-0.1579,-3.2297,-9.6071,0.1207,-0.2271,-1.9165,59
2.063,39,6.0305,-2.0154,-4.1683,-0.6754,-0.1767,0.295,91,1.899,36,3.1837,6.1346,-11.8507,-0.3015,-0.7383,-1.2469,85,12542.75,242521,0.0535,-1.4249,-9.4744,0.3211,-0.4365,-1.9387,59
2.115,40,6.1539,-4.2497,-4.6122,-1.1703,0.4521,0.892,91,1.951,37,4.5136,9.8041,-11.6646,-0.4506,-0.5729,-1.547,85,12542.802,242522,0.8005,1.9988,-9.0563,0.7129,-0.8234,-1.8712,59
2.166,41,5.9474,-6.424,-5.4845,-1.5315,0.6353,1.3276,91,2.002,38,3.788,9.8533,-11.8462,-0.7431,-0.6857,-1.8154,85,12542.854,242523,-1.6608,4.4977,-9.4095,1.1901,-0.8493,-2.0356,59
2.218,42,4.5004,-5.2733,-5.8233,-1.7885,1.059,1.6456,91,2.054,39,2.3999,8.031,-11.5036,-0.995,-0.7486,-2.01,85,12542.905,242524,-0.7736,3.2374,-9.2643,1.5425,-0.7708,-2.1617,59
2.27,43,5.4461,-9.0464,-8.0362,-1.9827,0.821,1.8777,91,2.106,40,0.3945,6.5104,-11.287,-1.3731,-0.5178,-2.1241,85,12542.957,242525,-0.147,2.3225,-9.1508,1.7996,-0.6973,-2.2538,59
2.322,44,3.6193,-6.9905,-8.3035,-1.4769,1.2816,1.9269,91,2.158,41,-1.5521,5.0463,-11.4613,-1.378,-0.5057,-1.8223,85,12543.009,242526,4.9002,-3.5628,-4.1152,1.9794,-0.5296,-2.3111,59
2.374,45,4.9077,-6.4791,-8.5932,-0.4035,0.6132,2.0774,91,2.21,42,-0.6588,4.4602,-10.1299,-0.9836,-0.8259,-0.903,85,12543.061,242527,4.2038,-2.884,-6.4946,1.3192,0.036,-1.2991,59
2.425,46,3.5908,-8.6937,-8.9054,0.3784,0.5142,2.1928,91,2.261,43,-1.2237,4.0802,-10.1572,-1.3979,-0.8058,-0.1526,85,12543.113,242528,3.1483,-2.1844,-7.306,0.846,0.4508,-0.5418,59
2.477,47,2.3544,-5.501,-7.6524,0.9248,1.0183,2.2771,91,2.313,44,0.0601,2.8986,-9.5241,-1.6931,-1.2484,0.554,85,12543.164,242529,2.368,-1.6511,-7.9047,0.5039,0.7545,0.0107,59
2.529,48,-0.0885,-4.5356,-7.923,1.3493,1.2559,2.3333,91,2.365,45,1.6605,4.586,-7.7126,-1.9158,-1.5838,1.0697,85,12543.216,242530,1.8025,-1.2599,-8.3293,0.257,0.9786,0.4137,59
2.581,49,-1.5594,-4.1838,-7.5885,1.5696,1.2877,2.1212,91,2.417,46,5.16,8.6739,-3.3254,-1.5152,-1.8286,1.4461,85,12543.268,242531,1.4069,-0.9763,-8.6468,0.0809,1.1433,0.7078,59
2.632,50,-2.0948,-2.5562,-7.5158,1.4954,0.5068,1.5999,91,2.469,47,7.8349,1.3607,-9.2057,-1.7714,-2.0073,1.7208,85,12543.32,242532,5.0189,-4.5163,-8.5957,0.3498,0.7553,0.8489,59
2.684,51,-2.726,-2.7681,-8.3498,1.3556,-0.2708,0.8185,91,2.521,48,7.0228,4.3596,-11.3189,-0.6211,-0.7859,0.5695,85,12543.371,242533,4.3921,-6.0213,-7.5653,0.2662,0.6408,0.2109,59
2.736,52,-2.3622,-1.3062,-8.43,1.5939,-0.8669,-0.0284,91,2.572,49,4.8542,7.2533,-10.9408,0.2184,-0.5839,-0.2453,85,12543.423,242534,3.341,-6.6363,-6.45,0.2567,0.2431,-0.257,59
2.788,53,-0.4702,-0.9975,-6.9304,1.8237,-1.3021,-0.6958,91,2.624,50,3.5527,7.9987,-11.8268,0.8311,-0.311,-0.8654,85,12543.475,242535,3.4451,-6.5369,-6.0039,0.3312,-0.0237,-0.6321,59
2.84,54,1.2903,-1.8237,-3.9016,2.0054,-1.6196,-1.183,91,2.676,51,2.4061,8.5115,-13.7395,0.8665,-0.8612,-1.318,85,12543.527,242536,3.5766,-5.1676,-6.3362,0.4725,-0.4617,-1.0133,59
2.891,55,1.4582,-3.8931,-8.871,2.138,-1.8514,-1.0866,91,2.728,52,1.4647,9.6908,-14.3543,0.617,-1.124,-1.6483,85,12543.578,242537,2.9423,-3.3386,-6.8773,0.4282,-0.8246,-1.1787,59
2.943,56,6.1211,1.0088,-6.193,0.883,-1.5661,-0.5155,91,2.78,53,0.6943,8.2406,-13.7549,-0.057,-1.4604,-1.8429,85,12543.63,242538,3.3069,-2.5282,-6.8611,0.2853,-1.0557,-1.0914,59
2.995,57,5.6036,-3.6995,-5.7798,-0.0329,-0.4701,0.3004,91,2.831,54,1.0271,6.3882,-15.6334,0.604,-1.7385,-0.9011,85,12543.682,242539,2.814,-1.2892,-7.6714,0.2955,-1.1713,-0.7585,59
3.047,58,5.1744,-5.4786,-5.4483,0.4706,-0.161,0.6164,91,2.883,55,4.2252,2.4069,-13.1941,-0.2392,-0.5898,-0.5328,85,12543.734,242540,1.5146,-0.4531,-7.9985,0.3952,-1.278,-0.4295,59
3.099,59,4.5786,-4.8488,-5.1535,-0.3339,0.3702,1.1258,91,2.935,56,8.0033,7.0835,-10.4887,-0.5701,-1.0836,-0.451,85,12543.785,242541,-0.4822,1.4395,-8.983,0.7607,-1.088,-0.2185,59
3.15,60,4.4969,-7.6989,-5.7642,-0.5947,0.493,1.4983,91,2.987,57,5.2552,7.2781,-11.4731,-0.4938,-0.5874,-1.0156,85,12543.837,242542,-2.6466,2.0773,-9.7719,1.2289,-0.7987,-0.3434,59
3.202,61,2.8828,-7.1896,-5.6601,-0.871,0.8484,1.7702,91,3.039,58,3.3883,6.3761,-10.5821,-0.8464,-0.7719,-1.4276,85,12543.889,242543,-1.5902,1.5457,-9.4831,1.5708,-0.7076,-0.9115,59
3.254,62,2.9399,-7.5047,-6.3359,-1.3131,0.8115,1.8547,91,3.09,59,1.1245,6.8512,-10.7988,-1.0997,-0.7503,-1.7283,85,12543.941,242544,-0.8179,1.1596,-9.254,1.8203,-0.6306,-1.3257,59
3.306,63,5.6041,-9.0635,-4.0152,-1.0069,-0.0758,1.7509,91,3.142,60,-0.1699,5.7189,-10.4425,-1.4826,-0.8722,-1.7003,85,12543.993,242545,0.4477,1.1006,-9.0093,2.0024,-0.5615,-1.6253,59
3.358,64,4.4486,-9.1764,-4.163,-0.2509,0.0384,1.8305,91,3.194,61,-0.5632,5.186,-9.458,-1.7594,-0.844,-1.4363,85,12544.044,242546,0.6466,0.8039,-8.3704,0.9989,-0.043,-1.1926,59
3.409,65,2.7326,-9.2981,-5.6494,0.335,0.522,2.0077,91,3.246,62,-0.9135,3.5909,-9.2971,-1.9641,-1.0337,-0.8889,85,12544.096,242547,0.5515,0.6054,-8.597,0.2656,0.3352,-0.8752,59
3.461,66,2.142,-8.6485,-5.1668,0.8139,0.5551,2.1419,91,3.298,63,-0.1823,3.3441,-8.4043,-2.1038,-1.4269,-0.0606,85,12544.148,242548,0.4687,0.4563,-8.7786,-0.2702,0.6114,-0.6428,59
3.513,67,0.3765,-8.6421,-5.7123,0.9559,0.9881,2.2399,91,3.35,64,1.4498,2.7137,-6.866,-2.1608,-1.7141,0.6212,85,12544.199,242549,0.4192,0.3433,-8.9164,-0.6614,0.8127,-0.4726,59
3.565,68,-1.084,-7.1334,-6.1571,1.372,1.0627,2.3109,91,3.402,65,2.4651,4.2509,-4.694,-2.1509,-1.9237,1.1187,85,12544.251,242550,0.3813,0.2713,-9.0142,-0.9475,0.9595,-0.3479,59
3.616,69,-1.5844,-4.4225,-6.2612,1.5501,0.6953,1.8955,91,3.453,66,3.6536,7.0998,-5.959,-2.1117,-2.0767,1.4819,85,12544.303,242551,-0.6257,5.4263,-9.4666,-0.9873,1.1178,-0.16,59
3.668,70,-2.3218,-5.5002,-7.1854,1.7875,0.2585,1.3776,91,3.505,67,7.5861,1.7622,-8.5032,-0.9466,-1.2301,0.6654,85,12544.355,242552,1.3557,1.4403,-5.7183,-0.9396,0.9399,-0.2129,59
3.72,71,-2.0457,-2.753,-7.2797,1.5257,-0.4807,0.6847,91,3.557,68,4.9102,1.045,-10.2708,-0.0191,-0.4794,-0.2007,85,12544.406,242553,3.4073,0.8551,-4.3804,-0.2457,0.4866,-0.4339,59
3.772,72,-0.4742,-1.7174,-6.3679,1.4262,-1.0201,-0.1541,91,3.609,69,3.7532,6.0896,-10.2177,-0.0672,0.1335,-0.8329,85,12544.458,242554,3.9994,0.8844,-3.4029,0.3073,0.1706,-0.4613,59
3.824,73,0.7723,-2.0902,-5.5926,1.3224,-1.4139,-0.7876,91,3.661,70,4.235,3.7711,-11.6878,-0.2176,-0.4045,-1.2942,85,12544.51,242555,5.0207,1.3348,-3.6914,0.6762,-0.3214,-0.571,59
3.875,74,0.9556,-6.187,-5.7729,1.6395,-1.7012,-1.2496,91,3.712,71,4.0926,5.7093,-14.6397,0.5129,-0.5096,-1.631,85,12544.562,242556,4.4023,1.4489,-4.6651,1.159,-0.8633,-0.9412,59
3.927,75,5.7542,0.8744,-2.2486,1.871,-1.911,-1.5738,91,3.764,72,4.4578,7.3809,-15.5034,-0.1672,-1.0446,-1.6506,85,12544.614,242557,4.0571,2.471,-5.2752,1.5192,-1.0794,-1.073,59
3.979,76,8.3182,-1.4169,-6.2144,0.6881,-1.4783,-0.4781,91,3.816,73,5.7665,6.862,-18.8714,0.4591,-1.4351,-1.8401,85,12544.665,242558,3.4829,2.2716,-6.158,1.7827,-1.1109,-1.0916,59
4.031,77,5.7312,-5.5227,-5.8825,-0.1751,-0.6384,0.2419,91,3.868,74,-0.035,0.824,-13.4502,0.6777,-0.4142,-2.0293,85,12544.717,242559,2.5897,2.0075,-6.7066,1.9749,-1.2522,-1.0043,59
4.082,78,6.444,-6.1107,-5.4948,0.1178,-0.2712,0.5564,91,3.92,75,2.8833,4.2225,-14.5874,-0.1854,-0.8789,-2.0265,85,12544.769,242560,0.0596,1.523,-7.5607,2.1153,-1.2329,-1.1627,59
4.134,79,7.484,-5.9467,-5.7135,-0.5914,0.1087,1.0827,91,3.971,76,0.8829,5.2564,-13.5786,-0.8153,-0.7922,-2.1654,85,12544.821,242561,-1.9326,-0.1074,-8.6044,2.2177,-0.6401,-1.5246,59
4.186,80,8.0479,-7.143,-7.2254,-0.8907,0.0378,1.4668,91,4.023,77,0.1641,5.0587,-12.6345,-1.2751,-0.8081,-2.2668,85,12544.872,242562,-0.9229,-0.1743,-8.2349,2.2925,-0.6213,-1.7888,59
4.238,81,9.0098,-9.0696,-8.7176,-1.0821,-0.3565,1.7472,91,4.075,78,-0.5302,4.6138,-11.6653,-1.6106,-0.8457,-2.3408,85,12544.924,242563,-0.2073,-0.0025,-8.0509,2.347,-0.6345,-1.9816,59
4.289,82,7.2835,-4.8026,-6.8854,-0.8799,0.4222,1.9518,91,4.127,79,-1.2819,3.9314,-10.8462,-1.8555,-0.6809,-2.2353,85,12544.976,242564,0.2908,0.1266,-7.9072,2.3868,-0.631,-2.1223,59
4.341,83,6.5735,-5.6438,-5.7209,0.0244,-0.3376,2.1012,91,4.179,80,-1.6552,4.1834,-9.5997,-2.0343,-0.8216,-1.7668,85,12545.028,242565,5.5706,5.4235,-13.7966,1.8037,-0.5239,-1.3695,59
4.393,84,3.4878,-7.6113,-6.1387,0.018,0.0898,2.2102,91,4.23,81,-1.6316,3.5861,-8.5566,-1.9987,-1.2528,-0.9833,85,12545.08,242566,4.434,4.0369,-13.2751,1.0369,-0.3524,-0.4651,59
4.445,85,1.6702,-8.6083,-6.558,0.2532,0.551,2.2897,91,4.282,82,-1.3589,2.4154,-8.7187,-1.9434,-1.587,-0.0544,85,12545.131,242567,3.3411,2.9852,-12.3537,0.4765,-0.2245,0.1937,59
4.497,86,0.4721,-7.2695,-7.1526,0.8592,1.073,2.3478,91,4.334,83,0.0791,2.7309,-8.3735,-0.7531,-1.8309,0.6257,85,12545.183,242568,2.5631,2.22,-11.6827,0.0667,-0.1274,0.6734,59
4.548,87,-0.8104,-4.9475,-7.5087,1.1401,1.1208,2.3532,91,4.386,84,1.7238,5.0011,-4.2247,-0.1684,-2.009,1.122,85,12545.235,242569,1.9708,1.6595,-11.1965,-0.2324,-0.0547,1.0231,59
4.6,88,-1.1968,-3.6813,-6.9038,1.115,0.9033,1.8179,91,4.438,85,-0.2158,8.2928,-8.5189,-0.8029,-2.1389,1.4843,85,12545.286,242570,1.5142,1.6683,-6.6294,0.0165,0.2868,0.6352,59
4.652,89,-1.7705,-3.3252,-7.5359,1.0744,0.5852,0.9919,91,4.49,86,4.7623,4.7995,-10.3227,0.0857,-0.8828,0.3969,85,12545.338,242571,4.0599,3.93,-8.9094,0.2412,-0.2207,0.4571,59
4.704,90,-2.692,-0.7903,-8.285,1.1372,-0.2296,0.0488,91,4.541,87,4.1867,5.2728,-10.6237,0.7343,0.0348,-0.3967,85,12545.39,242572,4.4021,5.1763,-11.3228,0.8499,-0.8242,0.1534,59
4.756,91,-1.4784,-1.4789,-8.3016,0.5266,-0.8369,-0.6395,91,4.593,88,3.1794,9.0429,-9.0897,1.2077,0.5348,-0.9759,85,12545.442,242573,3.8374,4.9973,-12.1404,1.2942,-1.2646,-0.0205,59
4.807,92,-0.0505,-3.1884,-6.5546,1.0325,-1.2802,-1.1418,91,4.645,89,3.3618,8.0348,-9.6514,0.6742,0.9317,-1.3193,85,12545.493,242574,3.0826,4.203,-11.9359,1.6184,-1.5861,-0.1898,59
4.859,93,0.79,-4.7099,-5.0046,1.4279,-1.6036,-1.5085,91,4.697,90,3.9026,9.5272,-12.8125,1.1638,0.249,-1.6493,85,12545.545,242575,2.4454,2.7421,-11.5913,1.8551,-1.8207,-0.5039,59
4.911,94,3.9198,-2.7054,-10.4465,1.7166,-1.8397,-1.6459,91,4.749,91,5.0583,8.857,-16.233,1.5211,-0.4909,-1.8901,85,12545.597,242576,1.2334,1.9041,-11.1415,2.0278,-1.9919,-0.6996,59
4.963,95,7.1195,1.3049,-10.1124,0.5754,-1.8158,-0.5878,91,4.8,92,3.4088,1.2035,-14.2934,0.4301,0.3208,-1.8917,85,12545.649,242577,0.1638,0.1074,-10.5331,2.1539,-2.1169,-0.7697,59
5.015,96,3.6728,-3.3894,-8.6164,-0.2574,-0.6574,0.0283,91,4.852,93,0.2821,5.2882,-16.4046,0.9463,0.2212,-2.0087,85,12545.7,242578,-0.0558,-0.3254,-10.3079,1.9822,-2.0015,-0.8498,59
5.066,97,4.4614,-4.8876,-7.4163,-0.6628,-0.7577,0.4623,91,4.904,94,0.7777,5.9859,-15.0594,0.0125,-0.5112,-2.1524,85,12545.752,242579,0.6389,0.8099,-9.9497,1.9331,-1.8157,-0.86,59
5.118,98,5.5834,-5.9768,-7.048,-1.1611,-0.2814,1.0128,91,4.956,95,-0.5759,6.3998,-14.1354,-0.6357,-0.5857,-2.2573,85,12545.804,242580,0.711,0.741,-7.3751,1.7352,-1.5334,-0.8762,59
5.17,99,7.0065,-8.6544,-8.7296,-1.0546,-0.2409,1.4158,91,5.008,96,-0.9439,6.9168,-13.0911,-0.9741,-0.7343,-2.3339,85,12545.856,242581,0.8489,5.2544,-7.8602,1.9303,-1.1484,-1.0412,59
5.222,100,7.7676,-9.8338,-9.8902,-1.2271,-0.6865,1.71,91,5.059,97,-1.4963,6.0783,-12.51,-1.3909,-0.7243,-2.2799,85,12545.907,242582,0.7814,3.8112,-7.9497,2.0827,-0.8034,-1.1189,59
5.273,101,10.726,-2.794,-7.9837,-0.2212,-0.5916,1.876,91,5.111,98,-1.9379,4.8736,-11.7317,-1.6952,-0.6863,-1.9273,85,12545.959,242583,0.7268,2.7345,-7.9843,2.1939,-0.5481,-1.1737,59
5.325,102,4.1461,-7.2369,-9.7855,-0.6641,-0.1855,2.0458,91,5.163,99,-1.9544,4.6624,-10.7552,-1.9172,-0.8478,-1.3591,85,12546.011,242584,-4.7011,-3.2621,-3.2639,2.0607,-0.4889,-1.2373,59
5.377,103,2.2619,-6.524,-8.521,-0.1046,0.547,2.1698,91,5.215,100,-1.9647,3.7993,-10.1385,-2.0793,-1.225,-0.7005,85,12546.063,242585,-3.2707,-2.4835,-4.96,1.7229,-0.8644,-1.2021,59
5.429,104,1.3616,-6.2799,-7.8182,0.5829,0.8955,2.2602,91,5.267,101,-1.1652,2.7982,-9.2916,-2.1976,-1.5668,0.1509,85,12546.115,242586,-2.3137,-1.8888,-6.173,1.4801,-1.1367,-1.1763,59
5.481,105,-0.1358,-5.4742,-7.6862,1.0144,1.267,2.3234,91,5.318,102,0.9535,3.1707,-8.5108,-1.592,-1.8162,0.7755,85,12546.166,242587,-1.6199,-1.4453,-7.0573,1.3061,-1.3334,-1.1563,59
5.532,106,-1.2462,-4.7308,-7.9627,0.7262,1.2733,2.0017,91,5.37,103,2.3452,4.5285,-4.2527,-1.1026,-1.9982,1.2314,85,12546.218,242588,1.078,0.0275,-7.5585,1.1724,-1.4616,-1.1675,59
5.584,107,-1.7379,-3.6144,-8.0223,0.8414,1.1067,1.4762,91,5.422,104,3.6188,5.5999,-8.9577,-1.4566,-2.131,1.5641,85,12546.27,242589,2.71,-1.2284,-4.6456,1.3598,-1.2025,-1.2399,59
5.636,108,-2.4437,-2.4187,-8.5944,0.3728,0.7903,0.6604,91,5.474,105,7.5607,1.3805,-9.1025,-0.3914,-1.1316,0.4552,85,12546.322,242590,3.0521,-2.5924,-4.533,1.6663,-1.0033,-1.3068,59
5.688,109,-2.4617,-2.9313,-8.6974,0.4892,0.1227,-0.1932,91,5.526,106,5.9325,1.3824,-11.2238,0.3861,-0.1468,-0.3542,85,12546.373,242591,3.2766,-4.0607,-3.6855,1.89,-0.9069,-1.4546,59
5.74,110,-2.6244,-1.9793,-8.9472,0.4669,-0.5686,-0.8161,91,5.577,107,5.8158,6.3358,-9.8753,0.9518,0.572,-0.9449,85,12546.425,242592,2.7614,-4.9403,-3.7025,2.0533,-0.8875,-1.5873,59
5.791,111,-1.2251,-3.2989,-6.8272,1.0041,-1.0843,-1.2707,91,5.629,108,5.3406,5.71,-11.2815,0.0174,0.797,-0.7409,85,12546.477,242593,2.2714,-4.1025,-4.3456,2.1725,-0.7979,-1.5964,59
5.843,112,-0.6169,-4.6942,-5.5194,1.4072,-1.4607,-1.6025,91,5.681,109,4.4077,6.2897,-14.1504,0.6845,0.4164,-1.2271,85,12546.529,242594,2.2123,-2.7906,-4.7966,2.2594,-0.6737,-1.3948,59
5.895,113,2.6197,-4.2175,-10.7389,1.7014,-1.7354,-1.8306,91,5.733,110,3.3574,7.3242,-14.2151,0.2871,-0.3688,-0.9897,85,12546.58,242595,2.0242,-1.9206,-5.2832,2.3229,-0.534,-1.1478,59
5.947,114,6.5502,0.3316,-5.9223,0.5644,-1.3043,-1.3407,91,5.785,111,5.3147,7.8799,-15.8493,0.8805,-0.9418,-1.4087,85,12546.632,242596,2.0645,-0.8538,-5.9084,2.3692,-0.4486,-0.9384,59
5.999,115,6.8574,-2.5147,-5.8551,-0.2655,-0.3063,-0.311,91,5.837,112,7.658,11.078,-13.93,1.1675,-0.0084,-1.7145,85,12546.684,242597,1.4075,-0.0618,-6.2013,2.4031,-0.3961,-0.7068,59
6.05,116,7.5256,-4.8229,-6.0972,-0.8405,0.3597,0.3082,91,5.888,113,6.9394,11.0039,-14.153,0.1721,-0.6788,-1.632,85,12546.736,242598,0.9554,-0.5738,-7.2689,2.4277,-0.245,-0.4506,59
6.102,117,6.5755,-4.3874,-6.4529,-1.2802,0.9411,0.9016,91,5.94,114,3.1626,9.6323,-12.9813,-0.441,-0.6229,-1.8775,85,12546.787,242599,-0.1206,-1.3423,-9.4726,2.4457,-0.1796,-0.1988,59
6.154,118,6.3065,-5.0888,-7.357,-1.6097,0.8294,1.3347,91,5.992,115,1.9105,8.9276,-12.9694,-1.0019,-0.9085,-2.0566,85,12546.839,242600,-0.2799,-1.3472,-8.3008,2.4589,-0.4252,-0.0556,59
6.206,119,4.9183,-6.01,-7.4358,-1.7214,0.527,1.6507,91,6.044,116,0.3616,7.0601,-11.7451,-1.4112,-0.9017,-2.1874,85,12546.891,242601,0.032,-0.8395,-7.9901,2.4685,-0.9577,-0.1975,59
6.258,120,8.1691,-9.5804,-8.1809,-1.9337,-0.1859,1.8814,91,6.096,117,-0.4415,7.2166,-10.5996,-1.71,-0.9562,-2.2283,85,12546.943,242602,0.2535,-0.4896,-7.7527,2.4755,-1.3467,-0.3012,59
6.309,121,4.4603,-8.1569,-7.7946,-0.8362,-0.0153,2.0498,91,6.147,118,-1.043,5.7887,-10.4081,-1.9281,-1.1082,-1.8232,85,12546.994,242603,5.5434,4.9737,-13.6838,2.0788,-0.7936,0.0139,59
6.361,122,1.9045,-8.228,-7.8469,-0.252,0.0657,2.1727,91,6.199,119,-1.321,4.3028,-10.1841,-2.0872,-1.4687,-1.2362,85,12547.046,242604,4.038,3.7845,-12.6381,1.1372,-0.566,0.0272,59
6.413,123,0.476,-8.5208,-8.2708,0.4336,0.15,2.2623,91,6.251,120,-1.4749,4.034,-9.8277,-2.0895,-1.7446,-0.2913,85,12547.098,242605,3.0121,2.8035,-11.8305,0.4482,-0.3997,0.0366,59
6.465,124,-0.977,-8.032,-8.413,0.8361,0.3372,2.3278,91,6.303,121,1.2274,2.2474,-9.1789,-1.0182,-1.946,0.396,85,12547.15,242606,2.2566,2.0832,-11.2406,-0.0548,-0.2786,0.0427,59
6.517,125,-1.4194,-6.3056,-7.9412,1.0227,0.4912,2.28,91,6.355,122,2.3941,3.0227,-6.0975,-0.2693,-2.0929,0.9544,85,12547.201,242607,1.7121,1.5658,-10.8191,-0.4215,-0.1905,0.0469,59
6.568,126,-1.8817,-5.8719,-8.382,1.2225,0.4874,1.9236,91,6.406,123,2.1385,7.4434,-4.1337,0.1442,-2.2002,1.3619,85,12547.253,242608,-3.6054,2.2352,-12.0553,-0.679,-0.1005,-0.0301,59
6.62,127,-2.1595,-4.8681,-8.4322,0.9022,0.096,1.2781,91,6.458,124,6.4803,0.1717,-6.862,-0.5135,-2.2785,1.6594,85,12547.305,242609,1.123,4.6823,-10.8652,-0.4887,-0.3253,-0.1131,59
6.672,128,-2.4014,-4.4855,-8.4787,1.0038,-0.2251,0.4047,91,6.51,125,8.1044,-2.0245,-8.5185,0.2969,-0.9838,0.5247,85,12547.357,242610,1.9934,8.0701,-9.5706,0.2805,-0.5038,-0.3079,59
6.724,129,-2.5301,-3.7418,-8.9093,1.4004,-0.8282,-0.3798,91,6.562,126,10.3476,3.4913,-8.2369,0.8884,-0.039,-0.3034,85,12547.408,242611,2.4773,8.4548,-9.5117,0.8786,-0.915,-0.4566,59
6.776,130,-2.032,-3.4992,-8.1809,1.5968,-1.2738,-0.9523,91,6.614,127,8.2129,4.4054,-9.0593,0.4668,0.6506,-0.9078,85,12547.46,242612,2.1269,7.2427,-9.6603,1.3151,-1.2784,-0.5192,59
6.827,131,-0.3648,-3.4948,-5.9779,1.8398,-1.599,-1.3701,91,6.665,128,6.1395,5.2067,-10.0769,1.0124,1.154,-1.3489,85,12547.512,242613,1.6296,5.9714,-9.892,1.6337,-1.438,-0.7042,59
6.879,132,1.8117,-7.7484,-6.4951,2.0172,-1.8364,-1.3547,91,6.717,129,4.2823,7.2555,-12.0182,1.4106,0.207,-1.6709,85,12547.564,242614,1.4133,4.4559,-9.7926,1.8662,-1.3765,-0.7943,59
6.931,133,6.3791,-0.2652,-2.1493,2.1466,-2.0096,-1.2178,91,6.769,130,4.0917,4.8628,-14.5637,0.4134,-0.5216,-1.2495,85,12547.616,242615,1.2762,2.7743,-9.7531,2.0359,-1.3579,-0.9167,59
6.983,134,9.7125,0.1716,-1.7701,0.8893,-1.4605,-0.6428,91,6.821,131,7.9059,6.3464,-14.9296,-0.3783,0.2984,-1.5983,85,12547.667,242616,1.3967,1.1218,-9.6382,2.1598,-1.4388,-1.1813,59
7.035,135,8.884,-2.1903,-3.1319,-0.0283,-0.3835,0.2075,91,6.873,132,4.3557,8.637,-14.924,-0.1613,-0.4549,-1.3937,85,12547.719,242617,0.6117,0.1194,-9.3831,2.1874,-1.4686,-1.4289,59
7.086,136,6.8599,-3.8663,-3.9395,-0.6981,0.4025,0.8281,91,6.925,133,1.1944,8.9921,-12.3297,-0.6308,0.3471,-1.7036,85,12547.771,242618,0.7377,-0.2001,-7.8947,1.918,-1.2024,-1.7189,59
7.138,137,6.8376,-4.6012,-4.4219,-1.1867,0.6341,1.281,91,6.976,134,0.0479,9.0621,-11.0313,-0.9182,-0.142,-1.9297,85,12547.823,242619,0.4286,2.6155,-6.0184,1.9707,-1.064,-1.7999,59
7.19,138,5.4979,-6.4852,-6.0754,-1.5435,0.5458,1.6116,91,7.028,135,-1.3896,8.2739,-10.3712,-1.3501,-0.0226,-2.0948,85,12547.875,242620,0.484,1.8975,-6.3748,2.1122,-0.6769,-1.568,59
7.242,139,5.9961,-9.9309,-6.5951,-0.6081,-0.018,1.8528,91,7.08,136,-2.3117,6.9502,-9.6516,-1.6654,-0.0391,-2.1075,85,12547.926,242621,0.5293,1.3874,-6.6896,2.2155,-0.3938,-1.3981,59
7.293,140,1.6551,-8.7221,-8.3956,-0.8523,0.669,1.9802,91,7.132,137,-2.549,6.0366,-9.4913,-1.6827,-0.1347,-1.7796,85,12547.978,242622,0.559,0.9091,-6.9576,2.2908,-0.1872,-1.2722,59
7.345,141,0.0394,-9.2264,-8.3894,-0.1776,0.7186,2.1219,91,7.183,138,-2.3452,4.725,-9.5667,-1.9081,-0.3385,-1.3765,85,12548.03,242623,-0.5096,0.5606,-8.2923,2.2298,-0.1176,-0.6856,59
7.397,142,-1.2056,-9.249,-7.7978,0.3136,0.9011,2.2253,91,7.235,139,-2.0794,4.0291,-8.7161,-1.8352,-0.8533,-0.6037,85,12548.081,242624,-0.3932,0.4118,-8.569,2.2283,-0.0621,-0.2573,59
7.449,143,-2.1884,-7.9898,-7.5078,0.829,1.1943,2.3008,91,7.287,140,-1.4919,2.9423,-8.7995,-1.6798,-1.2955,0.2165,85,12548.133,242625,-0.2881,0.2921,-8.7907,2.2283,-0.0247,0.0554,59
7.501,144,-3.0217,-6.7273,-7.7795,1.0028,1.3263,2.3413,91,7.339,141,0.1827,2.4421,-7.2702,-0.9271,-1.6182,0.8234,85,12548.185,242626,-0.2039,0.2194,-8.9679,2.2295,-0.0009,0.2851,59
7.553,145,-3.6826,-5.3165,-7.6667,1.4063,1.3043,1.9802,91,7.391,142,0.631,3.2584,-4.0354,-0.8375,-1.8537,1.2663,85,12548.237,242627,0.6538,1.0748,-6.955,2.2063,-0.1508,0.7039,59
7.604,146,-3.8869,-3.8598,-7.4201,1.6912,1.1037,1.26,91,7.443,143,2.54,3.73,-8.8271,-1.2913,-2.0256,1.5896,85,12548.288,242628,1.2289,-0.2171,-6.8045,2.0155,-0.2105,0.4916,59
7.656,147,-3.8664,-3.2339,-7.7588,1.2889,0.3253,0.4936,91,7.494,144,6.7733,1.3899,-10.6062,-0.2707,-0.8001,0.4738,85,12548.34,242629,0.6584,-2.3175,-5.5327,2.1449,-0.4334,0.1637,59
7.708,148,-3.4935,-3.1911,-8.2051,1.3748,-0.4319,-0.3051,91,7.546,145,4.3787,1.5982,-11.9068,0.4741,0.0952,-0.3406,85,12548.392,242630,-0.0414,-4.6174,-4.4353,2.2393,-0.7195,-0.1572,59
7.76,149,-3.0841,-3.7637,-7.5114,1.4475,-0.9846,-0.8978,91,7.598,146,3.8099,6.4933,-9.5997,1.0178,-0.2233,-0.4509,85,12548.444,242631,-0.6042,-5.5295,-4.0407,2.3082,-0.8605,-0.3377,59
7.812,150,-2.8486,-2.957,-5.789,1.7308,-1.3879,-1.3304,91,7.65,147,3.3529,5.9113,-11.2981,0.5551,0.462,-1.0155,85,12548.495,242632,-0.4836,-5.144,-4.0223,2.3585,-0.9271,-0.4559,59
7.863,151,-3.1068,-4.2394,-6.313,1.9376,-1.6823,-1.3502,91,7.702,148,3.5663,7.421,-12.6025,1.0769,0.3525,-1.4275,85,12548.547,242633,-0.311,-4.141,-4.1905,2.3952,-0.965,-0.5164,59
7.915,152,2.7893,2.2958,-6.2505,2.0885,-1.8971,-1.6581,91,7.753,149,4.2459,9.0369,-13.3773,1.4577,-0.4154,-1.7282,85,12548.599,242634,-0.3296,-3.1854,-4.7535,2.422,-0.9535,-0.4629,59
7.967,153,7.0926,0.4632,-5.5843,0.8469,-1.6575,-0.5822,91,7.805,150,8.0184,8.1,-12.0246,0.3838,0.2773,-1.9423,85,12548.651,242635,-0.3202,-2.6297,-5.5574,2.4416,-0.8988,-0.1863,59
8.019,154,3.1821,-2.608,-4.1608,-0.0593,-0.5913,-0.136,91,7.857,151,6.7309,10.2976,-12.1178,-0.1469,-0.4171,-1.6538,85,12548.703,242636,0.0977,-2.3515,-6.3944,2.454,-0.9041,0.0867,59
8.07,155,4.1071,-4.0571,-3.9926,-0.7206,-0.098,0.3343,91,7.909,152,4.9777,10.1971,-12.7448,-0.759,-0.1666,-1.8934,85,12548.754,242637,-0.0476,-2.0843,-8.2595,2.0738,-0.9199,0.3541,59
8.122,156,4.604,-4.9376,-4.6669,-1.2033,0.2878,0.8385,91,7.961,153,3.0638,9.3434,-13.0132,-1.234,-0.5827,-2.0682,85,12548.806,242638,0.2313,-1.8125,-11.2876,1.4342,-0.8607,0.717,59
8.174,157,5.1963,-7.1287,-6.8378,-1.4575,0.1018,1.2886,91,8.012,154,1.1326,7.9274,-11.8752,-1.5806,-0.3307,-2.1959,85,12548.858,242639,-0.0191,-0.8353,-12.0404,1.2265,-1.2779,0.8895,59
8.226,158,5.4117,-9.2527,-8.5672,-1.1922,-0.2593,1.6171,91,8.064,155,-0.4402,6.818,-11.0373,-1.8336,-0.4489,-2.261,85,12548.91,242640,0.077,-0.5262,-11.0945,1.2462,-1.5957,0.8803,59
8.278,159,6.2983,-10.952,-9.6715,-0.576,-0.8474,1.8569,91,8.116,156,-1.2107,5.1303,-10.2156,-2.0183,-0.4045,-2.2335,85,12548.961,242641,0.1698,-0.302,-10.3666,1.2554,-1.8277,0.8765,59
8.329,160,4.3392,-10.0858,-9.8233,-0.5738,0.064,2.0319,91,8.168,157,-2.3504,4.2006,-9.695,-2.152,-0.616,-2.0244,85,12549.013,242642,4.0635,-0.0031,-5.0026,0.8811,-1.3685,0.5786,59
8.381,161,4.5326,-9.1197,-8.1318,0.1727,0.0819,2.1596,91,8.22,158,-1.8936,2.7506,-8.9193,-2.1744,-1.1223,-1.4812,85,12549.065,242643,3.0784,0.0006,-6.5913,0.2971,-1.274,0.3665,59
8.433,162,2.0001,-8.8974,-8.4135,0.639,0.5959,2.2528,91,8.272,159,-1.1141,2.218,-8.6193,-1.8748,-1.4918,-0.6647,85,12549.116,242644,2.2826,0.0058,-7.3801,-0.1305,-1.2036,0.0838,59
8.485,163,0.4661,-8.1455,-8.7333,0.6555,0.792,2.3208,91,8.324,160,0.5011,3.2794,-6.2313,-0.6966,-1.7614,0.1803,85,12549.168,242645,1.7077,-0.0005,-7.9621,-0.442,-1.1538,-0.1192,59
8.537,164,-0.3676,-6.0032,-8.6915,1.0159,0.7295,2.1204,91,8.375,161,-0.3078,5.3217,-1.9,-0.0816,-1.9582,0.7969,85,12549.22,242646,1.3002,-0.0022,-8.3881,-0.6686,-1.1175,-0.2678,59
8.588,165,-1.2636,-4.3945,-8.0311,0.4424,0.6737,1.5373,91,8.427,162,2.3504,3.3747,-9.0829,-0.6122,-2.1019,1.247,85,12549.272,242647,1.2695,0.1009,-9.5894,-1.099,-1.251,-0.6341,59
8.64,166,-1.9751,-3.9519,-8.0735,0.9059,0.4333,0.7204,91,8.479,163,6.6352,-0.6686,-9.0456,0.2249,-0.9625,0.2255,85,12549.323,242648,4.2449,0.0177,-7.6021,-0.4484,-1.1612,-0.7872,59
8.692,167,-2.1608,-3.0062,-8.164,0.7501,-0.3351,-0.1493,91,8.531,164,6.0444,-0.7567,-9.7288,0.8359,-0.0234,-0.5218,85,12549.375,242649,5.5759,0.0199,-6.8227,0.2929,-1.0718,-1.2506,59
8.744,168,-1.0988,-3.8894,-7.6432,0.68,-0.9139,-0.7841,91,8.583,165,6.181,4.5572,-10.738,1.2818,0.662,-1.0672,85,12549.427,242650,5.2479,0.7933,-6.7721,0.8808,-0.8291,-1.5888,59
8.795,169,-0.7225,-3.6584,-5.3755,1.1584,-1.3363,-1.2474,91,8.634,166,5.8207,5.2459,-11.4614,1.0415,0.8185,-1.4653,85,12549.479,242651,4.9676,1.9369,-7.3574,1.3168,-0.5041,-1.8356,59
8.847,170,1.121,-6.0745,-3.5518,1.5199,-1.6446,-1.5855,91,8.686,167,4.6031,5.1502,-13.794,1.4319,0.1411,-1.7558,85,12549.53,242652,4.5473,3.0332,-7.4455,1.6349,-0.2443,-2.0158,59
8.899,171,3.866,-1.8342,-7.8792,1.7836,-1.8697,-1.8323,91,8.738,168,3.7297,6.191,-14.6899,0.6034,-0.5697,-1.4758,85,12549.582,242653,4.0453,2.647,-7.541,1.8671,-0.0222,-2.1473,59
8.951,172,6.7776,3.5495,-7.0724,0.6244,-1.9182,-0.9609,91,8.79,169,4.0277,5.5992,-17.7287,0.9832,-1.0885,-1.3742,85,12549.634,242654,3.0619,2.0664,-8.321,2.025,0.1356,-2.2432,59
9.003,173,7.0143,-2.2788,-8.5278,-0.2217,-0.7176,-0.0246,91,8.842,170,-2.0777,3.0487,-12.4684,0.5168,-0.1153,-1.6893,85,12549.686,242655,2.7585,1.3092,-8.7853,2.0519,0.2041,-2.3133,59
9.055,174,7.3797,-3.497,-8.0415,-0.2095,0.0791,0.6584,91,8.893,171,1.022,7.5508,-13.2839,-0.2402,-0.1704,-1.9193,85,12549.738,242656,2.1008,-0.0267,-9.3334,1.9531,0.1998,-2.1734,59
9.106,175,6.1479,-4.1703,-7.1969,-0.8303,0.3472,1.1572,91,8.945,172,0.3659,7.8448,-11.3739,-0.5229,-0.3309,-2.0872,85,12549.789,242657,2.7386,-3.323,-9.4791,1.7397,0.3263,-1.6031,59
9.158,176,5.1034,-5.4545,-7.5317,-1.2834,0.4682,1.5212,91,8.997,173,-0.7548,7.7177,-11.4803,-1.0617,-0.3443,-2.2097,85,12549.841,242658,3.2946,-1.1118,-7.4334,1.9436,0.0385,-1.1786,59
9.21,177,4.4142,-8.9648,-8.0151,-1.1666,0.1366,1.7869,91,9.049,174,-1.6757,7.2863,-11.0761,-1.4549,-0.4232,-2.2981,85,12549.893,242659,2.4123,-0.6777,-7.5153,2.0924,-0.3709,-0.8023,59
9.262,178,2.5908,-5.6987,-5.499,-0.4164,0.404,1.9808,91,9.101,175,-2.2679,5.7079,-9.9945,-1.7419,-0.278,-2.205,85,12549.945,242660,1.7542,-0.356,-7.6367,2.201,-0.6773,-0.5296,59
9.314,179,1.5714,-8.827,-6.7486,-0.1059,0.5423,2.1223,91,9.153,176,-2.6137,4.8549,-9.359,-1.9513,-0.298,-1.7793,85,12549.996,242661,6.6387,-5.0608,-3.0102,1.6428,-0.7935,-0.7535,59
9.365,180,0.1939,-9.5714,-6.9193,0.5917,0.6693,2.2256,91,9.204,177,-2.6125,4.6814,-8.8694,-2.0612,-0.674,-1.1315,85,12550.048,242662,4.9826,-3.8367,-4.6191,1.3197,-1.0436,-1.226,59
9.417,181,-0.9258,-8.489,-6.283,0.7904,0.9565,2.301,91,9.256,178,-2.141,4.0857,-8.4816,-1.9999,-1.1646,-0.5107,85,12550.1,242663,3.7175,-2.888,-5.9772,1.0924,-1.2229,-1.5708,59
9.469,182,-2.3897,-7.9364,-6.6323,0.9993,1.1846,2.356,91,9.308,179,-0.0439,3.6743,-6.8389,-1.2137,-1.5226,0.2786,85,12550.151,242664,2.7889,-2.2296,-6.972,0.9351,-1.3499,-1.8225,59
9.521,183,-2.5655,-5.4392,-7.6276,1.3442,1.0602,2.2481,91,9.36,180,0.9785,3.3516,-5.3716,-0.5729,-1.784,0.8687,85,12550.203,242665,5.6569,-2.275,-4.2905,0.8336,-1.4624,-2.0062,59
9.573,184,-3.8926,-5.4146,-7.9005,0.3514,0.9726,1.7491,91,9.412,181,-0.2196,5.9384,-2.9331,-0.6481,-1.9747,1.2994,85,12550.255,242666,2.4274,-3.3905,-3.5799,0.6919,-1.5076,-2.1403,59
9.624,185,-4.2838,-4.213,-7.9704,0.1858,0.6987,1.0748,91,9.463,182,2.0601,6.1568,-8.804,-1.153,-2.1139,1.6138,85,12550.307,242667,-0.735,-3.7074,-6.6422,0.8314,-0.8232,-2.2381,59
9.676,186,-4.5908,-4.84,-8.4324,0.2879,0.2095,0.1413,91,9.515,183,3.5374,2.4736,-11.4813,-0.1698,-0.8637,0.4914,85,12550.358,242668,-2.8212,-4.843,-8.6227,0.8998,-0.1573,-2.3095,59
9.728,187,-4.1083,-3.6694,-7.7344,0.7029,-0.5165,-0.572,91,9.567,184,2.2369,3.2475,-14.5478,0.5478,0.0487,-0.3277,85,12550.41,242669,-2.7594,-4.819,-10.3828,0.9972,0.3204,-2.3617,59
9.78,188,-4.2629,-2.001,-9.0884,0.9891,-1.0463,-1.0926,91,9.619,185,0.3546,7.697,-12.5468,1.0715,0.0008,-0.8517,85,12550.462,242670,-1.6249,-3.1663,-10.5973,1.397,0.6259,-2.3997,59
9.831,189,-4.2963,-5.2932,-6.8748,0.9497,-1.4329,-1.4725,91,9.671,186,2.0902,7.1436,-13.5532,0.2339,-0.0923,-1.3076,85,12550.514,242671,-0.2518,-4.6815,-10.0455,1.6934,0.5712,-2.4275,59
9.883,190,-3.2889,-5.7898,-7.4177,1.3675,-1.7152,-1.7498,91,9.722,187,2.8558,7.5101,-15.6539,0.8424,-0.6809,-1.6368,85,12550.566,242672,0.2984,-4.6808,-9.6722,1.8384,0.3591,-2.4477,59
9.935,191,2.6564,1.1643,-3.8816,1.6724,-1.9211,-1.9522,91,9.774,188,2.8408,7.0196,-17.3462,-0.0631,-1.1696,-1.0784,85,12550.617,242673,1.0018,-3.7568,-9.5626,1.9251,0.3,-2.4625,59
9.987,192,5.8725,1.1325,-4.764,0.5432,-1.2518,-0.7482,91,9.826,189,3.1337,8.693,-19.8094,0.3892,-1.5263,-1.3821,85,12550.669,242674,1.212,-3.0623,-9.6739,1.9592,0.1802,-2.3418,59
10.039,193,4.3864,-3.0418,-4.5662,-0.2809,-0.5128,-0.2526,91,9.878,190,-3.3829,10.3433,-20.26,0.9558,-0.5942,-1.6951,85,12550.721,242675,0.8196,-2.0886,-9.8474,2.0696,0.2431,-2.0984,59
10.09,194,5.3766,-3.9163,-3.9594,-0.8198,-0.1148,0.2574,91,9.93,191,0.7364,9.3581,-20.24,0.0175,-0.4315,-1.6029,85,12550.773,242676,1.6159,-2.509,-10.2089,2.097,0.1335,-1.812,59
10.142,195,5.6307,-4.913,-4.9592,-1.2757,0.3302,0.8645,91,9.981,192,-0.5376,10.6413,-18.3292,-0.6584,-0.9876,-1.8171,85,12550.824,242677,-1.3393,-0.2258,-11.3129,1.4659,-0.0732,-1.3897,59
10.194,196,6.5298,-7.4247,-7.5549,-1.6084,0.292,1.3076,91,10.033,193,-1.301,10.0082,-17.0078,-1.1606,-1.0491,-2.0125,85,12550.876,242678,-4.0071,-0.6904,-10.6476,0.7154,-0.1402,-1.4906,59
10.245,197,6.8249,-1.5773,-6.2568,-0.7735,0.8955,1.631,91,10.085,194,-1.1633,8.6754,-15.7149,-1.5271,-1.0354,-2.1552,85,12550.928,242679,-2.8899,-0.487,-10.3673,0.1254,-0.0073,-1.764,59
10.297,198,5.0078,-6.1449,-7.2136,-0.5703,0.0042,1.867,91,10.137,195,-1.959,7.0514,-14.3659,-1.7945,-0.8258,-2.2592,85,12550.98,242680,-2.0474,-0.3398,-10.1598,-0.3053,0.0882,-1.9635,59
10.349,199,3.9658,-6.3434,-6.7491,-0.2949,0.3455,2.0393,91,10.189,196,-2.598,5.5943,-13.4342,-1.9867,-0.5552,-2.1394,85,12551.032,242681,-4.8709,5.0831,-4.8517,0.268,0.091,-1.2422,59
10.401,200,2.3217,-8.1533,-6.8354,0.1859,0.5236,2.165,91,10.241,197,-2.6212,3.8767,-12.179,-1.8314,-0.368,-1.7072,85,12551.083,242682,-3.4723,3.6661,-6.1587,0.2984,0.3662,-0.6951,59
10.453,201,0.7305,-6.7687,-5.7145,0.5562,1.0195,2.2567,91,10.292,198,-2.6519,3.8661,-10.9388,-1.99,-0.3339,-1.1798,85,12551.135,242683,-2.4718,2.6449,-7.1222,0.3221,0.5683,-0.296,59
10.505,202,-1.1877,-7.2292,-6.0658,0.7498,1.221,2.3237,91,10.344,199,-1.9015,3.0661,-9.8096,-1.905,-0.6202,-0.3019,85,12551.187,242684,-4.168,3.8536,-7.705,0.3411,0.7149,-0.0078,59
10.556,203,-2.7004,-6.1255,-6.7125,1.1016,1.3882,2.3726,91,10.396,200,-0.4172,4.2809,-8.0173,-1.8262,-1.1253,0.445,85,12551.239,242685,-2.934,2.7949,-6.0301,0.9228,1.1982,0.5578,59
10.608,204,-3.799,-4.3899,-7.5216,1.0383,1.3402,2.3267,91,10.448,201,0.6731,5.498,-5.9844,-1.2803,-1.494,0.9902,85,12551.29,242686,2.0405,-2.2221,-11.7123,0.7444,1.0264,0.3704,59
10.66,205,-3.6805,-3.3173,-8.2207,0.8816,0.9166,1.7618,91,10.5,202,1.9796,9.3395,-2.1235,-1.4515,-1.763,1.388,85,12551.342,242687,4.0191,-2.1921,-9.2635,0.5966,0.5887,-0.3664,59
10.712,206,-3.7445,-3.1238,-8.9314,0.2519,0.3362,0.8592,91,10.551,203,6.2291,1.5556,-8.9623,-1.7394,-1.9594,1.6784,85,12551.394,242688,5.8848,-2.1451,-6.8828,1.109,0.4774,-0.9433,59
10.763,207,-3.9847,-2.4215,-8.9714,0.4156,-0.4141,-0.048,91,10.603,204,6.2235,1.5343,-10.0205,-0.5978,-0.751,0.5386,85,12551.445,242689,7.0062,-1.7425,-4.7427,1.4832,0.4943,-1.3645,59
10.815,208,-2.4923,-1.5681,-8.7662,0.2713,-0.9716,-0.7102,91,10.655,205,4.0489,3.4698,-12.6761,0.2354,-0.648,-0.2933,85,12551.497,242690,6.2435,-0.9628,-4.3734,1.7564,0.4185,-1.6719,59
10.867,209,0.184,-4.3652,-6.682,0.474,-1.3784,-1.1934,91,10.707,206,3.6699,7.3667,-11.7886,-0.2555,0.0471,-0.9004,85,12551.549,242691,5.3566,0.2525,-5.0705,1.9558,0.5322,-1.8963,59
10.919,210,0.4036,-4.2615,-5.0529,1.0204,-1.6754,-1.5461,91,10.759,207,3.2913,6.9012,-12.4093,-0.5136,-0.0175,-1.3435,85,12551.601,242692,4.5146,0.7786,-5.5793,2.1013,0.7878,-2.0601,59
10.971,211,5.039,-5.152,-7.9766,1.4191,-1.8921,-1.8035,91,10.81,208,2.8815,7.8445,-13.9151,0.2969,-0.2465,-1.6669,85,12551.652,242693,3.744,1.8501,-5.8232,2.2075,0.9933,-2.1796,59
11.022,212,8.7345,0.0738,-5.5089,0.3583,-1.3914,-1.0408,91,10.862,209,1.4098,10.0472,-13.9788,0.1287,-0.7972,-1.7935,85,12551.704,242694,2.8756,1.4029,-6.5055,2.285,1.1387,-2.0917,59
11.074,213,6.8025,-1.5376,-4.2541,-0.4159,-0.3331,-0.1411,91,10.914,210,1.4709,9.7561,-16.8244,0.3654,-1.2545,-1.9906,85,12551.756,242695,2.4779,0.2812,-7.2226,2.1547,1.2639,-1.7567,59
11.126,214,6.2013,-2.5997,-4.317,-0.9809,-0.0716,0.2952,91,10.966,211,5.9931,6.9436,-10.101,-0.3604,-1.0725,-2.0577,85,12551.808,242696,2.2659,-0.6727,-7.8475,1.8392,1.2322,-1.5085,59
11.178,215,5.8874,-4.3029,-4.0243,-1.3933,0.2834,0.8099,91,11.018,212,3.8118,7.6214,-9.3907,-0.5549,-1.3392,-1.5742,85,12551.859,242697,1.7831,-3.2031,-8.6175,1.4555,1.0483,-1.4113,59
11.23,216,5.6761,-4.9229,-4.7653,-1.6942,0.7495,1.2677,91,11.07,213,2.977,6.5643,-9.8667,-0.0933,-0.6707,-1.5425,85,12551.911,242698,1.3575,-4.1106,-8.4101,0.9265,0.8297,-1.2421,59
11.281,217,4.3528,-6.1101,-5.5193,-1.9139,1.1968,1.6019,91,11.121,214,2.1572,6.4169,-11.2902,-0.5778,-0.7991,-1.0836,85,12551.963,242699,1.0222,-2.8919,-8.8427,0.9645,0.585,-1.1365,59
11.333,218,3.5435,-7.4314,-7.1288,-2.0742,0.9829,1.8458,91,11.173,215,0.1416,6.9787,-11.9097,-0.552,-0.5686,-0.8234,85,12552.015,242700,0.7892,-1.9954,-9.1236,0.9911,0.4068,-1.062,59
11.385,219,6.1053,-7.6834,-11.2815,-1.938,0.4485,2.0146,91,11.225,216,-1.1515,7.2338,-12.1935,-0.5504,-0.3466,-0.6965,85,12552.067,242701,0.5735,-1.1111,-9.4232,1.0094,0.2765,-1.0106,59
11.437,220,5.8091,-7.6048,-10.5975,-1.7637,-0.1998,2.0405,91,11.277,217,-2.1976,7.9258,-12.3661,-0.4876,-0.141,-0.4753,85,12552.119,242702,-0.9177,-0.7447,-9.204,0.324,0.0482,-1.4137,59
11.489,221,4.2288,-7.0821,-11.4623,-1.3511,-0.2539,1.9489,91,11.329,218,-3.3715,8.2784,-11.911,-0.5892,-0.142,-0.3362,85,12552.17,242703,-0.7908,-0.5262,-9.3201,-0.1737,-0.1429,-1.7078,59
11.54,222,2.6706,-6.4986,-11.4701,-0.9675,-0.206,1.7285,91,11.38,219,-3.8505,8.5201,-11.7545,-0.7672,-0.233,-0.2857,85,12552.222,242704,-0.6914,-0.3692,-9.4029,-0.5333,-0.2858,-1.9225,59
11.592,223,1.3629,-6.3591,-11.8377,-0.7095,-0.2985,1.2555,91,11.432,220,-3.8793,8.9621,-11.6064,-0.8946,-0.2745,-0.2867,85,12552.274,242705,-0.6172,-0.2539,-9.4775,-0.7925,-0.3953,-2.0792,59
11.644,224,0.0708,-6.6749,-12.2789,-0.6401,-0.2488,0.7509,91,11.484,221,-4.2767,8.8392,-11.5,-1.0904,-0.2125,-0.2721,85,12552.326,242706,-0.5815,-0.1768,-9.5405,-0.9773,-0.4801,-2.1935,59
11.696,225,-0.6623,-6.9881,-12.3827,-0.7439,-0.1047,0.3761,91,11.536,222,-4.7353,9.1998,-11.0215,-0.969,-0.2058,-0.3227,85,12552.377,242707,-4.2452,-2.5553,-8.2528,-1.1726,-0.4991,-2.277,59
11.747,226,-1.2736,-7.1511,-12.4754,-0.8678,0.0533,0.0571,91,11.588,223,-4.9804,9.3178,-10.5571,-0.9644,-0.2312,-0.3752,85,12552.429,242708,-4.3467,-0.4662,-6.7193,-0.6873,-0.3272,-2.0898,59
11.799,227,-1.9802,-7.6123,-13.1907,-1.0725,0.0912,-0.2733,91,11.639,224,-4.9166,9.153,-10.2712,-0.9773,-0.2638,-0.3727,85,12552.481,242709,-4.2122,-0.2797,-6.0435,-0.0426,0.0398,-1.8392,59
11.851,228,-1.5501,-7.8103,-13.8283,-1.1844,-0.013,-0.5099,91,11.691,225,-4.9037,9.0295,-10.0278,-0.9736,-0.222,-0.3233,85,12552.533,242710,-3.9074,-1.1603,-5.881,0.1264,0.3431,-1.2107,59
11.903,229,-1.3418,-7.8051,-14.3002,-1.1642,-0.0244,-0.6061,91,11.743,226,-4.949,8.8894,-9.6532,-0.8538,-0.1985,-0.2831,85,12552.584,242711,-4.3733,-1.3584,-6.3862,-0.0312,0.4821,-0.845,59
11.955,230,-1.1987,-7.7364,-14.7278,-1.0786,-0.0263,-0.6274,91,11.795,227,-4.8769,8.6039,-9.1798,-0.6653,-0.151,-0.2216,85,12552.636,242712,-4.9792,-1.0917,-7.4628,-0.2341,0.4069,-0.7315,59
12.007,231,-1.0628,-7.6025,-15.4166,-1.0676,-0.0485,-0.6304,91,11.847,228,-5.0015,8.7071,-8.9984,-0.5019,-0.1051,-0.1465,85,12552.688,242713,-6.0563,-0.6667,-8.3489,-0.4316,0.2424,-0.6301,59
12.058,232,-0.848,-7.5289,-15.8057,-0.9859,-0.0789,-0.593,91,11.898,229,-5.1488,8.7148,-8.7758,-0.3898,-0.0672,-0.0969,85,12552.739,242714,-7.2337,-0.4292,-8.7629,-0.5446,0.1102,-0.6176,59
12.11,233,-0.6837,-7.2649,-16.2215,-0.9191,-0.117,-0.5143,91,11.95,230,-5.1916,8.6431,-8.6311,-0.2812,-0.0266,-0.0589,85,12552.791,242715,-8.478,-0.2493,-9.2183,-0.6305,0.0888,-0.746,59
12.162,234,-0.4781,-7.1063,-16.4877,-0.8139,-0.153,-0.4316,91,12.002,231,-5.2212,8.7013,-8.5357,-0.1763,0.0065,-0.0202,85,12552.843,242716,-9.1162,-0.3532,-9.4832,-0.5898,0.1779,-0.8866,59
12.214,235,-0.264,-6.8962,-16.7272,-0.6626,-0.147,-0.3495,91,12.054,232,-5.2383,8.784,-8.5037,-0.0986,-0.0004,0.0219,85,12552.895,242717,-9.1767,-0.7808,-9.5394,-0.5051,0.1827,-0.9321,59
12.266,236,-0.2052,-6.6947,-16.9087,-0.5052,-0.1156,-0.2728,91,12.106,233,-5.253,8.8224,-8.4538,-0.0682,0.0017,0.0423,85,12552.946,242718,-9.1482,-1.2021,-9.6916,-0.5108,0.1359,-0.9374,59
12.317,237,-0.1982,-6.4334,-17.0618,-0.3499,-0.0857,-0.2138,91,12.158,234,-5.2429,8.8509,-8.4996,-0.0609,0.0237,0.0629,85,12552.998,242719,-9.3911,-1.3219,-10.052,-0.504,0.0565,-0.9268,59
12.369,238,-0.1677,-6.1806,-17.1644,-0.2404,-0.0703,-0.1744,91,12.21,235,-5.2218,8.883,-8.5323,-0.0418,0.0622,0.0854,85,12553.05,242720,-9.5014,-1.6874,-10.1429,-0.4394,-0.0217,-0.9776,59
12.421,239,-0.082,-6.144,-17.1619,-0.16,-0.0574,-0.153,91,12.261,236,-4.958,8.8145,-8.252,0.0375,0.0883,0.1222,85,12553.102,242721,-9.5038,-2.4058,-9.9955,-0.4298,-0.1244,-1.0187,59
12.473,240,-0.1021,-6.1206,-17.109,-0.0743,-0.0267,-0.1186,91,12.313,237,-4.434,8.4613,-8.0657,0.0165,0.2539,0.2304,85,12553.153,242722,-9.3502,-2.9399,-9.8619,-0.4456,-0.172,-1.0046,59
12.524,241,-0.0906,-6.069,-17.1242,-0.0504,0.0082,-0.095,91,12.365,238,-4.2174,8.1725,-7.8166,0.1602,0.4399,0.4144,85,12553.205,242723,-9.0697,-3.3265,-9.7847,-0.4008,-0.1325,-0.8373,59
12.576,242,-0.2248,-5.9265,-17.1718,-0.0481,0.0324,-0.1225,91,12.417,239,-4.3265,9.3391,-7.597,0.7551,0.4673,0.8994,85,12553.257,242724,-8.8375,-3.6587,-9.7644,-0.3047,-0.0755,-0.6102,59
12.628,243,-0.1625,-5.8649,-17.2452,-0.0672,0.0328,-0.174,91,12.469,240,-4.0843,8.6628,-7.8367,1.2228,0.8874,0.9508,85,12553.309,242725,-8.6774,-3.8722,-9.8212,-0.2361,-0.0577,-0.413,59
12.68,244,0.0414,-5.9608,-17.2249,-0.0438,0.0348,-0.2445,91,12.52,241,-4.0627,8.2582,-9.1093,1.5642,1.3241,0.9802,85,12553.361,242726,-8.6043,-3.9418,-9.8693,-0.1861,-0.0856,-0.3007,59
12.732,245,-0.1338,-6.0608,-17.1167,0.0954,0.046,-0.3283,91,12.572,242,-1.6683,6.7428,-8.0545,1.8133,1.2745,1.2185,85,12553.412,242727,-8.5358,-4.0337,-9.8341,-0.128,-0.1186,-0.2285,59
12.783,246,-0.409,-5.7054,-16.9428,0.3541,0.0151,-0.3733,91,12.624,243,-1.9912,6.9647,-9.6251,1.9952,1.5481,1.2432,85,12553.464,242728,-8.5587,-4.0718,-9.8011,-0.0544,-0.1435,-0.1371,59
12.835,247,-0.0189,-5.9133,-17.6814,0.3279,0.0932,-0.4278,91,12.676,244,-1.2986,6.2919,-14.1781,2.1279,1.142,0.9789,85,12553.516,242729,-8.6318,-4.1663,-9.6849,-0.0154,-0.1585,-0.068,59
