right_hand_timestamp,right_hand_index,right_hand_accel_x,right_hand_accel_y,right_hand_accel_z,right_hand_gyro_x,right_hand_gyro_y,right_hand_gyro_z,right_hand_battery_percentage,left_hand_timestamp,left_hand_index,left_hand_accel_x,left_hand_accel_y,left_hand_accel_z,left_hand_gyro_x,left_hand_gyro_y,left_hand_gyro_z,left_hand_battery_percentage,ball_timestamp,ball_index,ball_accel_x,ball_accel_y,ball_accel_z,ball_gyro_x,ball_gyro_y,ball_gyro_z,ball_battery_percentage
0.04,0,-2.3677,-8.247,-11.1252,1.9561,-0.4978,1.4119,93,0.378,7,-4.8083,7.7676,-12.1422,-0.7228,-0.8603,-0.5675,82,1034.947,20002,9.2403,-2.8519,-6.2445,-1.7194,-1.9176,0.8906,62
0.091,1,-2.6134,-8.2045,-10.1929,2.102,-0.3448,1.4391,93,0.43,8,-3.9463,6.5064,-11.2413,-0.0466,-1.1759,-0.3395,82,1034.998,20003,7.7329,-2.3005,-7.1638,-1.7713,-2.0626,0.8513,62
0.143,2,-3.1732,-7.0864,-10.2988,2.2085,-0.3001,1.3213,93,0.481,9,-4.7141,5.2238,-10.8523,-0.5427,-0.6753,0.3649,82,1035.05,20004,6.6633,-1.032,-8.2141,-1.6892,-2.1445,1.0056,62
0.195,3,-3.159,-5.3784,-10.2289,2.2863,-0.286,1.0154,93,0.533,10,-3.387,3.8821,-9.6681,-0.827,-0.88,0.9317,82,1035.102,20005,4.7995,0.0979,-8.828,-1.6069,-2.1396,1.3108,62
0.247,4,-3.4932,-2.862,-12.0946,2.343,-0.7494,0.3581,93,0.585,11,0.0002,5.5743,-8.9776,-0.0991,-0.7964,1.3454,82,1035.154,20006,-0.6825,2.7077,-10.7799,-1.3107,-2.0758,1.4089,62
0.299,5,-2.7023,1.0882,-11.7944,1.6105,-1.2163,-0.4138,93,0.637,12,-0.7824,8.1141,-10.1081,-0.7523,0.0979,1.6473,82,1035.206,20007,-2.7346,5.1671,-7.8999,-0.8718,-1.8762,1.3008,62
0.351,6,-1.9013,-0.617,-11.9299,1.7791,-1.557,-0.9771,93,0.689,13,1.7027,1.917,-11.5943,-1.2291,-0.6012,1.8676,82,1035.257,20008,-3.7389,2.5898,-5.8464,-1.2788,-1.7049,0.6728,62
0.402,7,3.6698,-4.2866,-11.6155,1.9728,-1.8057,-1.3882,93,0.74,14,4.9757,6.7259,-15.891,-0.2253,0.2403,0.6767,82,1035.309,20009,-2.8369,1.853,-6.5434,-1.6112,-1.5325,0.0036,62
0.454,8,7.7358,-2.0816,-9.1599,0.7625,-1.9038,-0.4178,93,0.792,15,4.6461,7.2424,-13.6611,0.0261,0.6708,-0.0692,82,1035.361,20010,-2.1582,1.2958,-7.1089,-1.8538,-1.419,-0.4835,62
0.506,9,7.0685,-3.0985,-6.7842,-0.1209,-0.8945,-0.1449,93,0.844,16,1.8877,7.1494,-12.1478,0.6908,1.0506,-0.3663,82,1035.413,20011,3.7832,5.8285,-13.2139,-1.6148,-1.0515,-0.5519,62
0.558,10,5.6116,-2.5293,-3.9715,-0.7656,-0.8382,-0.273,93,0.896,17,2.3484,10.0875,-12.4813,1.1759,0.0974,-0.4734,82,1035.464,20012,2.7192,4.2894,-12.5306,-0.7522,-0.5931,-0.1515,62
0.61,11,6.7792,-5.0725,-3.1941,-1.2361,-0.6744,-0.0167,93,0.948,18,2.9341,10.6566,-13.4502,1.4621,0.1425,-1.0319,82,1035.516,20013,2.0084,3.1312,-11.7816,-0.1249,-0.2635,0.1398,62
0.661,12,6.9686,-6.915,-4.2672,-1.5796,-0.0672,0.6645,93,1.0,19,2.9364,10.871,-14.4664,1.7114,-0.3236,-1.4395,82,1035.568,20014,1.479,2.2658,-11.2165,0.3342,-0.0247,0.3516,62
0.713,13,6.789,-7.3999,-5.926,-1.8302,0.2845,1.1616,93,1.052,20,4.0539,10.518,-16.1455,1.3853,-0.9088,-1.7146,82,1035.62,20015,1.0968,1.6515,-10.8007,0.6699,0.1476,0.5055,62
0.765,14,7.4456,-8.0398,-7.684,-2.0131,0.1393,1.5244,93,1.103,21,4.3783,9.7403,-16.4884,1.3173,-1.2528,-1.9378,82,1035.671,20016,0.8107,1.1943,-10.4988,0.9165,0.2713,0.6184,62
0.817,15,8.2512,-7.5915,-9.1179,-2.0794,0.1372,1.7892,93,1.155,22,3.9098,8.913,-16.692,0.6864,-1.4592,-2.0023,82,1035.723,20017,0.6094,0.8612,-10.2897,1.0977,0.3595,0.7008,62
0.868,16,7.2767,-7.2877,-10.8799,-2.1923,-0.1429,1.9825,93,1.207,23,3.3075,8.8477,-17.3702,0.5187,-1.7376,-1.7718,82,1035.775,20018,0.4661,0.6099,-10.1309,1.2314,0.4212,0.7613,62
0.92,17,6.9071,-8.0412,-12.5561,-2.0768,-0.6161,2.1236,93,1.259,24,1.4854,7.8076,-17.3165,0.3523,-1.7386,-1.6145,82,1035.826,20019,0.3574,0.4304,-10.0305,1.3305,0.4637,0.8056,62
0.972,18,5.2492,-9.1657,-14.8432,-1.4483,-0.7267,2.1012,93,1.311,25,3.3643,7.9265,-18.1114,0.681,-1.5888,-1.5732,82,1035.878,20020,5.467,-3.3673,-13.7765,1.2536,-0.0901,1.1242,62
1.024,19,2.8628,-9.1632,-13.2515,-1.5003,-0.2057,1.5441,93,1.363,26,1.187,7.7946,-17.8051,0.1953,-1.7878,-1.3032,82,1035.93,20021,7.7114,-6.8992,-12.6967,0.3989,-0.1286,1.0676,62
1.076,20,1.7769,-9.0002,-14.4488,-0.4206,-0.5302,1.4643,93,1.414,27,0.077,7.1788,-16.054,-0.3833,-1.6128,-1.1817,82,1035.982,20022,7.098,-6.9894,-13.3792,-0.3867,-0.3441,0.9552,62
1.127,21,0.6294,-9.8756,-13.423,-0.1189,-0.7759,1.4663,93,1.466,28,-2.012,7.3345,-14.8065,-0.5709,-1.7053,-0.9038,82,1036.033,20023,6.3544,-6.5194,-13.4603,-0.9601,-0.6958,0.8252,62
1.179,22,0.0011,-9.7118,-12.7266,0.5876,-0.7227,1.591,93,1.518,29,-2.099,7.9177,-15.3924,-1.0363,-1.7944,-0.5002,82,1036.085,20024,5.5711,-5.9059,-12.9559,-1.3786,-1.1709,0.6963,62
1.231,23,-1.0596,-8.8765,-11.9802,0.888,-0.6866,1.7031,93,1.57,30,-2.5071,8.3277,-15.0411,-1.4364,-1.4882,-0.0131,82,1036.137,20025,3.472,-3.9257,-11.832,-1.6841,-1.5177,0.3614,62
1.283,24,-1.0115,-7.7826,-11.6147,1.3225,-0.6706,1.5825,93,1.622,31,-3.2991,6.3745,-14.7399,-1.7284,-1.4365,0.6558,82,1036.189,20026,1.7328,-1.4888,-10.9638,-1.907,-1.7708,-0.0466,62
1.335,25,-1.773,-5.7574,-11.3443,1.6396,-0.4435,1.2153,93,1.673,32,-2.6378,3.1773,-12.4471,-1.9415,-1.5076,1.144,82,1036.24,20027,1.5437,0.4965,-9.9443,-2.0697,-1.9555,-0.3153,62
1.386,26,-1.788,-4.9427,-11.5977,1.871,-0.8027,0.5341,93,1.725,33,-3.1997,2.277,-12.8119,-2.097,-1.5618,1.5003,82,1036.292,20028,0.6929,1.0732,-8.6808,-2.1845,-2.0903,-0.4846,62
1.438,27,-2.4858,0.1149,-12.4051,2.0309,-1.2552,-0.2853,93,1.777,34,-2.366,2.5503,-10.4281,-1.711,-1.8126,1.7604,82,1036.344,20029,0.6887,1.4432,-6.2179,-2.23,-1.8006,-0.222,62
1.49,28,-0.2281,-1.5683,-10.92,1.9993,-1.5854,-0.8833,93,1.829,35,-1.0026,3.6699,-12.0542,-1.9288,-1.9956,1.9502,82,1036.396,20030,2.4084,-2.4768,-5.2566,-2.157,-1.3349,0.2002,62
1.542,29,2.1594,-1.9635,-10.0639,2.1336,-1.8264,-1.3198,93,1.881,36,4.1881,2.9305,-12.7215,-0.736,-2.1171,0.737,82,1036.448,20031,1.9028,-1.692,-6.3249,-2.2521,-1.024,0.8218,62
1.594,30,6.6335,2.9728,-6.4003,1.3205,-2.0023,-0.5833,93,1.932,37,5.1095,2.9855,-11.2385,0.1346,-0.8734,-0.1029,82,1036.499,20032,1.5399,-1.0748,-7.121,-2.3215,-0.7915,1.2755,62
1.645,31,8.5722,1.1875,-5.2369,0.2864,-1.3161,-0.2432,93,1.984,38,4.2143,4.0902,-9.4523,0.7699,0.0346,-0.7614,82,1036.551,20033,1.2733,-0.5054,-7.7012,-2.3722,-0.614,1.6066,62
1.697,32,7.1333,1.9423,-4.0218,-0.4684,-1.0598,-0.0399,93,2.036,39,4.1575,6.2837,-8.8717,1.2337,0.0357,-1.0852,82,1036.603,20034,3.5353,-1.0653,-3.3505,-1.5005,-0.209,0.5022,62
1.749,33,7.8289,0.2089,-3.5277,-1.0192,-1.0612,0.1659,93,2.088,40,4.3807,8.0676,-8.5229,1.5721,0.495,-1.4784,82,1036.655,20035,2.6535,-0.6249,-4.9978,-0.8802,0.1045,-0.3095,62
1.801,34,8.1327,-1.6781,-3.9651,-1.4212,-0.3744,0.7042,93,2.14,41,3.8661,8.7053,-9.2174,1.8191,0.6974,-1.7654,82,1036.707,20036,2.042,-0.305,-6.2323,-0.4319,0.3379,-0.902,62
1.853,35,7.1165,-4.3289,-5.5976,-1.7147,0.1638,1.1906,93,2.191,42,4.6385,9.8804,-10.5805,1.9994,0.513,-1.9748,82,1036.758,20037,1.5378,-0.1049,-7.1554,-0.1099,0.5125,-1.3344,62
1.904,36,6.8825,-5.6655,-8.141,-1.9288,-0.0354,1.5456,93,2.243,43,4.8076,9.1956,-13.4484,1.8963,-0.2976,-2.1277,82,1036.81,20038,1.1886,0.0363,-7.8346,0.1209,0.6443,-1.6499,62
1.956,37,7.629,-6.7621,-10.6981,-2.0851,-0.6206,1.8047,93,2.295,44,4.7972,9.6044,-15.0725,1.6521,-0.8899,-2.2205,82,1036.862,20039,0.9253,0.1556,-8.3449,0.284,0.7439,-1.8803,62
2.008,38,8.1646,-7.5025,-12.873,-1.9647,-1.1222,1.9938,93,2.347,45,4.7192,7.0849,-13.4095,1.2448,-1.3221,-2.143,82,1036.914,20040,0.7373,0.2521,-8.7024,0.3996,0.8184,-2.0484,62
2.06,39,6.7843,-8.14,-14.2944,-1.746,-1.4884,2.1318,93,2.399,46,1.2117,9.093,-14.4014,0.99,-0.4372,-1.8328,82,1036.965,20041,-2.4397,-3.014,-9.6145,0.2645,0.8525,-1.8142,62
2.111,40,4.1419,-7.6427,-13.697,-0.5999,-1.7556,2.1198,93,2.45,47,-0.7451,8.4925,-13.83,0.0765,-0.9795,-1.5986,82,1037.017,20042,-2.4401,-1.7163,-11.6167,0.1045,0.0935,-1.642,62
2.163,41,2.288,-10.6,-11.9267,0.1098,-0.5989,1.8192,93,2.502,48,-1.6096,8.2587,-14.0666,-0.6235,-1.3009,-1.1714,82,1037.069,20043,-2.0077,-1.8482,-11.7523,-0.0437,-0.5948,-1.206,62
2.215,42,0.053,-9.1363,-11.6209,0.7545,-1.0254,1.6688,93,2.554,49,-3.1813,8.5358,-14.1195,-0.8503,-1.4682,-1.1195,82,1037.121,20044,-3.28,-1.7418,-10.5067,-0.1894,-1.0972,-0.8771,62
2.267,43,-0.2998,-9.3594,-11.1218,1.225,-0.6052,1.608,93,2.606,50,-2.746,9.1838,-13.4455,-1.2992,-1.5379,-1.0813,82,1037.172,20045,-3.8249,-1.0984,-8.5676,-0.3796,-1.4639,-0.5289,62
2.319,44,-1.1189,-8.985,-10.612,1.5685,-0.6181,1.6334,93,2.658,51,-2.8953,9.1264,-13.6106,-1.6282,-1.4067,-0.7975,82,1037.224,20046,-3.3096,-1.3654,-6.1309,-0.7277,-1.7315,-0.0644,62
2.37,45,-1.026,-7.4724,-10.0415,1.8191,-0.2225,1.5163,93,2.709,52,-2.7123,7.368,-13.158,-1.8684,-1.5604,-0.1795,82,1037.276,20047,-3.2206,-1.2195,-4.1327,-1.1908,-1.9268,0.2824,62
2.422,46,-1.2682,-6.0826,-10.2926,2.002,-0.1506,1.1784,93,2.761,53,-1.4999,4.2375,-12.6687,-2.0436,-1.6313,0.5344,82,1037.328,20048,-3.7549,-0.7805,-2.9198,-1.5465,-2.0694,0.1925,62
2.474,47,-0.9404,-4.8854,-10.5967,2.1356,-0.0749,0.574,93,2.813,54,-1.2653,0.5801,-11.9415,-2.1358,-1.8211,1.0554,82,1037.379,20049,-2.5785,0.2,-4.71,-1.6806,-2.1734,-0.2908,62
2.526,48,-1.2844,-2.3324,-11.8717,2.233,-0.5674,-0.248,93,2.865,55,-0.0079,1.0185,-11.3892,-1.3263,-2.0018,1.4356,82,1037.431,20050,-1.7698,0.9536,-9.1251,-1.5489,-2.2493,-0.7632,62
2.578,49,-0.1676,-0.6869,-12.9055,1.6376,-1.0835,-0.8561,93,2.917,56,0.2926,6.0376,-12.6168,-1.5453,-2.1337,1.7132,82,1037.483,20051,-0.9999,1.0274,-13.5442,-1.4349,-2.3047,-0.8081,62
2.629,50,0.7517,-2.373,-10.9609,1.3724,-1.4601,-1.2999,93,2.968,57,5.1334,-0.8543,-13.8941,-0.6783,-2.2299,1.4599,82,1037.535,20052,-0.5958,0.8519,-11.9358,-1.0717,-2.3452,-1.0989,62
2.681,51,4.963,0.4249,-12.0714,1.676,-1.735,-1.5744,93,3.02,58,8.6665,3.0116,-12.9549,0.1767,-1.0656,0.3791,82,1037.586,20053,-0.2916,0.2977,-10.2432,-0.7892,-2.3747,-1.3594,62
2.733,52,8.6797,1.9523,-10.7198,0.5458,-1.9356,-1.0057,93,3.072,59,8.2952,4.9495,-11.3679,0.8007,-0.0986,-0.4097,82,1037.638,20054,-0.0279,-0.1051,-8.9778,-0.5639,-2.3963,-1.548,62
2.785,53,10.7243,-0.9608,-8.2943,-0.279,-1.3675,-0.4057,93,3.124,60,6.0363,7.4834,-10.8586,1.2561,0.6071,-0.9854,82,1037.69,20055,5.338,4.2279,-14.5379,-0.6402,-1.3551,-1.187,62
2.836,54,10.5789,-2.1868,-6.4307,-0.881,-1.0,0.1238,93,3.176,61,5.685,9.5904,-10.7681,1.5885,0.5538,-1.4055,82,1037.742,20056,3.891,3.1671,-12.4588,-0.6166,-0.3003,-0.9228,62
2.888,55,10.1937,-3.0123,-6.276,-1.3204,-0.1711,0.699,93,3.228,62,4.5799,9.5755,-10.8594,1.3382,0.5569,-1.7122,82,1037.793,20057,2.9071,2.3214,-11.3503,-0.6009,0.4695,-0.7283,62
2.94,56,9.3251,-4.0599,-6.9286,-1.641,0.4127,1.1868,93,3.279,63,2.9664,9.7029,-10.8574,1.2872,0.403,-1.936,82,1037.845,20058,2.1895,1.7152,-10.552,-0.5906,1.0313,-0.585,62
2.992,57,7.7292,-5.5585,-7.2519,-1.8751,0.6551,1.5428,93,3.331,64,0.7589,10.8072,-11.2617,1.3772,0.3456,-2.0994,82,1037.897,20059,1.6643,1.2686,-9.9639,-0.5845,1.4414,-0.4792,62
3.044,58,5.4416,-7.7815,-7.7869,-2.0191,0.5443,1.8026,93,3.383,65,0.5665,11.126,-12.6214,1.3229,-0.4078,-2.2161,82,1037.949,20060,1.2769,0.9513,-9.523,-0.5815,1.7406,-0.4012,62
3.095,59,5.6229,-9.0639,-9.5523,-1.9871,-0.0479,1.9923,93,3.435,66,0.9373,9.9961,-13.4251,1.6141,-0.3063,-2.2519,82,1038.0,20061,0.9976,0.7164,-9.2121,-0.5802,1.9591,-0.343,62
3.147,60,5.9053,-8.1465,-10.9879,-1.8823,-0.121,2.1307,93,3.487,67,2.9217,9.2527,-15.7693,1.8497,-0.7491,-1.9932,82,1038.052,20062,0.7841,0.5535,-8.9612,-0.5809,2.1185,-0.2997,62
3.199,61,7.4433,-8.1507,-13.8022,-2.0512,-0.6975,2.2317,93,3.538,68,4.697,9.403,-15.152,1.1455,-1.0652,-1.3325,82,1038.104,20063,0.6211,0.4272,-8.7754,-0.5831,2.2348,-0.2675,62
3.251,62,7.8676,-8.5546,-15.4915,-1.1333,-1.1412,2.1973,93,3.59,69,4.0345,10.7088,-15.7969,1.1605,-0.4685,-1.3175,82,1038.156,20064,-4.7782,-1.2968,-14.4302,-0.5833,2.2647,-0.2528,62
3.303,63,6.9258,-3.4015,-17.7839,-1.1667,-0.1505,1.7798,93,3.642,70,2.6661,10.7304,-16.2258,0.1949,-0.6885,-1.0046,82,1038.208,20065,-6.0103,-2.8724,-11.4278,-0.7829,1.8475,-0.181,62
3.355,64,5.6455,-7.6583,-14.4984,-0.2339,-0.7642,1.7203,93,3.694,71,1.4276,9.7098,-16.0376,-0.1452,-1.1443,-0.9682,82,1038.259,20066,-3.7456,-2.9567,-8.9012,-0.536,0.8075,-0.4513,62
3.406,65,4.1883,-7.9882,-13.5656,0.4637,-0.516,1.8645,93,3.746,72,-0.3348,9.2809,-16.3291,-0.026,-1.2428,-1.0553,82,1038.311,20067,-2.2209,-3.2423,-6.7242,0.0506,-0.0737,-0.7324,62
3.458,66,3.1174,-7.5132,-12.8132,1.0128,-0.5197,1.8404,93,3.798,73,-1.396,8.7727,-16.0017,-0.699,-1.5797,-0.785,82,1038.363,20068,-1.3065,-2.5977,-5.7374,0.4917,-0.7169,-0.8318,62
3.51,67,2.0138,-7.6568,-12.1319,1.2506,-0.5303,1.821,93,3.849,74,-1.4556,5.6478,-15.2773,-1.1902,-1.8245,0.0675,82,1038.415,20069,-0.7108,-0.9396,-5.2689,0.8572,-1.1863,-0.7329,62
3.562,68,0.7592,-6.0536,-12.2486,1.5871,-0.4875,1.5478,93,3.901,75,-1.8649,4.6405,-14.4085,-1.5487,-1.4548,0.7146,82,1038.466,20070,-0.2189,-0.8985,-5.55,1.2815,-1.5289,-0.9441,62
3.613,69,0.1317,-4.1188,-11.942,1.8327,-0.843,0.8535,93,3.953,76,-2.4236,0.2211,-13.8297,-1.8103,-1.7007,1.187,82,1038.518,20071,-0.4147,-0.8532,-7.0317,1.3477,-1.779,-1.1968,62
3.665,70,-1.0816,-0.3992,-11.7033,2.012,-1.2843,-0.0522,93,4.005,77,-0.7121,2.2309,-11.0792,-1.344,-1.9139,1.5317,82,1038.57,20072,-3.5345,-1.055,-9.4736,1.2441,-1.9513,-1.0105,62
3.717,71,0.1861,-1.8125,-10.5295,0.793,-1.6067,-0.7132,93,4.057,78,-1.6621,5.8045,-10.7361,-1.6606,-2.0695,1.7833,82,1038.622,20073,-7.0578,-1.3963,-12.3941,1.1246,-1.7622,-0.9214,62
3.769,72,-1.6861,-4.2158,-9.8662,1.2532,-1.8419,-1.1956,93,4.109,79,3.7068,-1.0244,-14.6373,-1.892,-2.1831,1.9669,82,1038.673,20074,-4.842,-1.0646,-11.3103,1.4799,-1.9492,-1.177,62
3.821,73,3.8269,2.313,-8.0962,1.589,-2.0137,-1.5477,93,4.16,80,7.2206,3.5533,-16.06,-0.7091,-0.9142,0.7491,82,1038.725,20075,-3.2447,-0.8346,-10.5572,1.7432,-2.0857,-1.3625,62
3.873,74,7.8505,-1.6344,-7.6334,0.4823,-1.464,-0.5134,93,4.212,81,7.1672,4.3855,-14.1716,0.1542,0.0118,-0.1396,82,1038.777,20076,-2.0318,-0.6071,-10.0054,1.9362,-2.1853,-1.4971,62
3.924,75,6.5177,-1.632,-7.031,-0.3253,-0.4548,0.3019,93,4.264,82,6.1709,6.7877,-12.9335,0.7842,0.4443,-0.7883,82,1038.829,20077,2.6883,-2.162,-4.9966,1.0756,-1.8228,-1.1025,62
3.976,76,6.0915,-2.6742,-7.0984,-0.9148,-0.8044,0.8345,93,4.316,83,6.1196,8.3433,-12.9878,1.2441,0.3133,-1.2617,82,1038.88,20078,2.0191,-1.5478,-6.2766,0.3959,-1.6798,-0.8518,62
4.028,77,6.675,-4.182,-7.7077,-1.3451,-0.6394,1.2857,93,4.368,84,4.6146,8.4636,-12.6818,1.0278,0.2864,-1.6072,82,1038.932,20079,1.5068,-1.0888,-7.1394,-0.1,-1.5753,-0.6695,62
4.08,78,6.6898,-5.1967,-8.3079,-1.6591,-0.3257,1.615,93,4.42,85,2.7862,8.457,-13.4212,1.0457,0.1313,-1.8594,82,1038.984,20080,1.1449,-0.7744,-7.7659,-0.4619,-1.4991,-0.5369,62
4.131,79,5.7579,-6.167,-8.7001,-1.8882,0.0128,1.8553,93,4.471,86,0.5712,8.5155,-15.0391,0.851,-0.281,-1.9063,82,1039.036,20081,0.8861,-0.5429,-8.2663,-0.7243,-1.444,-0.4404,62
4.183,80,5.7353,-6.8073,-8.9554,-2.0555,0.0725,2.0308,93,4.523,87,1.0005,9.1907,-16.7209,0.6928,-0.8777,-1.7673,82,1039.087,20082,0.681,-0.3522,-8.6258,-0.9165,-1.4037,-0.3697,62
4.235,81,6.0798,-7.8338,-12.3709,-2.1776,0.0915,2.1588,93,4.575,88,2.6408,8.8909,-17.2597,1.0908,-1.3133,-1.8505,82,1039.139,20083,0.5545,-0.2159,-8.8637,-1.0557,-1.3752,-0.3186,62
4.287,82,5.3671,-8.0717,-16.6901,-0.9173,-0.369,2.2206,93,4.627,89,4.9986,11.8158,-13.0567,1.1553,-1.6312,-1.6066,82,1039.191,20084,0.4482,-0.1029,-9.058,-1.1577,-1.355,-0.2818,62
4.339,83,8.9746,-6.2997,-9.5901,-0.0517,-0.9387,1.3841,93,4.679,90,3.7151,13.2509,-14.6783,1.1504,-1.5441,-1.3438,82,1039.243,20085,1.0442,2.1179,-10.7551,-0.1814,-1.4619,-0.0711,62
4.39,84,5.1992,-9.7955,-12.4865,0.6043,-0.0027,1.3742,93,4.73,91,0.7,12.3586,-15.5634,0.1967,-1.436,-1.0,82,1039.295,20086,3.8379,5.9409,-12.1359,0.3771,-1.7301,-0.0676,62
4.442,85,3.0252,-9.9699,-12.8317,1.1155,-0.6713,1.6796,93,4.782,92,2.0103,11.6761,-14.4625,-0.5365,-1.7207,-0.6808,82,1039.346,20087,4.9037,5.7105,-12.0322,0.6765,-1.9258,-0.4419,62
4.494,86,3.0014,-8.222,-12.8235,1.4885,-1.0794,1.9025,93,4.834,93,0.6589,8.5973,-15.4025,-1.0716,-1.3537,-0.5946,82,1039.398,20088,4.3012,4.644,-11.0851,0.9715,-2.0686,-0.9986,62
4.545,87,1.4186,-8.4875,-13.0456,1.7607,-1.0,2.0651,93,4.886,94,0.34,7.7673,-15.6705,-1.4621,-0.9059,-0.081,82,1039.45,20089,2.4988,2.8011,-10.4147,1.3225,-2.1728,-1.4049,62
4.597,88,1.8782,-5.899,-11.7095,1.9594,-1.1633,1.9391,93,4.938,95,-0.6174,5.8878,-15.9219,-1.7471,-0.6058,0.6012,82,1039.502,20090,0.5611,0.5966,-10.1311,1.4664,-2.2489,-1.7014,62
4.649,89,1.1079,-3.55,-12.0796,2.1045,-0.9074,1.4145,93,4.989,96,-0.8223,2.2991,-14.7856,-1.9552,-0.8591,1.1041,82,1039.553,20091,1.5651,0.0229,-8.6778,1.652,-2.3044,-1.9178,62
4.701,90,0.6789,-1.4932,-12.389,1.9693,-1.3316,0.3614,93,5.041,97,-0.3493,1.9748,-12.827,-1.5948,-1.2996,1.4712,82,1039.605,20092,2.8517,-0.4772,-6.0538,1.7566,-2.345,-2.0758,62
4.753,91,1.4076,-1.2699,-12.0308,1.2006,-1.6412,-0.4113,93,5.093,98,-2.621,6.7681,-15.2046,-1.844,-1.6212,1.7391,82,1039.657,20093,7.4057,0.4115,-5.3538,1.5599,-2.2037,-2.191,62
4.805,92,0.4015,-0.7737,-11.5927,1.4913,-1.8672,-0.9753,93,5.145,99,3.0069,-0.3211,-14.3806,-1.012,-1.8559,1.3353,82,1039.709,20094,5.4791,-0.1605,-5.8118,1.6072,-2.2715,-2.2752,62
4.857,93,4.5523,-2.4979,-11.3879,1.7628,-2.0321,-1.3869,93,5.197,100,7.1145,2.6444,-12.8529,-0.0669,-1.5017,0.2882,82,1039.76,20095,4.22,-0.5931,-6.2795,1.6772,-2.3209,-2.3366,62
4.908,94,8.3799,3.5669,-9.1667,0.6997,-2.1524,-0.7072,93,5.248,101,6.4265,2.078,-11.1785,0.6229,-0.4169,-0.476,82,1039.812,20096,3.2566,-0.9243,-6.5758,1.7543,-2.357,-2.3814,62
4.96,95,10.9144,-0.3014,-7.351,-0.1667,-1.219,0.0358,93,5.3,102,5.322,6.0018,-9.4159,1.1264,0.1318,-1.0338,82,1039.864,20097,2.4079,-1.7422,-6.6292,1.8318,-2.3833,-2.4141,62
5.012,96,8.7789,-2.0417,-5.8894,-0.7991,-0.6673,0.4326,93,5.352,103,6.1115,7.6779,-9.64,1.4938,0.2245,-1.4409,82,1039.916,20098,1.6521,-1.4959,-7.5965,1.7186,-1.1068,-1.0862,62
5.064,97,8.4625,-2.4126,-5.5692,-1.2579,-0.0103,0.7623,93,5.404,104,5.9415,9.2301,-10.4983,1.4768,0.163,-1.738,82,1039.967,20099,1.109,-1.2716,-8.0093,1.6472,-0.1695,-0.1171,62
5.116,98,8.7388,-3.4954,-6.581,-1.5955,0.1839,1.233,93,5.456,105,4.5083,8.5867,-11.7595,1.6522,0.1863,-1.9548,82,1040.019,20100,0.7107,-1.0928,-8.306,1.6059,0.511,0.5902,62
5.167,99,7.9201,-5.234,-6.6866,-1.8418,0.5673,1.5766,93,5.508,106,1.669,9.3338,-13.1122,1.4117,-0.1917,-2.1054,82,1040.071,20101,0.4144,-0.9775,-8.5195,1.5895,1.0026,1.1065,62
5.219,100,6.2479,-6.0637,-6.7422,-2.0216,0.7779,1.8273,93,5.559,107,2.1721,10.6609,-15.9923,1.6897,-0.8126,-2.04,82,1040.123,20102,0.1851,-0.8922,-8.6662,1.5878,1.3568,1.4832,62
5.271,101,7.4373,-7.5487,-9.6458,-2.1528,0.1937,2.0103,93,5.611,108,3.8262,9.0836,-16.3922,1.0487,-1.0268,-2.0759,82,1040.174,20103,0.0096,-0.8153,-8.7774,1.6,1.6091,1.7582,62
5.323,102,8.2051,-6.8021,-12.8672,-1.9755,0.2243,2.1438,93,5.663,109,5.3048,8.1901,-16.6887,1.1912,-1.394,-1.9111,82,1040.226,20104,-0.1282,-0.7302,-8.8777,1.6187,1.7895,1.9589,62
5.374,103,8.0816,-7.2799,-14.74,-1.4784,-0.4391,2.2264,93,5.715,110,8.7915,7.45,-9.5323,0.3241,-1.2683,-1.0088,82,1040.278,20105,1.5014,-3.3264,-8.9159,1.596,1.8737,2.1054,62
5.426,104,9.7379,-4.2586,-18.7544,-0.4047,0.024,1.8725,93,5.767,111,5.2458,6.1331,-12.4367,0.2257,-1.3886,-1.093,82,1040.33,20106,-2.3062,-1.7224,-9.7741,1.4402,1.3714,1.0264,62
5.478,105,6.5382,-8.3058,-17.8988,0.1734,-0.0355,2.0433,93,5.818,112,3.4401,6.8676,-12.2515,-0.5153,-1.4973,-1.0933,82,1040.381,20107,-1.3237,0.3064,-10.9459,1.3685,0.3378,0.0869,62
5.53,106,4.2607,-7.2716,-15.8046,0.8009,-0.4599,2.1679,93,5.87,113,1.7039,7.6589,-13.3515,-1.0524,-1.6429,-1.0111,82,1040.433,20108,-2.3488,-0.1549,-9.8983,1.1769,-0.4165,-0.0976,62
5.582,107,2.642,-6.764,-14.2712,1.2589,-0.5965,2.2486,93,5.922,114,-0.3279,6.4426,-14.4164,-1.1556,-1.3172,-1.012,82,1040.485,20109,-3.5016,-0.0708,-8.5898,0.7246,-0.9671,-0.0375,62
5.633,108,0.6891,-5.3365,-13.6083,1.529,-0.4808,2.2251,93,5.974,115,-1.8193,5.6406,-14.5468,-1.1607,-1.0784,-1.1844,82,1040.537,20110,-4.7558,0.1095,-6.2022,0.367,-1.3689,0.2418,62
5.685,109,-0.6215,-5.2876,-11.0639,1.278,-0.891,1.9517,93,6.026,116,-2.274,5.64,-12.716,-1.3859,-0.7621,-1.158,82,1040.588,20111,-5.0258,0.2394,-5.5284,0.1375,-1.6622,0.4042,62
5.737,110,-1.4977,-5.3851,-9.4722,1.2058,-0.5718,1.9542,93,6.078,117,-3.4553,5.5628,-11.9204,-1.5795,-0.4594,-1.1114,82,1040.64,20112,-4.7598,0.3256,-5.0647,-0.1577,-1.8605,0.3532,62
5.789,111,-1.8172,-5.5781,-8.3052,1.1222,-0.5007,1.8144,93,6.129,118,-3.9753,6.5102,-10.904,-1.558,-0.3763,-0.9076,82,1040.692,20113,-4.1704,0.7862,-4.6034,-0.3545,-1.9836,0.2819,62
5.84,112,-2.7049,-5.286,-7.2616,1.1646,-0.602,1.5462,93,6.181,119,-5.259,6.1638,-10.6713,-1.55,-0.3877,-0.6381,82,1040.744,20114,-4.174,0.8181,-3.6796,-0.4031,-1.9684,0.2612,62
5.892,113,-3.6944,-4.8115,-6.3651,1.2271,-0.5625,1.2653,93,6.233,120,-6.0954,6.4541,-9.6202,-1.7626,-0.5417,-0.3011,82,1040.795,20115,-3.6441,0.6975,-2.8791,-0.4064,-1.7236,0.2613,62
5.944,114,-4.4362,-4.4421,-5.3662,1.3742,-0.6609,0.9438,93,6.285,121,-5.9853,6.6198,-7.8724,-1.9665,-0.6321,-0.0606,82,1040.847,20116,-2.0894,0.5848,-2.1963,-0.456,-1.613,0.3103,62
5.996,115,-4.6647,-4.2085,-4.7203,1.6773,-0.857,0.6051,93,6.337,122,-5.1039,5.5182,-7.5472,-2.1152,-0.9719,0.4345,82,1040.899,20117,-0.7771,0.6354,-1.9161,-0.5442,-1.7637,0.3319,62
6.048,116,-4.2671,-3.3143,-4.8455,1.8986,-1.2224,0.2591,93,6.388,123,-2.8044,3.6921,-8.616,-2.2238,-1.382,0.9825,82,1040.951,20118,-0.6405,0.5349,-3.1566,-0.6241,-1.8903,0.3071,62
6.099,117,-2.8788,-2.7338,-5.9912,1.7389,-1.5615,-0.064,93,6.44,124,-0.3726,3.2209,-9.7117,-1.9534,-1.6813,1.3824,82,1041.002,20119,-1.1111,0.2347,-6.3407,-0.7388,-1.676,0.3738,62
6.151,118,-1.516,-0.8278,-8.3414,0.9986,-1.809,-0.4665,93,6.492,125,0.1654,5.4681,-7.7816,-1.5364,-1.8998,1.6743,82,1041.055,20120,-1.0596,-0.0977,-11.7745,-0.9084,-1.0637,0.6477,62
6.203,119,-0.5118,-1.2806,-10.0954,0.0515,-1.9896,-1.0156,93,6.544,126,-0.4619,9.3177,-11.734,-1.8014,-2.0592,1.8874,82,1041.106,20121,-0.4021,0.9684,-15.0068,-1.0718,-0.8219,0.7851,62
6.255,120,1.0868,-2.723,-10.3903,0.6351,-2.1214,-1.4163,93,6.596,127,4.5828,1.5397,-15.1163,-0.643,-2.1756,0.7893,82,1041.158,20122,-0.22,0.6655,-13.3715,-0.9324,-1.0784,0.664,62
6.307,121,5.8506,3.4025,-9.6765,0.3272,-2.2176,-1.3627,93,6.647,128,3.5763,1.7615,-15.6136,0.2025,-0.9087,-0.1103,82,1041.21,20123,-0.1145,0.4509,-12.1686,-0.8331,-1.263,0.5775,62
6.358,122,7.7592,0.1466,-9.2508,-0.4386,-1.5565,-0.3179,93,6.699,129,2.6598,6.6125,-10.8822,0.8195,0.0158,-0.7669,82,1041.261,20124,0.0195,0.2852,-11.1525,-0.7636,-1.3947,0.5159,62
6.41,123,7.109,-3.3564,-6.5405,-0.9975,-1.1443,0.2153,93,6.751,130,2.8953,5.9547,-9.5207,0.9734,-0.2246,-0.8984,82,1041.313,20125,0.6941,0.1085,-14.6272,-0.4755,-0.67,0.4802,62
6.462,124,6.7143,-3.9011,-5.4259,-1.3326,-0.4698,0.6085,93,6.803,131,4.6189,8.3832,-10.1386,1.3822,0.4112,-1.342,82,1041.365,20126,0.516,0.015,-13.1712,-0.2553,-0.0745,0.7611,62
6.514,125,7.9156,-5.368,-7.2311,-1.65,-0.087,1.1207,93,6.855,132,5.408,10.0999,-10.4988,1.6805,0.2412,-1.6659,82,1041.417,20127,0.4106,-0.0236,-12.2152,-0.0909,0.3594,0.9855,62
6.566,126,7.8931,-7.1657,-10.2427,-1.8643,0.0722,1.4946,93,6.907,133,5.1504,10.2925,-9.9424,1.4179,0.1002,-1.9022,82,1041.468,20128,0.3128,-0.0725,-11.4826,0.0324,0.6759,1.1467,62
6.617,127,6.1252,-6.5677,-12.2269,-1.2529,0.1753,1.7675,93,6.958,134,3.7667,10.6548,-13.5179,1.7066,-0.5995,-1.9428,82,1041.52,20129,0.2489,-0.1025,-10.9517,0.1254,0.9068,1.2649,62
6.669,128,4.507,-7.2108,-13.6285,-1.5918,-0.5414,1.9666,93,7.01,135,3.4174,11.512,-15.2049,1.2856,-1.1102,-1.6892,82,1041.572,20130,0.1901,-0.1243,-10.5515,0.1963,1.0749,1.3505,62
6.721,129,5.5595,-7.9544,-14.6904,-1.7371,-1.0644,2.112,93,7.062,136,7.4141,5.0874,-8.4494,0.2583,-1.483,-0.5794,82,1041.624,20131,0.1445,-0.142,-10.2691,0.2513,1.1979,1.4121,62
6.773,130,4.273,-9.3614,-15.9959,-0.847,-1.4462,2.0443,93,7.114,137,4.666,9.0399,-7.5624,0.1843,-0.7645,-0.621,82,1041.675,20132,2.1395,-3.865,-4.9315,0.6484,0.6318,0.6016,62
6.825,131,8.1761,-5.3272,-16.8797,0.0311,-1.5967,2.1686,93,7.166,138,2.099,8.253,-9.3076,-0.5455,-0.9155,-0.7528,82,1041.727,20133,0.9835,-3.7822,-3.783,-0.1837,-0.0923,0.2045,62
6.876,132,1.2359,-5.1455,-17.5597,0.6971,-0.6519,2.1067,93,7.217,139,1.1879,8.1568,-9.6521,-1.0782,-0.8856,-0.9302,82,1041.779,20134,0.7435,-3.8222,-2.4698,-0.8039,-0.7304,-0.5161,62
6.928,133,2.0113,-6.6152,-15.6132,1.1831,-1.1451,1.8277,93,7.269,140,0.1435,8.1463,-10.1713,-1.4669,-0.9374,-1.2218,82,1041.831,20135,0.2921,-4.9398,-2.1625,-1.2646,-1.1962,-1.0527,62
6.98,134,1.0401,-7.4227,-13.987,1.5379,-0.4268,1.5827,93,7.321,141,0.203,7.3829,-10.8276,-1.7506,-0.6116,-1.2485,82,1041.882,20136,0.0568,-5.2043,-2.4428,-1.6008,-1.5361,-1.4444,62
7.032,135,0.3776,-5.8572,-12.5873,1.7968,-0.3316,1.5077,93,7.373,142,0.1897,5.5451,-11.414,-1.9577,-0.6958,-0.9894,82,1041.934,20137,-0.0479,-4.5108,-3.1157,-1.8462,-1.7842,-1.6629,62
7.084,136,0.2155,-5.4533,-12.266,1.6138,-0.0093,1.3352,93,7.425,143,0.7484,3.0417,-11.7574,-2.1078,-1.1489,-0.4829,82,1041.986,20138,-0.5821,-2.5369,-4.5871,-2.0145,-1.9653,-1.3812,62
7.135,137,0.4083,-4.7294,-12.3961,1.8374,-0.001,0.7846,93,7.476,144,1.2719,1.0894,-12.7859,-1.4963,-1.5112,0.3089,82,1042.038,20139,-1.1339,-1.1119,-6.1868,-2.071,-2.0284,-0.6579,62
7.187,138,-0.0866,-2.3454,-12.7105,1.8269,-0.3805,-0.1014,93,7.528,145,0.9516,2.269,-10.011,-0.6023,-1.7756,0.8908,82,1042.089,20140,-2.3255,2.0395,-7.4779,-2.1894,-1.6831,-0.0267,62
7.239,139,-0.4911,-1.2999,-13.4221,1.6469,-0.9471,-0.7491,93,7.58,146,2.5501,6.9829,-9.9151,-0.9594,-1.9686,1.3155,82,1042.141,20141,-3.7593,5.0212,-6.9715,-2.2758,-1.1336,0.3323,62
7.291,140,0.6908,-2.2576,-11.7189,1.868,-1.3605,-1.2219,93,7.632,147,6.7811,-0.1644,-11.7835,-0.6896,-2.1094,1.0128,82,1042.193,20142,-4.3135,3.9526,-6.5612,-2.3389,-0.6165,-0.2351,62
7.342,141,5.5616,-1.5424,-11.1434,2.0377,-1.6623,-1.5669,93,7.684,148,9.869,2.6328,-9.4484,0.1684,-1.4156,0.0528,82,1042.245,20143,-3.2503,2.9235,-7.0863,-2.3849,-0.2082,-0.8166,62
7.394,142,9.1166,-4.2605,-7.238,0.8098,-1.8564,-0.4669,93,7.735,149,9.1742,1.5004,-8.6588,0.7947,-0.3541,-0.6478,82,1042.296,20144,-2.4037,2.1905,-7.4962,-2.4185,0.0808,-1.2388,62
7.446,143,8.8933,-3.8049,-5.2767,-0.0863,-1.0511,-0.0606,93,7.787,150,7.9464,4.8952,-7.7341,1.2517,0.4199,-1.1592,82,1042.348,20145,3.6041,-3.6591,-13.4966,-1.5846,0.5947,-0.8061,62
7.498,144,7.7623,-3.8401,-4.3849,-0.7404,-0.7068,0.3146,93,7.839,151,6.9448,7.2693,-7.8322,1.5853,0.8145,-1.5324,82,1042.4,20146,2.8861,-2.8033,-13.4025,-0.4945,1.0096,-0.4029,62
7.55,145,7.3487,-5.8218,-5.1615,-1.2177,-0.2944,0.8912,93,7.891,152,6.011,8.6833,-8.4636,1.8187,0.9132,-1.8048,82,1042.452,20147,2.1217,-2.0445,-12.1576,0.3107,1.3098,-0.1105,62
7.601,146,7.0059,-7.5271,-6.1181,-1.5661,0.1856,1.3271,93,7.943,153,3.8131,9.6909,-9.2958,1.7642,0.8292,-2.0036,82,1042.503,20148,1.5586,-1.4911,-11.2333,0.8987,1.5278,0.1021,62
7.653,147,5.945,-8.5566,-6.3452,-1.435,0.4816,1.6452,93,7.995,154,1.3849,10.9276,-10.6431,1.795,0.4038,-2.1487,82,1042.555,20149,1.1505,-1.1132,-10.5642,1.3282,1.6834,0.257,62
7.705,148,4.2265,-9.415,-6.2752,-1.0323,0.7889,1.8774,93,8.047,155,1.6144,12.396,-14.1941,1.8706,-0.378,-2.2546,82,1042.607,20150,0.8593,-0.8474,-10.0795,1.6423,1.7937,0.3696,62
7.757,149,4.8201,-10.4319,-9.0475,-1.4308,0.3492,2.0468,93,8.098,156,2.9132,11.6233,-15.7471,1.3299,-0.9485,-2.3319,82,1042.659,20151,0.6477,-0.6449,-9.7153,1.8721,1.8712,0.452,62
7.809,150,5.9004,-10.5983,-12.1571,-1.354,0.3146,2.1705,93,8.15,157,1.6391,8.0453,-14.7047,1.1305,-0.98,-2.1575,82,1042.711,20152,0.4985,-0.4872,-9.441,2.0402,1.9256,0.5122,62
7.86,151,4.5033,-8.2617,-13.192,-0.5158,0.2581,2.2098,93,8.202,158,6.1162,4.0096,-8.0843,0.1553,-1.3273,-1.4576,82,1042.762,20153,5.3177,2.9874,-4.4567,2.0806,1.9604,0.5538,62
7.912,152,3.3968,-1.9366,-11.4466,0.097,-0.0051,1.5962,93,8.254,159,3.1944,3.388,-12.1363,-0.093,-1.3696,-1.4148,82,1042.814,20154,5.7661,-0.5544,-2.0911,1.4364,1.3448,0.0815,62
7.964,153,5.4022,-6.6111,-11.0956,0.6619,0.052,1.5706,93,8.306,160,1.3741,4.5813,-12.7797,-0.7219,-0.8623,-1.4085,82,1042.866,20155,5.836,-0.9174,-0.1524,0.4084,0.4545,-0.5232,62
8.016,154,2.0719,-5.8678,-11.3004,0.8866,0.3129,1.5667,93,8.358,161,0.1587,5.0752,-12.0021,-1.0245,-1.302,-1.2771,82,1042.918,20156,5.7983,-1.5963,-1.0533,0.1691,-0.3314,-0.9696,62
8.068,155,1.115,-7.0258,-10.9493,1.2271,-0.331,1.5832,93,8.409,162,-1.4603,5.2635,-10.6773,-1.1026,-1.2238,-1.3858,82,1042.969,20157,6.64,-1.8715,-1.7161,0.1047,-0.9049,-1.3282,62
8.119,156,-0.2725,-7.2365,-10.2316,1.4452,-0.2491,1.6658,93,8.461,163,-2.2,5.7883,-10.9532,-1.4845,-1.1868,-1.1791,82,1043.021,20158,6.9033,-1.5774,-3.1387,0.0708,-1.3235,-1.6449,62
8.171,157,-1.4066,-6.8485,-9.6208,1.436,-0.4484,1.6528,93,8.513,164,-1.927,4.9267,-11.2006,-1.7199,-1.0637,-0.7525,82,1043.073,20159,5.8495,-0.6566,-5.4415,0.0986,-1.6291,-1.8716,62
8.223,158,-1.3289,-5.5226,-9.1512,1.3739,-0.499,1.4824,93,8.565,165,-1.9685,3.9696,-11.1848,-1.9353,-1.0264,0.0327,82,1043.125,20160,3.902,-0.2969,-6.8027,0.2938,-1.8521,-1.8771,62
8.275,159,-1.3814,-4.3244,-9.1692,1.2329,-0.4464,1.057,93,8.617,166,-1.3119,2.7153,-10.6642,-2.0925,-1.1728,0.6892,82,1043.176,20161,2.2648,-0.2288,-7.4694,0.5873,-2.0148,-1.7744,62
8.327,160,-0.5977,-3.811,-9.1527,1.1354,-0.7443,0.1772,93,8.668,167,-0.5819,2.0543,-8.7342,-2.2071,-1.4447,1.1684,82,1043.228,20162,-0.2419,-0.1002,-7.5323,0.9179,-2.1336,-1.5481,62
8.378,161,-0.4745,-1.8217,-8.9404,1.4988,-0.7461,-0.5458,93,8.72,168,-1.3282,6.374,-7.6169,-1.9105,-1.7271,1.5181,82,1043.28,20163,-3.4363,-0.9641,-6.3205,1.1866,-2.1524,-1.2207,62
8.43,162,-0.1832,-1.9313,-10.3951,1.1155,-1.2138,-1.0734,93,8.772,169,-0.0416,-0.6088,-13.499,-2.0744,-1.9332,1.7734,82,1043.332,20164,-3.6918,-2.3543,-4.8944,1.0934,-2.0342,-0.8564,62
8.482,163,2.8728,-1.0377,-11.0639,1.4858,-1.5552,-1.4586,93,8.824,170,4.8896,2.6771,-13.54,-0.8423,-1.3561,0.6239,82,1043.384,20165,-2.6396,-1.7214,-6.2349,0.5649,-1.9931,-0.7206,62
8.534,164,7.1541,-5.9549,-12.359,0.407,-1.8044,-1.4737,93,8.876,171,8.4885,0.954,-12.7448,0.057,-0.3304,-0.231,82,1043.435,20166,-1.8426,-1.2522,-7.2224,0.1811,-1.9649,-0.621,62
8.585,165,9.6833,-6.7374,-10.8894,-0.3803,-1.0558,-0.3989,93,8.927,172,5.8879,3.6144,-12.6747,0.7133,0.438,-0.855,82,1043.487,20167,-1.2232,-0.8628,-8.0227,-0.0975,-1.9455,-0.5485,62
8.637,166,7.9354,-7.5084,-8.7491,-0.8412,-0.5344,0.2919,93,8.979,173,5.922,7.7263,-10.488,1.1273,0.2588,-1.3104,82,1043.539,20168,-0.0835,0.2127,-13.7908,-0.0022,-1.3301,0.0192,62
8.689,167,7.893,-8.37,-8.1639,-1.2859,-0.5178,0.8331,93,9.031,174,6.1926,8.01,-9.5678,1.0583,0.7985,-1.6428,82,1043.59,20169,-0.0236,0.1576,-12.767,0.0386,-0.8427,0.4289,62
8.741,168,8.208,-9.1699,-8.7456,-1.3544,-0.2076,1.2847,93,9.083,175,4.608,9.0799,-9.3,1.4442,0.96,-1.8853,82,1043.642,20170,0.0359,0.1271,-12.0029,0.0682,-0.4877,0.7276,62
8.793,169,7.6107,-9.531,-9.5554,-1.3784,-0.0258,1.6142,93,9.135,176,3.518,9.4613,-9.9627,0.9156,0.4267,-2.0624,82,1043.694,20171,0.0711,0.0838,-11.4306,0.0899,-0.2281,0.9449,62
8.844,170,6.7753,-9.4026,-9.9017,-0.6776,-0.0198,1.8548,93,9.186,177,3.0932,9.5617,-11.474,1.3184,0.025,-2.1916,82,1043.746,20172,0.106,0.0658,-11.0397,0.1067,-0.0391,1.1028,62
8.896,171,5.2711,-8.7968,-10.8511,-0.4746,0.0024,2.0303,93,9.238,178,2.6866,9.8328,-14.3826,1.6339,-0.6399,-2.2859,82,1043.797,20173,0.1244,0.0507,-10.7458,0.1203,0.0991,1.218,62
8.948,172,4.8357,-9.0793,-12.8843,-0.8397,-0.4459,2.1585,93,9.29,179,1.7559,10.4254,-15.415,1.5601,-1.1397,-2.0909,82,1043.849,20174,0.1445,0.0435,-10.5452,0.1308,0.1996,1.3018,62
9.0,173,3.748,-9.8299,-15.4659,-0.3911,-0.9197,2.2513,93,9.342,180,3.6954,4.1031,-10.941,0.5224,-1.1273,-1.6522,82,1043.901,20175,1.7846,1.2021,-13.515,0.2719,-0.0155,0.8985,62
9.051,174,3.0641,-10.0718,-14.3361,0.3208,-0.0505,1.9709,93,9.394,181,1.617,3.4551,-12.9969,0.2652,-1.2467,-1.5453,82,1043.953,20176,0.9165,-2.9443,-16.5173,0.1088,-0.6478,0.6439,62
9.103,175,0.6928,-7.1691,-12.7614,0.9085,-0.4311,2.0191,93,9.445,182,-0.4179,4.138,-13.4983,-0.2868,-0.891,-1.4476,82,1044.005,20177,2.7227,-2.6572,-14.9115,-0.45,-1.1359,0.5123,62
9.155,176,0.2473,-7.5145,-11.8843,1.2793,-0.3716,1.704,93,9.497,183,-0.4474,3.1008,-10.978,-0.8894,-1.0627,-1.0217,82,1044.056,20178,3.2002,-1.6408,-14.5016,-0.8915,-1.4921,0.1665,62
9.207,177,-1.0587,-7.633,-11.183,1.6081,-0.3986,1.4831,93,9.549,184,-2.6734,5.2715,-11.6394,-0.7702,-0.4264,-0.9167,82,1044.108,20179,0.3636,-0.9597,-15.0828,-1.326,-1.7521,0.0945,62
9.259,178,-1.8625,-7.5011,-10.1006,1.4797,-0.1739,1.3492,93,9.601,185,-2.9781,5.6741,-11.5409,-0.6319,-0.6286,-0.7349,82,1044.16,20180,-1.5292,0.9943,-15.2982,-1.4553,-1.8992,-0.0704,62
9.31,179,-2.4018,-6.5033,-9.2254,1.3299,-0.2405,1.1423,93,9.653,186,-2.9431,5.5279,-10.9451,-0.5332,-0.3808,-0.5653,82,1044.212,20181,-2.4301,2.1714,-15.2515,-1.249,-1.5839,-0.0742,62
9.362,180,-2.474,-5.9646,-8.5487,1.0073,-0.2448,0.8904,93,9.705,187,-2.3259,4.0835,-10.7207,-0.4404,-0.352,-0.0697,82,1044.263,20182,-2.1936,2.3113,-14.7421,-0.9663,-1.1843,-0.0331,62
9.414,181,-2.2613,-5.3115,-8.2281,0.8643,-0.357,0.4359,93,9.756,188,-0.2867,2.5216,-11.0837,-0.0505,-0.5051,0.6145,82,1044.315,20183,-1.8055,1.7117,-13.2343,-0.6758,-0.8818,-0.0925,62
9.466,182,-1.2531,-3.9875,-7.7811,1.0527,-0.478,-0.3338,93,9.808,189,2.8998,3.9507,-11.6091,0.2789,0.3104,1.1139,82,1044.367,20184,-1.2388,1.0317,-10.4399,-0.3384,-0.6919,-0.3038,62
9.518,183,-0.2977,-1.845,-8.7694,1.1954,-0.9786,-0.9187,93,9.86,190,3.9735,8.2103,-14.5677,-0.4765,0.9056,1.4783,82,1044.419,20185,0.462,-0.7662,-6.1825,-0.1332,-0.5605,-0.5368,62
9.569,184,2.0326,-2.8356,-8.9708,1.3749,-1.3835,-1.3456,93,9.912,191,2.379,3.0723,-18.5644,-1.0278,-0.0117,1.7443,82,1044.47,20186,3.2966,-1.6956,-6.3064,-0.4603,-0.7325,-0.3216,62
9.621,185,4.9891,-5.9612,-11.2662,1.6779,-1.6791,-1.6572,93,9.964,192,6.6562,6.5709,-17.6784,-0.0784,-0.3747,0.5867,82,1044.522,20187,2.446,-1.0978,-7.187,-0.813,-0.9411,0.2125,62
9.673,186,8.6987,-1.8825,-7.9781,0.6163,-1.8948,-1.1305,93,10.015,193,7.1378,8.2041,-15.8141,0.6145,0.3559,-0.2582,82,1044.574,20188,1.8043,-0.6655,-7.8612,-1.0726,-1.0924,0.6003,62
9.724,187,11.0115,-4.8639,-6.149,-0.2276,-1.1349,-0.1485,93,10.067,194,5.6561,10.5862,-13.3436,1.1137,0.9389,-0.8748,82,1044.626,20189,1.3014,-0.2862,-8.4288,-1.2647,-1.203,0.8805,62
9.776,188,9.4954,-6.1522,-4.3617,-0.7984,-0.8705,0.5678,93,10.119,195,4.7768,9.789,-11.5998,1.0254,1.2591,-1.3248,82,1044.678,20190,0.7147,-0.7995,-8.6998,-1.391,-1.462,0.7258,62
9.828,189,8.3254,-6.4668,-4.2254,-1.26,-0.4042,1.0911,93,10.171,196,4.2926,10.5129,-11.5001,1.4201,1.0565,-1.6533,82,1044.729,20191,0.5379,-0.5331,-8.7087,-1.46,-1.7182,0.6074,62
9.88,190,8.2504,-7.1343,-4.5389,-1.597,-0.3389,1.4729,93,10.223,197,4.7757,10.1923,-12.0561,1.3303,0.202,-1.893,82,1044.781,20192,0.4143,-0.3359,-8.7482,-1.5103,-1.9042,0.5206,62
9.932,191,7.9724,-7.6889,-6.8475,-1.8429,-0.2439,1.7517,93,10.274,198,4.1627,7.8731,-12.3939,0.7925,-0.4415,-1.8835,82,1044.833,20193,0.3215,-0.193,-8.7949,-1.5468,-2.0396,0.4561,62
9.983,192,7.5952,-6.4615,-8.5452,-1.7182,-0.4256,1.9551,93,10.326,199,3.7754,7.4488,-13.5205,1.2011,-0.9949,-1.7221,82,1044.884,20194,0.2668,-0.0897,-8.8085,-1.5733,-2.1391,0.4087,62
10.035,193,5.9433,-6.0167,-10.6314,-1.1793,-0.7657,1.8431,93,10.378,200,7.6753,10.0225,-7.2201,1.3039,-1.3988,-1.8742,82,1044.936,20195,3.144,-0.4789,-8.5502,-1.6162,-2.0817,0.8974,62
10.087,194,5.0928,-7.0361,-11.6827,-0.746,-0.0375,1.7336,93,10.43,201,1.054,8.7025,-9.2916,0.8094,-1.1099,-2.0468,82,1044.988,20196,3.7556,-0.3687,-6.198,-1.7078,-2.0628,1.0508,62
10.139,195,2.669,-8.1709,-10.9573,-0.1281,-0.3496,1.8688,93,10.482,202,0.9212,7.3294,-8.6798,-0.0893,-1.1708,-2.0215,82,1045.04,20197,3.6285,1.0287,-4.7205,-1.861,-2.1404,1.1397,62
10.191,196,1.2783,-9.3837,-10.2655,0.5809,-0.2835,1.912,93,10.534,203,0.1009,7.4655,-11.2536,-0.4926,-1.2324,-2.0525,82,1045.091,20198,2.7491,2.1705,-2.8916,-2.0361,-2.2252,1.2468,62
10.242,197,1.8972,-10.1107,-9.6989,1.0983,-0.2215,1.9497,93,10.585,204,-0.8107,6.1271,-12.6127,-0.814,-1.0146,-1.828,82,1045.143,20199,1.7185,2.737,-2.7727,-2.1639,-2.2745,1.3137,62
10.294,198,1.1087,-9.3233,-10.2696,1.3266,0.0211,1.9291,93,10.637,205,-1.4805,5.0434,-12.8694,-0.8492,-1.162,-1.4342,82,1045.195,20200,1.7123,3.0843,-1.8635,-2.2572,-2.3231,1.3475,62
10.346,199,-0.2317,-8.7164,-11.5129,1.6196,0.0954,1.7003,93,10.689,206,-0.7432,5.3607,-12.1969,-0.5059,-0.5788,-1.4599,82,1045.247,20201,1.3218,2.774,-0.4226,-2.3253,-2.3586,1.4768,62
10.398,200,0.7267,-8.0104,-8.6674,1.8339,-0.5997,1.3159,93,10.741,207,-1.4022,4.8025,-12.1715,-1.0493,-0.5291,-1.1152,82,1045.298,20202,0.6306,4.7413,-1.1075,-2.375,-2.0931,1.3459,62
10.449,201,-0.4083,-6.7666,-9.0355,2.0128,0.0357,1.0993,93,10.793,208,-1.8047,3.6543,-11.112,-1.1182,-0.3851,-0.5319,82,1045.35,20203,0.2185,3.9692,-2.3394,-2.0213,-1.5889,1.16,62
10.501,202,-0.032,-5.2452,-8.2547,1.8971,-0.1063,0.436,93,10.844,209,-1.5715,2.681,-9.389,-1.249,-0.3846,0.2772,82,1045.402,20204,0.2243,2.7008,-4.636,-1.6523,-1.1774,1.058,62
10.553,203,-1.1308,-3.1874,-8.1269,1.739,-0.427,-0.3446,93,10.896,210,0.1301,3.0071,-8.9271,-1.5547,-0.89,0.8677,82,1045.454,20205,0.0009,2.0176,-8.3267,-1.413,-0.9257,1.0498,62
10.605,204,-0.6871,-1.1222,-8.5319,1.475,-0.9787,-0.9266,93,10.948,211,1.1928,4.6331,-8.2458,-1.8147,-1.3222,1.2987,82,1045.505,20206,-0.6415,2.3101,-12.0784,-1.1484,-0.8665,1.1619,62
10.657,205,-0.4561,-2.2658,-8.9098,1.1927,-1.3836,-1.3514,93,11.0,212,2.1728,3.1966,-9.8386,-2.0045,-1.6377,1.6132,82,1045.557,20207,-0.1868,2.4374,-12.4999,-1.2488,-1.1974,1.1514,62
10.708,206,3.2004,-6.8514,-10.0107,1.5449,-1.6791,-1.6614,93,11.052,213,6.5057,2.1027,-11.6394,-0.7912,-1.8679,1.2129,82,1045.609,20208,-0.0983,1.7173,-11.0939,-1.5893,-1.537,0.7546,62
10.76,207,7.3932,0.3895,-8.5543,1.1052,-1.8948,-1.1814,93,11.103,214,6.4679,1.2426,-12.3033,0.0943,-0.6976,0.1989,82,1045.661,20209,-0.0017,1.1806,-10.0796,-1.8378,-1.7849,0.4674,62
10.812,208,8.9847,-0.0741,-7.849,0.1292,-0.7612,-0.4656,93,11.155,215,4.7955,6.2338,-11.9207,0.7405,-0.1551,-0.5412,82,1045.713,20210,0.169,0.719,-9.3851,-2.0192,-1.9658,0.2597,62
10.864,209,7.4696,-1.7853,-6.1186,-0.5831,-0.7999,-0.1151,93,11.207,216,4.9183,6.9503,-11.8195,0.3245,0.0025,-1.0794,82,1045.764,20211,0.7991,0.0269,-14.1751,-1.3535,-1.5544,0.1223,62
10.916,210,5.8311,-2.0398,-7.6806,-1.1029,-0.4062,0.4002,93,11.259,217,5.1399,8.8199,-11.5296,0.9085,0.2689,-1.4742,82,1045.816,20212,0.6254,0.0046,-12.9872,-0.8667,-1.2473,0.0228,62
10.967,211,6.1134,-6.6864,-8.1747,-1.4823,-0.7128,0.9687,93,11.311,218,5.7456,10.0216,-11.6472,1.3348,-0.4179,-1.7623,82,1045.868,20213,0.509,0.0018,-12.1271,-0.5103,-1.0223,-0.0489,62
11.019,212,5.608,-7.3618,-9.4788,-1.7592,-0.1169,1.3836,93,11.362,219,5.7389,9.4556,-10.5428,0.803,-0.8102,-1.9726,82,1045.919,20214,0.4333,-0.0107,-11.4926,-0.2494,-0.8568,-0.1004,62
11.071,213,4.6811,-8.8337,-10.9139,-1.9509,-0.5968,1.6865,93,11.414,220,4.0534,8.9809,-10.6643,0.6751,-0.9036,-2.126,82,1045.971,20215,0.3811,-0.0297,-11.0285,-0.0586,-0.7346,-0.1381,62
11.123,214,4.4208,-9.0574,-12.403,-1.6449,-0.9865,1.9075,93,11.466,221,2.4446,10.5421,-12.9436,0.3299,-1.2799,-2.1408,82,1046.023,20216,0.3514,-0.0476,-10.7099,0.0812,-0.6448,-0.164,62
11.174,215,4.7621,-8.828,-13.7909,-1.7475,-1.3894,2.0688,93,11.518,222,1.3296,4.4249,-13.4108,0.0711,-1.2651,-1.6365,82,1046.075,20217,-1.6412,-1.5644,-10.0531,0.1811,-0.5716,-0.1727,62
11.226,216,3.9977,-9.9925,-15.7321,-1.9528,-1.6833,2.0357,93,11.57,223,-0.092,4.9076,-13.9658,-0.6277,-0.5951,-1.6139,82,1046.126,20218,-0.7236,-5.2451,-9.9353,-0.3916,-0.3121,0.2253,62
11.278,217,5.4007,-9.0358,-19.4785,-0.7509,-1.3559,1.6061,93,11.621,224,0.7694,6.4942,-12.7269,-1.0528,-0.4466,-1.6336,82,1046.178,20219,4.8302,-3.4709,-12.4368,-0.7932,-0.8898,0.6518,62
11.33,218,4.7132,-11.7924,-20.7686,-0.9901,-0.7135,1.7381,93,11.673,225,-0.2271,7.3588,-12.392,-0.7472,-0.5545,-1.8787,82,1046.23,20220,5.1128,-6.4004,-11.3725,-0.9709,-1.1972,1.1514,62
11.382,219,5.2862,-7.1669,-17.5653,-0.0483,-0.7686,1.8478,93,11.725,226,-0.7249,7.4291,-12.4146,-0.456,-0.7419,-1.9709,82,1046.282,20221,6.3298,-6.8993,-10.1097,-1.3865,-1.5271,1.516,62
11.433,220,3.1487,-7.5303,-15.9772,0.6213,-0.3642,1.9119,93,11.777,227,-1.3405,7.4998,-12.72,-0.6367,-0.9942,-1.7842,82,1046.333,20222,5.9229,-5.9633,-9.3938,-1.6898,-1.7777,1.7822,62
11.485,221,2.0665,-6.5775,-14.5816,0.9861,-0.1031,1.7444,93,11.829,228,-2.1197,6.4623,-12.6103,-1.1447,-0.9441,-1.3117,82,1046.385,20223,4.7357,-4.4372,-8.7256,-1.9112,-1.9605,1.9764,62
11.537,222,0.9693,-7.0738,-13.9347,1.0565,-0.1262,1.456,93,11.88,229,-2.4443,5.4071,-12.5188,-1.5155,-0.9801,-0.7581,82,1046.437,20224,2.6844,-3.6429,-7.9241,-2.0727,-2.0939,1.8835,62
11.589,223,0.0811,-5.1862,-13.3169,1.4455,-0.1097,0.9781,93,11.933,230,-1.8329,3.3559,-11.6923,-1.7861,-1.2269,0.0436,82,1046.489,20225,2.0567,-1.2172,-8.0825,-2.1906,-2.1893,1.5221,62
11.641,224,0.4618,-3.2369,-11.9467,1.0601,-0.3072,0.1692,93,11.984,231,-1.7306,0.0026,-10.9001,-1.837,-1.4712,0.6972,82,1046.54,20226,0.5748,-0.116,-7.6525,-2.2767,-2.2609,1.2635,62
11.692,225,0.6078,-3.5272,-10.837,1.14,-0.5419,-0.5516,93,12.036,232,-0.8755,0.6902,-10.203,-0.9704,-1.7465,1.1742,82,1046.592,20227,1.1524,1.4637,-7.272,-2.3235,-2.2869,1.1336,62
11.744,226,-0.4673,-2.5079,-9.9588,1.5064,-0.5514,-1.0777,93,12.088,233,2.006,5.8306,-6.815,-1.1897,-1.9473,1.5224,82,1046.644,20228,3.0305,-0.4477,-3.4595,-1.8923,-1.8925,0.8022,62
11.796,227,-2.1241,-7.0281,-10.6128,1.7738,-1.0718,-1.4617,93,12.14,234,6.3839,-1.0054,-9.2567,-1.5483,-2.0939,1.7765,82,1046.696,20229,3.1099,-1.7739,-4.4461,-1.6243,-1.9826,0.1958,62
11.848,228,3.5072,0.2605,-7.8746,1.969,-1.4516,-1.1733,93,12.192,235,9.5792,0.9293,-10.05,-0.4583,-1.4331,0.8029,82,1046.747,20230,2.156,-1.3524,-5.7382,-1.4569,-2.0944,-0.3375,62
11.899,229,7.4859,-1.9221,-5.961,0.7597,-0.9372,-0.252,93,12.243,236,8.1661,1.197,-8.0932,0.3372,-0.555,-0.1004,82,1046.799,20231,1.4283,-1.0342,-6.6821,-1.3292,-2.1765,-0.7288,62
11.951,230,6.7638,-1.2628,-3.865,-0.1229,-0.5305,0.2581,93,12.295,237,9.5005,3.0034,-7.2507,0.9179,-0.5461,-0.7596,82,1046.851,20232,0.4256,-0.6286,-7.4073,-1.2295,-2.2416,-1.0185,62
12.003,231,6.5683,-2.5143,-2.5577,-0.7671,-0.2732,0.4415,93,12.347,238,9.0364,5.1106,-8.5903,1.3416,0.2806,-1.2408,82,1046.903,20233,0.7146,-0.7322,-6.2298,-0.9446,-1.5092,-0.9562,62
12.055,232,7.4181,-4.7481,-2.8446,-1.2372,0.2181,0.9696,93,12.399,239,8.647,7.7791,-8.4317,1.6509,0.8838,-1.592,82,1046.954,20234,0.5316,-0.4998,-7.1726,-0.7298,-0.9883,-0.9105,62
12.107,233,7.5827,-7.1674,-4.7196,-1.5804,0.5605,1.3843,93,12.451,240,8.6393,8.1164,-9.2139,1.8766,0.5422,-1.8483,82,1047.007,20235,0.394,-0.3625,-7.8874,-0.5734,-0.607,-0.8776,62
12.158,234,6.4386,-7.611,-7.1785,-1.495,0.5521,1.687,93,12.502,241,7.9636,7.786,-10.2607,2.0414,0.0117,-2.0353,82,1047.058,20236,0.2825,-0.2617,-8.4156,-0.4593,-0.3293,-0.8526,62
12.21,235,4.6176,-7.1341,-9.4885,-1.2933,-0.0506,1.9079,93,12.554,242,5.7321,6.5188,-11.6979,1.1969,-0.5184,-1.9846,82,1047.11,20237,0.2047,-0.1762,-8.797,-0.3761,-0.127,-0.8346,62
12.262,236,4.5002,-7.5777,-10.665,-1.2737,-0.7062,2.0691,93,12.606,243,9.1034,9.4024,-5.8899,0.9298,-0.8872,-1.6629,82,1047.162,20238,0.1408,-0.1101,-9.0765,-0.315,0.0189,-0.8207,62
12.314,237,3.3624,-7.326,-11.5135,-1.4594,-1.1007,2.1637,93,12.658,244,5.8532,8.2979,-7.4053,0.2786,-0.8757,-1.5199,82,1047.213,20239,0.0354,-2.3219,-7.5596,-0.0945,0.0549,-0.8094,62
12.366,238,6.3729,-5.6916,-6.8997,-0.3907,-1.4726,1.6772,93,12.71,245,2.8318,6.7547,-7.5845,-0.4282,-0.6135,-1.5656,82,1047.265,20240,-2.3627,-0.9524,-8.3707,-0.258,-0.3503,-0.4721,62
12.417,239,1.0658,-9.3517,-10.6923,-0.3384,-0.3924,1.4637,93,12.761,246,1.3756,6.5032,-8.9381,-0.9839,-0.9795,-1.5088,82,1047.317,20241,-2.9466,-1.1539,-7.9983,-0.1838,-0.9188,-0.0428,62
12.469,240,1.2513,-7.911,-10.2024,0.4274,-0.9557,1.3276,93,12.813,247,-0.2995,7.8839,-9.5521,-1.3802,-0.7846,-1.6115,82,1047.369,20242,-5.1367,-0.6659,-6.2921,-0.2735,-1.3336,0.3652,62
12.521,241,0.5061,-9.1943,-9.6062,0.3418,-0.0353,1.4467,93,12.865,248,-0.6499,7.5922,-9.4067,-1.6874,-0.8284,-1.5055,82,1047.42,20243,-5.6252,-0.392,-6.0371,-0.4983,-1.6364,0.7819,62
12.573,242,0.3933,-7.4917,-9.1055,0.7503,-0.2652,1.4916,93,12.917,249,-1.2434,7.2916,-8.9888,-1.9115,-0.7103,-1.3655,82,1047.472,20244,-5.7411,0.1712,-4.9628,-0.7851,-1.8574,0.9951,62
12.624,243,-0.1475,-8.1122,-8.8072,0.6775,0.0269,1.5237,93,12.969,250,-1.0595,5.7305,-9.3139,-2.0751,-0.8107,-0.98,82,1047.524,20245,-5.1266,0.3571,-4.2897,-0.9917,-2.0187,0.9975,62
12.676,244,-0.0883,-7.1231,-9.0251,1.1688,0.2853,1.2756,93,13.021,251,-0.1763,4.804,-9.2232,-2.1946,-0.7906,-0.3764,82,1047.576,20246,-3.7768,0.3637,-4.2751,-1.2368,-2.1364,0.8718,62
12.728,245,-0.2593,-5.7151,-9.5477,1.4207,0.338,0.8503,93,13.072,252,1.2523,3.9362,-9.1699,-1.7859,-1.2497,0.3665,82,1047.628,20247,-2.7225,0.3232,-5.5496,-1.4041,-2.2224,0.6382,62
12.78,246,0.1526,-4.8614,-9.468,1.3384,-0.0566,0.0956,93,13.124,253,2.6754,4.7081,-8.8958,-0.6397,-1.5847,0.9329,82,1047.679,20248,-2.5897,0.2982,-7.8207,-1.6103,-2.2851,0.5714,62
12.831,247,-0.1913,-3.4575,-9.3565,1.1382,-0.1063,-0.6053,93,13.176,254,1.0106,8.4528,-7.0426,-0.4054,-1.8293,1.3462,82,1047.731,20249,-2.4718,0.0652,-9.8778,-1.8086,-2.3308,0.2933,62
12.883,248,-0.7612,-2.3168,-11.2111,0.1538,-0.6288,-1.1169,93,13.228,255,2.5129,1.7855,-12.4593,-0.6641,-2.0078,1.5769,82,1047.783,20250,-2.3347,0.0667,-9.0214,-1.96,-2.3642,-0.461,62
12.935,249,0.9028,-4.9818,-11.2286,0.7866,-1.1282,-1.4903,93,13.28,256,6.7539,6.4692,-10.1402,0.1871,-1.5053,0.4645,82,1047.835,20251,-1.7117,-0.4646,-7.9858,-2.0291,-2.3886,-1.0125,62
12.987,250,5.7164,0.7084,-9.1019,1.2485,-1.4928,-1.7621,93,13.331,257,9.8492,8.0336,-8.5577,0.6706,-0.4372,-0.0107,82,1047.886,20252,-1.2376,-0.8759,-7.2397,-2.0421,-2.4064,-1.415,62
13.039,251,9.2295,-3.6343,-7.2908,0.2338,-0.9838,-0.6095,93,13.383,258,7.8268,7.0978,-7.8919,1.1512,0.36,-0.4411,82,1047.938,20253,-0.8633,-1.1636,-6.708,-2.0195,-2.4194,-1.7088,62
13.09,252,7.9957,-5.5051,-6.2993,-0.5067,-0.412,-0.0029,93,13.435,259,6.4782,6.9023,-8.2738,1.5119,0.9335,-0.9769,82,1047.99,20254,4.7283,4.4818,-12.9214,-1.7183,-1.8513,-1.9232,62
13.142,253,6.9758,-5.318,-5.8591,-1.0467,0.1705,0.5093,93,13.487,260,5.6532,7.6593,-9.3737,1.7752,0.9642,-1.3994,82,1048.042,20255,3.5395,3.2361,-12.1377,-1.7092,-1.7386,-1.9945,62
13.194,254,7.0455,-6.2755,-6.8078,-1.4413,0.1797,1.0393,93,13.539,261,5.8939,9.2891,-10.9546,1.9674,0.996,-1.7077,82,1048.093,20256,2.5577,2.3181,-11.4504,-1.6995,-1.6589,-2.0474,62
13.246,255,8.0039,-6.7541,-8.5632,-1.7293,0.1678,1.4351,93,13.59,262,6.7168,9.4147,-13.1084,2.0862,0.0543,-1.9327,82,1048.145,20257,1.8419,1.6491,-10.9388,-1.6866,-1.6053,-2.0868,62
13.297,256,7.9331,-6.7011,-10.8406,-1.9395,0.1801,1.7241,93,13.642,263,6.4071,9.086,-14.0875,1.9679,-0.6331,-2.0458,82,1048.197,20258,1.3099,1.1735,-10.5513,-1.6732,-1.5693,-2.116,62
13.349,257,8.5923,-7.8387,-11.8385,-1.5576,-0.341,1.9349,93,13.694,264,5.3408,8.4335,-14.7816,1.7739,-1.1347,-1.9599,82,1048.248,20259,-4.2755,-1.3722,-8.0161,-1.8901,-1.4337,-2.2204,62
13.402,258,5.8751,-6.6413,-14.2209,-1.453,0.4335,1.8825,93,13.746,265,1.7844,5.875,-10.596,0.8676,-0.1491,-2.1168,82,1048.3,20260,-2.7166,0.8093,-7.9129,-1.8897,-1.0237,-2.2966,62
13.453,259,2.161,-6.3823,-10.1966,-0.4512,-0.2745,1.784,93,13.798,266,3.5243,5.9133,-10.4057,0.158,-0.2737,-1.9262,82,1048.352,20261,-3.5675,2.298,-8.8273,-1.2641,-1.1506,-2.1899,62
13.505,260,1.7819,-8.3583,-10.8603,-0.0354,0.1137,1.6445,93,13.85,267,3.006,7.4293,-11.1158,-0.2149,-0.4527,-1.8864,82,1048.404,20262,-4.4572,4.0072,-9.4222,-0.4205,-0.9206,-2.1206,62
13.557,261,1.4124,-8.5985,-11.1759,0.3899,-0.5804,1.6723,93,13.901,268,1.6729,8.0287,-11.8731,-0.5805,-0.4973,-1.934,82,1048.455,20263,-4.8039,5.4781,-11.0044,0.0501,-0.7346,-2.0217,62
13.608,262,1.2869,-9.4895,-11.3003,0.869,-0.4092,1.7299,93,13.953,269,0.3089,8.3026,-11.8949,-0.8587,-0.5516,-2.0168,82,1048.507,20264,-5.1037,6.589,-12.1513,0.3896,-0.6068,-2.1087,62
13.66,263,0.6566,-9.7899,-11.1635,1.2512,-0.6297,1.8411,93,14.005,270,-0.941,8.4589,-11.5009,-1.0922,-0.5419,-2.0833,82,1048.559,20265,-5.3385,6.6186,-12.989,0.724,-0.5145,-2.2151,62
13.712,264,0.0877,-9.7148,-10.8794,1.5864,-0.4662,1.9812,93,14.057,271,-1.9184,8.0171,-11.1756,-1.1972,-0.4859,-2.0487,82,1048.611,20266,-5.3882,6.1227,-13.3492,0.9996,-0.4223,-2.2927,62
13.764,265,-0.3406,-9.2352,-10.3558,1.8113,-0.3944,2.0105,93,14.109,272,-2.2688,7.0758,-10.6442,-1.2345,-0.4786,-1.8114,82,1048.663,20267,-5.1706,4.9535,-13.3329,1.1728,-0.3267,-2.3494,62
13.816,266,-0.8276,-8.1216,-9.9059,1.9496,-0.2515,1.8799,93,14.16,273,-2.1062,6.0135,-10.116,-1.2975,-0.5451,-1.29,82,1048.714,20268,-4.5866,3.6349,-13.0378,1.235,-0.1966,-2.3791,62
13.867,267,-0.9343,-6.7024,-9.4369,1.9693,-0.2149,1.5011,93,14.212,274,-1.3921,5.5392,-9.4951,-1.456,-0.7558,-0.4167,82,1048.766,20269,-3.7401,2.3644,-12.3963,1.2309,-0.0328,-2.2804,62
13.919,268,-1.0842,-5.2635,-9.2481,1.8238,-0.2909,0.8323,93,14.264,275,0.414,3.0933,-7.7328,-1.7427,-1.0676,0.3613,82,1048.818,20270,-2.6888,1.5145,-11.2104,1.1445,0.2228,-2.0418,62
13.971,269,-1.1032,-3.3243,-8.9248,2.0054,-0.3854,-0.0677,93,14.316,276,2.6143,2.5564,-6.9347,-1.9519,-1.4518,0.929,82,1048.87,20271,-0.6974,0.6518,-9.4111,1.0238,0.5936,-1.898,62
14.023,270,-1.5196,-0.8137,-10.4907,2.1073,-0.9232,-0.7245,93,14.368,277,2.0613,2.6936,-9.9114,-2.1046,-1.7323,1.3434,82,1048.921,20272,3.4905,1.1203,-6.2337,1.224,1.0136,-2.0613,62
14.075,271,1.8328,-1.1625,-10.3725,2.1188,-1.3431,-1.2039,93,14.42,278,6.4243,3.1704,-12.1624,-0.8643,-1.571,0.2941,82,1048.973,20273,4.1236,5.0171,-6.2045,1.5668,0.5766,-1.8686,62
14.126,272,6.3951,-4.5449,-11.2275,2.2208,-1.6496,-1.5538,93,14.471,279,9.6086,5.0208,-11.3129,0.0409,-1.1181,-0.4717,82,1049.025,20274,3.1873,3.6216,-6.6901,1.8174,0.1746,-1.6737,62
14.178,273,9.7249,-4.8474,-8.2993,0.9434,-1.8733,-1.0518,93,14.523,280,7.6468,6.8806,-9.3279,0.7016,-0.1369,-0.9175,82,1049.077,20275,2.4681,2.5932,-6.9872,2.0003,-0.1171,-1.5297,62
14.23,274,9.9698,-6.5574,-5.4661,0.0112,-1.4514,-0.5997,93,14.575,281,5.3994,7.0465,-7.9264,1.1145,-0.0572,-1.0568,82,1049.128,20276,1.889,1.7347,-7.234,2.1338,-0.3303,-1.4215,62
14.282,275,8.8938,-7.1491,-3.6952,-0.6692,-0.8069,-0.178,93,14.627,282,5.9468,8.9594,-7.2854,1.4294,0.4493,-1.4576,82,1049.18,20277,2.3054,0.8941,-3.3073,1.6278,-0.5085,-0.6161,62
14.333,276,8.3206,-7.7997,-3.7908,-1.1658,-0.3643,0.3336,93,14.679,283,6.0887,9.6589,-7.5774,1.7136,0.5931,-1.7502,82,1049.232,20278,1.6996,0.6842,-4.9752,1.2418,-0.6414,-0.0338,62
14.385,277,8.6776,-8.3145,-5.2011,-1.5282,0.0064,0.9201,93,14.73,284,6.7805,9.7995,-9.2866,1.9224,0.6134,-1.9638,82,1049.283,20279,1.268,0.5346,-6.2447,0.9586,-0.7385,0.3922,62
14.437,278,9.0065,-8.6481,-6.9223,-1.7927,0.1312,1.3482,93,14.782,285,7.1331,10.4365,-11.3896,2.0748,0.102,-2.1196,82,1049.335,20280,0.9353,0.4343,-7.1776,0.7499,-0.8089,0.7036,62
14.489,279,9.405,-8.1623,-8.4751,-1.9858,-0.0402,1.6606,93,14.834,286,7.0301,9.6868,-12.3047,2.186,-0.5982,-2.2334,82,1049.387,20281,0.699,0.3451,-7.8692,0.5957,-0.8601,0.9307,62
14.541,280,9.0824,-7.605,-9.7971,-2.1267,-0.4441,1.8886,93,14.886,287,5.6663,9.618,-12.3686,2.2144,-1.1093,-2.3164,82,1049.439,20282,0.5222,0.2796,-8.3556,0.4816,-0.8969,1.0976,62
14.592,281,7.2964,-7.8353,-11.9842,-2.2295,-0.8396,2.055,93,14.938,288,4.634,10.8974,-13.621,1.4732,-1.4823,-2.1711,82,1049.49,20283,-1.27,0.6871,-7.9334,0.4026,-0.9167,1.2244,62
14.644,282,8.1979,-6.5483,-11.3426,-0.9528,-1.2789,1.8079,93,14.989,289,-0.2291,13.2802,-12.1066,0.5892,-0.5588,-2.2441,82,1049.542,20284,-1.9883,0.9978,-4.7384,-0.3025,-0.9598,0.8796,62
14.696,283,3.5871,-8.1076,-12.6453,-0.2366,-0.398,1.6548,93,15.041,290,-0.2998,12.8383,-12.9857,0.4712,-0.3443,-2.1231,82,1049.594,20285,-2.4505,-0.6885,-5.5,0.097,-0.7881,0.038,62
14.748,284,2.9621,-8.4014,-13.0275,0.4999,-0.85,1.6221,93,15.093,291,-0.5459,13.6488,-12.9306,-0.3139,-0.4828,-2.0618,82,1049.646,20286,-3.7403,-2.3871,-5.2406,0.0662,-0.8759,-0.6483,62
14.8,285,0.7886,-8.2553,-12.6611,1.0381,-0.8632,1.7775,93,15.145,292,-0.9391,11.6324,-13.1096,-0.9091,-0.478,-2.0916,82,1049.698,20287,-4.0096,-3.631,-5.174,0.1424,-0.9217,-1.1492,62
14.851,286,0.327,-8.5196,-12.165,1.4264,-0.8058,1.9297,93,15.197,293,-1.3391,10.1892,-12.0425,-1.1377,-0.2897,-2.0157,82,1049.749,20288,-3.8008,-4.2534,-5.6057,0.2216,-1.0574,-1.5148,62
14.903,287,-0.4529,-6.5228,-11.3317,1.6129,-0.7256,1.9647,93,15.248,294,-1.8266,7.5959,-11.7175,-1.1399,-0.1396,-1.792,82,1049.801,20289,-2.942,-4.1405,-6.4705,0.2737,-1.2429,-1.7816,62
14.955,288,-0.3772,-5.7124,-10.3026,1.7285,-0.4842,1.7416,93,15.301,295,-1.8063,5.8561,-10.5353,-1.1905,-0.1242,-1.1254,82,1049.853,20290,-2.1012,-3.853,-7.0107,0.2535,-1.3496,-1.8768,62
15.007,289,-1.1627,-4.667,-9.4648,1.3824,-0.4721,1.1486,93,15.352,296,-1.017,4.4789,-9.3472,-1.5172,-0.244,-0.156,82,1049.905,20291,-1.1077,-3.3038,-7.649,0.0896,-1.3172,-1.7755,62
15.059,290,-1.3404,-3.7546,-8.665,1.296,-0.4208,0.2044,93,15.404,297,0.7863,4.5108,-8.3723,-1.7873,-0.8499,0.5515,82,1049.957,20292,-0.2681,-2.2364,-8.398,-0.3655,-1.1634,-1.5786,62
15.11,291,-1.5878,-3.0535,-8.6166,1.368,-0.5534,-0.5259,93,15.456,298,2.0736,6.8441,-6.4933,-1.9845,-1.293,1.0679,82,1050.008,20293,0.8778,-0.1431,-9.4347,-0.887,-1.0731,-1.3232,62
15.162,292,-1.1168,-3.3501,-8.8454,1.3929,-1.0608,-1.059,93,15.508,299,-0.2062,5.83,-9.5256,-2.1284,-1.6163,1.4448,82,1050.06,20294,-1.0998,3.2688,-9.7493,-1.3252,-0.973,-1.3169,62
15.214,293,-1.8104,-3.4792,-10.1882,1.691,-1.4436,-1.448,93,15.56,300,4.7694,6.6784,-10.2729,-0.8817,-1.6134,0.5515,82,1050.112,20295,-1.4281,2.7727,-9.7724,-1.3956,-0.6328,-1.6161,62
15.266,294,3.7361,-2.8878,-8.3923,1.9085,-1.7229,-1.7301,93,15.612,301,8.4008,6.8234,-9.3996,0.0282,-1.4733,-0.2018,82,1050.164,20296,-1.0141,2.0218,-9.7465,-1.4216,-0.3415,-1.8556,62
15.318,295,7.7842,1.5541,-6.3787,2.0664,-1.9268,-1.4256,93,15.663,302,7.2569,6.249,-8.5938,0.6761,-0.6315,-0.5646,82,1050.215,20297,-0.716,1.4496,-9.7253,-1.4399,-0.1305,-2.0297,62
15.369,296,9.8158,2.0888,-6.3473,0.8308,-1.4471,-0.8454,93,15.715,303,6.9523,6.3942,-8.0721,1.1652,-0.0703,-1.0985,82,1050.267,20298,-0.3557,0.9133,-9.7236,-1.4507,0.022,-2.1573,62
15.421,297,9.8891,0.265,-6.5075,-0.071,-0.7389,-0.0821,93,15.767,304,6.9171,7.8408,-7.8805,1.5221,0.324,-1.4881,82,1050.319,20299,-0.0283,0.5117,-14.3136,-1.2305,0.131,-1.0216,62
15.473,298,9.3721,-1.6433,-5.8494,-0.7292,0.0187,0.4343,93,15.819,305,6.6285,8.1729,-7.9655,1.4355,0.7121,-1.7724,82,1050.371,20300,0.0515,0.3495,-13.0722,-1.0651,0.214,-0.1372,62
15.525,299,8.0951,-2.8287,-5.9342,-1.2096,0.5387,0.9936,93,15.871,306,5.1371,8.5023,-8.9683,1.5995,0.7772,-1.98,82,1050.422,20301,0.1326,0.2302,-12.1872,-0.9425,0.2775,0.5096,62
15.577,300,6.6874,-4.5836,-6.1954,-1.5602,0.8046,1.4018,93,15.922,307,2.8743,9.3762,-10.6193,1.8276,0.3511,-2.1315,82,1050.474,20302,0.1872,0.1434,-11.5518,-0.8508,0.3269,0.9819,62
15.628,301,5.4753,-6.0809,-5.9288,-1.8161,0.9214,1.6998,93,15.974,308,1.6916,10.3025,-12.2593,1.8451,-0.4164,-2.242,82,1050.526,20303,0.2151,0.0915,-11.1031,-0.7821,0.3661,1.3267,62
15.68,302,4.0751,-7.4562,-6.863,-2.0028,0.8676,1.9172,93,16.026,309,2.5435,10.2084,-13.8448,2.0184,-0.9766,-2.1653,82,1050.577,20304,0.2297,0.0289,-10.7567,-0.7286,0.3968,1.5791,62
15.732,303,5.1107,-7.3987,-9.3547,-1.9494,0.666,2.0759,93,16.078,310,3.8476,9.234,-15.3534,1.8516,-1.2152,-1.5837,82,1050.629,20305,0.2629,-0.03,-10.5073,-0.6874,0.4218,1.7635,62
15.784,304,5.9489,-6.8379,-12.7896,-2.1001,0.5113,2.189,93,16.13,311,5.3483,5.6259,-14.7396,0.7503,-0.8719,-1.0549,82,1050.681,20306,0.266,-0.0784,-10.3217,-0.6547,0.4425,1.8988,62
15.835,305,9.3992,-7.2794,-17.3309,-0.8584,0.7176,1.3637,93,16.181,312,4.7058,4.5436,-15.8827,0.2044,-0.7515,-0.7379,82,1050.733,20307,-1.8056,-3.9606,-10.1535,-1.015,0.307,1.2538,62
15.887,306,7.7053,-8.2873,-18.2429,-1.2825,-0.0899,1.2316,93,16.233,313,4.2475,5.7662,-15.9194,-0.016,-0.7247,-0.7376,82,1050.784,20308,-3.6669,-4.7883,-11.6666,-0.867,0.668,0.9487,62
15.939,307,6.0818,-7.2276,-16.969,-0.5455,0.1287,1.1206,93,16.285,314,2.7687,6.9949,-15.72,-0.0695,-0.8644,-0.8313,82,1050.836,20309,-2.725,-6.4461,-12.1771,-0.4339,0.6722,0.447,62
15.991,308,4.4264,-8.3867,-16.1817,-0.1762,-0.4349,1.1932,93,16.337,315,1.3911,8.0288,-15.6027,-0.3665,-0.9826,-1.0257,82,1050.888,20310,-2.1097,-7.9157,-11.8565,-0.0753,0.5831,0.0497,62
16.043,309,3.2581,-9.3663,-16.0751,0.1984,-0.5735,1.4089,93,16.389,316,0.4124,8.2314,-15.3558,-0.9197,-0.8886,-1.2675,82,1050.94,20311,-1.5835,-9.0893,-11.4244,0.3277,0.5669,-0.4043,62
16.094,310,2.2298,-8.8823,-15.2876,0.6179,-0.7981,1.662,93,16.44,317,-0.4762,7.4658,-14.0316,-1.173,-0.7162,-1.4057,82,1050.992,20312,-1.1159,-9.0039,-10.9398,0.7235,0.6714,-0.8487,62
16.146,311,0.7483,-8.7131,-13.6439,1.1072,-0.8116,1.7597,93,16.492,318,-1.1518,6.3899,-13.1114,-1.4218,-0.6509,-1.2472,82,1051.043,20313,0.3239,-7.776,-10.3704,1.1181,0.7093,-1.0554,62
16.198,312,0.0255,-7.3833,-12.4406,1.1872,-0.856,1.6853,93,16.544,319,-1.7224,5.1222,-12.1458,-1.4078,-0.5016,-0.8743,82,1051.095,20314,1.005,-6.352,-9.6922,1.3088,0.6176,-1.0462,62
16.25,313,-0.7039,-5.5693,-11.7877,1.2254,-0.8377,1.2265,93,16.596,320,-1.6518,3.9056,-11.7124,-1.3429,-0.2697,-0.2354,82,1051.147,20315,1.5448,-5.009,-9.2324,1.3583,0.5055,-0.9237,62
16.302,314,-0.7451,-5.0732,-10.9175,0.9869,-1.0386,0.4091,93,16.648,321,-0.7301,3.3656,-9.5826,-1.5091,0.0624,0.4936,82,1051.199,20316,1.807,-3.6656,-8.6197,1.1985,0.2747,-0.7384,62
16.354,315,-0.9067,-3.9941,-9.6423,1.3946,-0.8105,-0.3766,93,16.699,322,1.8244,3.4362,-9.9753,-1.6906,-0.6252,1.0256,82,1051.25,20317,1.1813,-1.0439,-8.9135,0.9414,-0.0138,-0.4666,62
16.405,316,-0.6588,-2.1651,-10.1252,1.6922,-1.2608,-0.9499,93,16.751,323,2.0197,7.8348,-14.2088,-1.9139,-1.1288,1.4139,82,1051.302,20318,-2.1978,3.0598,-11.1267,0.5988,0.0067,-0.469,62
16.457,317,0.9862,-1.2348,-11.3474,1.9094,-1.5896,-1.3684,93,16.803,324,6.3939,0.4574,-17.9672,-1.063,-1.4965,1.6973,82,1051.354,20319,-2.3447,2.5322,-11.3465,0.7811,0.1622,-1.0184,62
16.509,318,5.7772,4.4887,-9.6393,2.0434,-1.8295,-1.6738,93,16.855,325,9.2337,3.6375,-17.1488,-0.1041,-0.4501,0.5524,82,1051.406,20320,-1.4596,1.9027,-10.8156,0.935,0.332,-1.4193,62
16.561,319,9.2739,-1.9217,-10.7413,0.814,-0.7924,-0.6264,93,16.907,326,7.681,5.9921,-16.5463,0.5957,0.0362,-0.2832,82,1051.458,20321,-0.7971,1.4376,-10.4284,1.0443,0.4635,-1.7119,62
16.613,320,7.6378,-3.7273,-9.2116,-0.0833,-0.2754,0.0342,93,16.958,327,5.2768,7.4525,-15.5304,1.1065,0.0788,-0.8931,82,1051.509,20322,4.7766,-4.2087,-5.0477,1.2408,0.8112,-1.7203,62
16.664,321,5.5323,-5.4513,-8.7111,-0.7381,-0.8703,0.7016,93,17.01,328,5.4319,9.3985,-13.8578,1.4552,-0.3017,-1.3382,82,1051.561,20323,3.4862,-2.8256,-5.737,1.5319,0.99,-1.0765,62
16.716,322,5.6959,-7.5633,-8.6826,-1.0134,-1.22,1.1887,93,17.062,329,5.4946,9.526,-13.322,1.7338,-0.2876,-1.663,82,1051.613,20324,2.5734,-2.0457,-6.6333,1.7503,1.1159,-0.6078,62
16.768,323,6.5926,-7.0251,-8.9389,-1.2791,-1.0257,1.5442,93,17.114,330,4.5279,9.0696,-14.013,1.818,-0.7372,-1.9001,82,1051.665,20325,1.9031,-1.4892,-7.3047,1.9089,1.2056,-0.2659,62
16.82,324,7.3849,-7.7458,-10.6697,-1.6109,-1.3203,1.8037,93,17.166,331,3.4596,10.0438,-17.1855,1.3117,-1.2107,-1.86,82,1051.716,20326,1.3711,-1.0007,-7.787,2.0296,1.2667,-0.0191,62
16.871,325,10.4473,-8.6707,-9.3559,-0.71,-1.6329,1.9928,93,17.218,332,4.199,8.2134,-17.0733,0.2773,-1.5563,-1.6998,82,1051.768,20327,-1.0583,2.2194,-7.3077,2.1551,1.6132,0.5421,62
16.923,326,5.3729,-8.7657,-13.9462,-0.0646,-0.5094,2.1311,93,17.269,333,0.0836,7.9494,-19.011,-0.4776,-1.7636,-1.8239,82,1051.82,20328,4.1556,5.3613,-4.955,2.2468,1.7327,0.8232,62
16.975,327,5.1553,-10.8879,-14.2035,0.1743,-1.0411,2.232,93,17.321,334,-0.2213,9.0875,-16.7029,-0.8873,-0.7665,-2.0175,82,1051.871,20329,3.4461,5.1771,-3.135,2.3137,0.9576,0.063,62
17.027,328,3.441,-10.1767,-14.1353,0.8016,-0.6686,2.3057,93,17.373,335,0.6845,8.1072,-16.68,-1.1552,-0.8781,-2.1589,82,1051.923,20330,2.9406,4.601,-1.5696,2.3625,0.3375,-0.3219,62
17.079,329,3.7195,-11.01,-13.9682,1.2594,-1.1573,2.3594,93,17.425,336,0.333,7.8008,-15.0415,-0.9342,-0.4963,-2.26,82,1051.975,20331,2.566,3.8785,-2.1267,2.3981,-0.0425,-0.4811,62
17.13,330,2.6662,-8.4075,-13.4966,1.5936,-0.4467,2.3986,93,17.477,337,-0.25,6.1684,-14.1855,-0.7126,-0.3485,-2.0646,82,1052.027,20332,2.7977,3.4378,-2.9039,2.4241,-0.4669,-0.6327,62
17.182,331,1.1817,-6.6482,-13.0015,1.7135,-0.6087,2.2675,93,17.528,338,-1.549,5.7732,-13.8294,-0.4542,-0.3188,-1.628,82,1052.078,20333,2.4708,3.1968,-3.6735,2.4431,-0.6777,-0.741,62
17.234,332,-0.0703,-5.6444,-12.12,1.5387,-0.456,1.9437,93,17.58,339,-1.3768,4.5907,-11.7123,-0.3345,-0.3398,-0.8739,82,1052.13,20334,2.12,2.5933,-4.9031,2.457,-0.6398,-0.8093,62
17.286,333,-1.1565,-5.0317,-11.2763,1.4262,-0.4305,1.4683,93,17.632,340,-2.3054,4.0644,-11.3475,0.1635,-0.0767,-0.0216,82,1052.182,20335,2.2669,2.1854,-7.3991,2.4665,-0.4725,-0.726,62
17.337,334,-1.2459,-2.5466,-9.1943,1.704,-0.3651,0.5895,93,17.684,341,-1.4403,1.8402,-10.1836,0.3841,0.183,0.6496,82,1052.234,20336,1.0737,1.1429,-8.5405,2.2987,-0.2888,-0.2483,62
17.389,335,-1.5961,-3.1744,-9.6247,1.0216,-0.3916,-0.2449,93,17.736,342,-0.3732,3.4899,-10.4855,0.6199,0.7891,1.1395,82,1052.286,20337,0.5134,-0.9056,-9.1947,1.7794,-0.2204,0.1475,62
17.441,336,-1.3921,-0.2741,-8.8986,1.3045,-0.951,-0.8538,93,17.787,343,0.0185,4.9503,-10.1923,-0.2175,1.1799,1.497,82,1052.337,20338,0.0169,-3.1784,-9.019,0.7432,-0.2943,0.3364,62
17.493,337,0.2419,-2.4949,-8.0714,1.0839,-1.3634,-1.2983,93,17.839,344,1.2296,6.1115,-12.2988,-0.8388,0.1885,1.758,82,1052.389,20339,-0.0561,-4.3595,-7.9585,0.3232,-0.4131,0.2805,62
17.545,338,3.475,-4.9893,-9.1394,1.4654,-1.6644,-1.6226,93,17.891,345,5.8173,9.7873,-14.8405,0.0595,0.3753,0.7402,82,1052.441,20340,0.0349,-3.1325,-8.4346,0.3798,-0.8036,-0.244,62
17.596,339,7.5937,-6.617,-6.6066,0.405,-1.8841,-1.1012,93,17.943,346,4.9068,9.6609,-13.8063,-0.1443,0.9267,0.0828,82,1052.493,20341,0.1336,-2.2262,-8.7668,0.4252,-1.0893,-0.6295,62
17.648,340,8.132,-5.344,-5.7788,-0.3818,-0.8613,-0.627,93,17.995,347,3.5482,9.5261,-13.2141,0.2198,0.8548,-0.2238,82,1052.544,20342,0.1923,-1.487,-9.0269,0.4603,-1.2965,-0.9136,62
17.7,341,6.7476,-5.5612,-4.5585,-0.956,-0.3514,-0.2921,93,18.046,348,3.6312,10.8364,-12.8933,0.8321,0.4396,-0.6119,82,1052.596,20343,-0.1287,3.2708,-4.0248,0.0955,-1.2472,-1.3429,62
17.752,342,5.9456,-7.3967,-4.5547,-1.3751,-0.0845,-0.0204,93,18.098,349,3.7733,11.0642,-13.7034,0.8634,-0.0281,-1.0603,82,1052.648,20344,-0.1081,2.381,-5.6637,-0.1446,-1.1257,-1.6562,62
