right_hand_timestamp,right_hand_index,right_hand_accel_x,right_hand_accel_y,right_hand_accel_z,right_hand_gyro_x,right_hand_gyro_y,right_hand_gyro_z,right_hand_battery_percentage,left_hand_timestamp,left_hand_index,left_hand_accel_x,left_hand_accel_y,left_hand_accel_z,left_hand_gyro_x,left_hand_gyro_y,left_hand_gyro_z,left_hand_battery_percentage,ball_timestamp,ball_index,ball_accel_x,ball_accel_y,ball_accel_z,ball_gyro_x,ball_gyro_y,ball_gyro_z,ball_battery_percentage
0.624,12,-5.4718,-7.3042,-13.8087,-0.0359,-0.0665,0.003,91,0.516,9,-6.2174,6.3875,-4.1326,0.0391,0.0997,0.1559,87,6877.408,132970,2.0764,9.6482,-8.5379,0.0138,-0.0329,-0.0121,60
0.675,13,-5.4376,-7.3342,-13.8299,-0.0438,-0.0736,-0.0138,91,0.568,10,-6.1835,6.4713,-4.1533,0.038,0.0757,0.1561,87,6877.46,132971,2.0307,9.6485,-8.5535,0.0464,-0.0196,-0.0167,60
0.727,14,-5.4581,-7.4105,-13.8294,-0.0374,-0.0649,-0.0235,91,0.62,11,-6.1612,6.5301,-4.1952,0.0336,0.0596,0.1514,87,6877.511,132972,1.9891,9.6114,-8.5439,0.0693,-0.0089,-0.0104,60
0.779,15,-5.458,-7.4006,-13.8086,-0.0082,-0.0632,-0.0297,91,0.671,12,-6.074,6.5448,-4.2655,0.031,0.0181,0.141,87,6877.563,132973,1.9935,9.547,-8.6176,0.0698,-0.002,0.0143,60
0.831,16,-5.4619,-7.3648,-13.7766,-0.0005,-0.0495,-0.0404,91,0.723,13,-6.0889,6.5307,-4.2704,0.0111,-0.005,0.1521,87,6877.615,132974,1.9665,9.563,-8.7217,0.0526,0.0159,0.0343,60
0.883,17,-5.4575,-7.3082,-13.7708,-0.0092,-0.0368,-0.0596,91,0.775,14,-6.0188,6.5847,-4.2569,0.0198,-0.018,0.1608,87,6877.667,132975,1.9993,9.6006,-8.7617,0.0443,0.0414,0.0456,60
0.934,18,-5.4621,-7.3542,-13.7759,-0.0235,-0.0269,-0.0815,91,0.827,15,-5.9909,6.6186,-4.2147,0.0326,-0.0302,0.1524,87,6877.719,132976,2.0446,9.6513,-8.79,0.0593,0.0511,0.0533,60
0.986,19,-5.4524,-7.416,-13.7537,-0.0372,-0.0122,-0.0933,91,0.879,16,-5.9865,6.6534,-4.1816,0.0277,-0.0491,0.1532,87,6877.77,132977,2.0474,9.6664,-8.837,0.0889,0.0398,0.062,60
1.038,20,-5.4005,-7.4944,-13.7621,-0.0313,-0.0056,-0.0922,91,0.93,17,-6.0091,6.7727,-4.0531,-0.0009,-0.0651,0.1447,87,6877.822,132978,2.055,9.6449,-8.9005,0.1093,0.0234,0.0631,60
1.09,21,-5.3559,-7.5159,-13.8061,-0.0131,0.0096,-0.0899,91,0.982,18,-6.1512,6.7777,-3.9003,-0.0898,-0.1099,0.0903,87,6877.874,132979,2.0345,9.6008,-8.9273,0.1073,0.019,0.0709,60
1.142,22,-5.3105,-7.499,-13.7958,0.0063,0.0264,-0.0969,91,1.034,19,-6.3927,6.7976,-3.6735,-0.0749,-0.1585,-0.0313,87,6877.926,132980,2.052,9.6384,-8.9625,0.0935,0.0297,0.0869,60
1.193,23,-5.3094,-7.4606,-13.8311,0.0219,0.024,-0.0981,91,1.086,20,-6.369,6.6533,-3.5426,-0.1362,-0.1746,-0.2043,87,6877.977,132981,2.1116,9.6976,-9.0483,0.0931,0.0445,0.0978,60
1.245,24,-5.2865,-7.5404,-13.8627,0.0348,0.0101,-0.0825,91,1.138,21,-6.5209,6.3932,-3.2121,-0.3207,-0.1408,-0.3644,87,6878.029,132982,2.1309,9.7279,-9.0741,0.1035,0.0533,0.0819,60
1.297,25,-5.4731,-7.6359,-13.9029,0.0171,-0.0011,-0.0582,91,1.189,22,-6.7468,6.1136,-3.0514,-0.3289,-0.0483,-0.4891,87,6878.081,132983,2.167,9.6805,-9.1225,0.113,0.0435,0.0711,60
1.349,26,-5.8434,-7.9457,-13.9682,0.0654,-0.0977,0.0194,91,1.241,23,-6.5046,6.5436,-3.4746,-0.2515,0.1211,-0.5957,87,6878.132,132984,2.2109,9.6512,-9.1657,0.1117,0.0266,0.0604,60
1.401,27,-6.0846,-8.4599,-13.7803,0.4066,-0.2509,0.1552,91,1.293,24,-6.2278,5.9425,-3.7105,-0.219,0.1618,-0.6487,87,6878.184,132985,2.1756,9.6611,-9.1664,0.1064,0.0093,0.0613,60
1.452,28,-6.3872,-8.6723,-13.6414,0.7499,-0.2912,0.3339,91,1.345,25,-5.9437,4.8443,-4.6532,-0.1573,0.1005,-0.5013,87,6878.236,132986,2.2065,9.6906,-9.1984,0.1104,-0.0026,0.0784,60
1.504,29,-6.5172,-8.6122,-13.1231,1.0381,-0.4395,0.6193,91,1.397,26,-4.3289,3.6604,-6.5964,0.0033,-0.5474,-0.0243,87,6878.288,132987,2.2112,9.7709,-9.235,0.0957,-0.0275,0.1104,60
1.556,30,-6.603,-8.0972,-12.5166,1.3249,-0.4284,0.9398,91,1.449,27,-2.0912,2.3151,-7.9699,0.4622,-1.0722,0.6418,87,6878.339,132988,2.2273,10.0419,-9.2118,0.0083,-0.0649,0.1194,60
1.608,31,-6.1469,-6.0534,-11.3186,1.212,-0.4133,0.7977,91,1.5,28,-0.4757,2.5942,-8.5672,0.4812,-1.4552,1.1338,87,6878.391,132989,2.2624,10.3391,-9.1391,-0.1171,-0.0736,0.0752,60
1.66,32,-5.6566,-5.0122,-10.9224,0.9248,-0.4182,0.4024,91,1.552,29,2.5408,3.7461,-7.6862,-0.3288,-1.7348,1.4929,87,6878.443,132990,2.2765,10.8761,-8.7915,-0.1386,-0.1113,0.0231,60
1.711,33,-2.8016,-3.3939,-10.4811,0.4971,-0.5969,-0.3043,91,1.604,30,6.7738,3.4393,-7.4535,-0.92,-1.9388,1.755,87,6878.495,132991,2.6194,11.3526,-8.8618,0.0961,-0.2762,0.1281,60
1.763,34,-0.6629,-3.1397,-10.8839,0.2116,-0.0904,-0.8972,91,1.656,31,9.863,0.8621,-4.7731,-0.2265,-2.0877,1.5175,87,6878.547,132992,2.635,10.6751,-9.175,0.3171,-0.3974,0.2613,60
1.815,35,0.7849,-5.5108,-10.7608,0.7694,-0.0272,-1.3299,91,1.708,32,11.3491,2.2049,-2.6687,0.5064,-1.0719,1.0877,87,6878.598,132993,2.1622,9.7611,-9.4205,0.4522,-0.3102,0.3941,60
1.866,36,1.7334,-9.2197,-10.8352,1.2359,-0.2432,-1.6458,91,1.76,33,9.6065,3.5865,-2.1073,1.0413,-0.1032,0.5464,87,6878.65,132994,1.6307,7.6929,-9.3775,0.3262,-0.136,0.3593,60
1.918,37,4.9958,-1.339,-6.2686,1.5764,-0.8468,-1.8763,91,1.812,34,6.403,4.2638,-3.0222,1.4317,0.6037,-0.2876,87,6878.702,132995,1.6692,6.6107,-9.9414,0.3921,-0.0148,0.3369,60
1.97,38,6.6026,-6.175,-4.9338,0.4732,0.0642,-2.0428,91,1.863,35,5.134,5.4173,-5.3312,1.7167,0.149,-0.8963,87,6878.754,132996,1.839,3.7897,-9.9053,0.9228,-0.153,0.6023,60
2.022,39,4.5633,-5.1974,-2.9641,-0.0904,0.4909,-1.8316,91,1.915,36,6.0456,8.1817,-11.5148,1.7176,-0.548,-1.3405,87,6878.805,132997,0.4075,0.6184,-9.0148,1.3474,-0.2766,1.1153,60
2.074,40,2.8661,-5.1583,-2.4332,-0.7434,0.7943,-1.3005,91,1.967,37,4.077,2.7216,-15.4902,1.0995,-1.0726,-1.5944,87,6878.857,132998,1.1479,-3.6518,-9.1166,1.6562,-0.1907,1.4897,60
2.125,41,0.8546,-5.6414,-3.9129,-1.2199,0.752,-0.7297,91,2.019,38,2.7188,7.3132,-19.2453,1.4742,-0.1037,-1.4654,87,6878.909,132999,0.8821,-2.5682,-9.3117,1.6309,-0.1685,1.5014,60
2.177,42,0.3077,-6.3392,-6.4806,-1.5665,-0.0192,-0.4941,91,2.071,39,4.1981,6.2983,-18.163,1.0262,0.1558,-1.0536,87,6878.961,133000,0.7348,-1.8051,-9.4792,1.6118,-0.1536,1.5105,60
2.229,43,3.6037,-5.9766,-12.7263,-1.8207,-0.6834,-0.0248,91,2.122,40,4.8567,7.3998,-16.0856,0.6323,-0.0737,-0.8664,87,6879.012,133001,5.8947,4.0136,-14.9439,0.9142,-0.4543,0.7437,60
2.281,44,7.6866,-3.8817,-6.6971,-0.6544,-0.2001,0.0055,91,2.174,41,4.997,8.307,-13.2434,0.2272,0.0067,-0.813,87,6879.064,133002,4.008,2.9223,-13.3142,-0.0106,-0.6511,-0.1332,60
2.332,45,8.5121,-8.0308,-7.6544,-0.6093,-0.1688,0.3989,91,2.226,42,4.5348,8.9789,-11.4063,-0.2384,0.2748,-0.7557,87,6879.116,133003,2.7696,2.1148,-12.1775,-0.6856,-0.8043,-0.7733,60
2.384,46,6.3396,-5.0716,-9.3965,-0.0151,-0.3538,0.4503,91,2.278,43,3.9313,8.9824,-10.2528,-0.5096,0.5381,-0.765,87,6879.168,133004,0.1731,-2.0745,-10.302,-1.1783,-0.9445,-1.2405,60
2.436,47,5.5013,-6.5024,-8.5684,-0.2758,-0.3778,0.3347,91,2.33,44,3.2298,9.017,-9.5114,-0.723,0.7632,-0.8586,87,6879.22,133005,-3.2532,-4.0416,-7.8043,-1.5378,-1.3524,-1.5814,60
2.488,48,4.6641,-8.3463,-9.2963,-0.3796,-0.2902,0.4241,91,2.381,45,2.6284,9.2082,-8.5006,-0.9955,0.7805,-1.0834,87,6879.271,133006,2.9841,-5.9027,-5.6189,-1.8003,-1.6262,-1.8302,60
2.54,49,3.6375,-9.1721,-10.204,-0.3142,-0.4965,0.5238,91,2.433,46,1.7033,9.2409,-7.6084,-1.1405,0.87,-1.3187,87,6879.323,133007,0.1648,1.023,-3.376,-1.8403,-0.9577,-2.007,60
2.591,50,3.1125,-8.7738,-10.0139,-0.1667,-0.5877,0.6906,91,2.485,47,1.0961,8.7578,-7.1054,-1.1917,1.034,-1.5379,87,6879.375,133008,-1.4124,0.0426,-4.0334,-0.9365,-0.4052,-1.3795,60
2.643,51,2.8049,-8.8012,-9.9093,-0.3426,-0.6989,0.8898,91,2.537,48,0.2245,8.4429,-6.6398,-1.0529,1.1744,-1.7232,87,6879.426,133009,-2.1931,-0.1542,-5.2034,-1.0442,-0.2997,-1.0871,60
2.695,52,2.1483,-9.6174,-10.4257,-0.5523,-0.536,1.1879,91,2.589,49,-0.6099,8.1568,-6.4807,-0.9126,1.1828,-1.8101,87,6879.478,133010,-4.4447,2.9127,-4.6458,-1.2153,-0.4587,-1.0335,60
2.747,53,1.1355,-9.8329,-11.0544,-0.6239,-0.4239,1.5436,91,2.64,50,-1.5381,7.7427,-5.789,-0.9435,1.0996,-1.8122,87,6879.53,133011,-5.3663,4.3115,-4.2441,-1.0536,-0.4909,-0.7361,60
2.799,54,0.1347,-9.7875,-11.6271,-0.6526,-0.3557,1.8032,91,2.692,51,-2.8904,7.4234,-4.8059,-1.2116,1.056,-1.7871,87,6879.582,133012,-6.1063,4.7101,-4.2342,-0.8064,-0.4618,-0.3714,60
2.85,55,-0.8537,-9.9025,-12.3396,-0.0606,-0.4908,1.9927,91,2.744,52,-3.5887,6.5969,-4.2201,-1.2529,1.1572,-1.6854,87,6879.633,133013,-6.2836,4.2563,-4.4199,-0.9262,-0.5442,-0.4439,60
2.902,56,-1.4346,-8.7743,-11.8436,0.6302,-0.5486,2.0696,91,2.796,53,-4.483,6.172,-3.9325,-1.2185,1.1025,-1.5619,87,6879.685,133014,-7.0919,4.5797,-4.0806,-1.3071,-0.7277,-0.8971,60
2.954,57,-2.9392,-8.58,-11.9744,0.3672,0.0397,2.0216,91,2.848,54,-5.1808,5.7358,-4.2741,-1.1387,1.0146,-1.4222,87,6879.737,133015,-7.6275,4.5593,-3.4009,-1.4912,-0.769,-1.2576,60
3.006,58,-4.3454,-7.6894,-11.3773,0.5096,-0.4449,1.8254,91,2.9,55,-5.7274,4.6091,-4.3553,-1.0656,0.8126,-1.2556,87,6879.789,133016,-7.8029,3.9132,-2.9196,-1.5987,-0.7145,-1.4971,60
3.058,59,-4.9912,-8.1613,-11.2145,0.4608,-0.4766,1.695,91,2.951,56,-6.4221,3.7222,-4.404,-0.9411,0.6492,-1.01,87,6879.84,133017,-7.5546,3.4345,-3.1707,-1.7145,-0.5984,-1.7178,60
3.109,60,-5.6214,-7.9796,-10.4505,0.5871,-0.5866,1.629,91,3.003,57,-6.0881,2.9845,-4.7584,-0.7412,0.1675,-0.646,87,6879.892,133018,-7.0362,2.7341,-3.533,-1.775,-0.5306,-1.8405,60
3.161,61,-6.2704,-7.2798,-10.6363,0.7153,-0.4329,1.5759,91,3.055,58,-4.8527,2.351,-6.1295,-0.4466,-0.2793,-0.1277,87,6879.944,133019,-6.5029,1.8461,-3.5722,-1.7221,-0.5087,-1.7889,60
3.213,62,-6.3765,-6.8805,-9.7356,0.6506,-0.2264,1.4083,91,3.107,59,-3.1805,1.3685,-8.3061,-0.0763,-0.6981,0.5633,87,6879.996,133020,-5.6496,0.5992,-3.151,-1.6589,-0.5868,-1.6453,60
3.265,63,-6.4224,-5.8812,-9.7165,0.5462,-0.1211,1.0711,91,3.159,60,-1.1933,1.8932,-8.2793,0.3949,-1.1822,1.0765,87,6880.047,133021,-5.6335,-0.5339,-2.6925,-1.5766,-0.7198,-1.6219,60
3.317,64,-5.7405,-4.5041,-9.7879,0.4261,-0.1732,0.4997,91,3.211,61,0.7785,2.4148,-6.9547,0.914,-1.5355,1.4511,87,6880.099,133022,-5.5725,-1.4943,-2.6345,-1.4971,-0.7286,-1.5956,60
3.368,65,-4.3693,-3.23,-10.2589,0.146,-0.2398,-0.2563,91,3.262,62,4.4172,4.4478,-6.5846,0.4045,-1.7933,1.7244,87,6880.151,133023,-5.3828,-2.3868,-2.946,-1.4291,-0.6493,-1.3989,60
3.42,66,-2.7218,-2.8723,-10.1053,-0.0973,0.0473,-0.8622,91,3.314,63,8.1431,6.1127,-3.6896,0.9356,-1.9815,1.9239,87,6880.203,133024,-4.7743,-2.7392,-3.5271,-1.3677,-0.5141,-1.1634,60
3.472,67,-0.1071,-3.9087,-9.3787,0.3252,-0.1475,-1.3044,91,3.366,64,9.7558,8.2686,-1.2852,1.1836,-1.6745,2.0449,87,6880.255,133025,-3.7992,-2.9151,-4.1475,-1.2431,-0.375,-0.9116,60
3.524,68,2.7064,-5.243,-8.8472,0.9117,-0.7757,-1.6271,91,3.418,65,8.5829,8.5168,0.3229,0.7788,-0.9242,1.6328,87,6880.306,133026,-2.6745,-2.7303,-5.0063,-0.8552,-0.3005,-0.5927,60
3.575,69,7.0317,-6.7166,-8.4442,1.3398,-1.2355,-1.8626,91,3.47,66,7.5427,8.3845,0.5797,0.7019,-0.0484,0.9044,87,6880.358,133027,-1.8765,-2.1946,-6.1475,-0.4518,-0.2982,-0.2014,60
3.627,70,10.1885,-9.0051,-7.4283,0.3005,-1.1078,-2.0345,91,3.521,67,7.3555,8.0804,-0.4581,1.0263,0.6438,-0.0153,87,6880.41,133028,-1.3704,-0.9668,-7.6173,-0.1877,-0.1603,0.2032,60
3.679,71,9.0945,-11.77,-6.1614,-0.4449,-0.2781,-2.16,91,3.573,68,6.8078,7.2372,-2.8952,1.4208,0.8499,-0.6975,87,6880.461,133029,-0.7791,0.7132,-9.2613,0.0336,0.1565,0.6763,60
3.731,72,6.0206,-13.7865,-7.2851,-0.9414,0.4783,-1.842,91,3.625,69,9.3122,8.3128,-6.8221,1.7087,0.1706,-1.1955,87,6880.513,133030,-0.1026,0.8363,-10.03,0.2225,0.615,1.1693,60
3.782,73,5.5217,-14.9456,-8.6022,-1.3644,-0.1943,-0.7017,91,3.677,70,10.1599,7.7501,-10.0355,1.6421,-0.5145,-1.5589,87,6880.565,133031,-0.0928,0.7019,-9.7744,0.1204,0.9245,1.5291,60
3.834,74,4.6653,-13.2571,-9.8026,-1.6732,0.2526,0.1645,91,3.729,71,10.3813,2.3858,-7.4958,1.8702,-0.6176,-1.8241,87,6880.617,133032,-0.0871,0.4067,-9.6294,0.0562,1.1539,1.7917,60
3.886,75,5.0394,-12.4038,-11.867,-1.8648,-0.485,0.7967,91,3.78,72,5.531,1.4887,-8.8577,0.6849,-0.0502,-1.8396,87,6880.669,133033,-0.1087,0.2129,-9.5451,0.0147,1.3233,1.9833,60
3.938,76,6.9404,-11.6528,-14.299,-1.6636,-1.0233,1.055,91,3.832,73,2.6597,2.6047,-9.7899,0.0992,0.5923,-1.5558,87,6880.72,133034,-5.3109,5.2932,-5.6043,0.0912,0.9688,1.225,60
3.99,77,8.6396,-9.1925,-16.5293,-0.9524,-1.4162,1.3107,91,3.884,74,1.5223,3.5962,-10.8305,-0.2038,0.4553,-1.2863,87,6880.772,133035,-3.9643,3.8756,-6.8392,-0.0783,0.5937,0.628,60
4.041,78,8.5838,-8.7384,-17.5069,-1.2347,-1.7029,1.6333,91,3.936,75,0.709,3.7355,-10.4768,-0.3004,-0.1781,-0.7919,87,6880.824,133036,-2.8944,2.8254,-7.6451,-0.2007,0.3193,0.1934,60
4.093,79,5.096,-10.3645,-20.0645,-1.5497,-0.5604,1.8687,91,3.988,76,0.5353,6.0016,-10.6363,-0.4056,0.1452,-0.282,87,6880.876,133037,-2.106,2.0588,-8.208,-0.2912,0.1198,-0.1251,60
4.145,80,2.5986,-9.0506,-18.5154,-1.1645,-1.0784,1.6943,91,4.039,77,0.3516,7.6147,-10.5621,-0.945,0.1093,0.0864,87,6880.927,133038,-1.5315,1.4833,-8.6177,-0.356,-0.0261,-0.3577,60
4.197,81,1.1353,-7.4665,-16.5281,-0.4556,-0.1406,1.1848,91,4.091,78,-0.0965,8.3641,-10.2868,-1.2518,-0.0644,0.175,87,6880.979,133039,-1.1235,1.0663,-8.9373,-0.4033,-0.1332,-0.5275,60
4.249,82,1.3055,-6.9529,-16.2422,-0.428,-0.7624,0.8011,91,4.143,79,-0.5423,9.7172,-9.5005,-1.5747,-0.2793,0.1472,87,6881.031,133040,-1.989,1.3774,-9.8606,-0.421,-0.2492,-0.7091,60
4.301,83,1.0036,-6.4474,-16.1451,-0.3799,0.0586,0.3275,91,4.195,80,-1.7627,8.3517,-7.9127,-1.8293,-0.4252,0.096,87,6881.083,133041,-1.3189,-0.7419,-4.6333,-0.923,-0.3754,-0.7134,60
4.352,84,0.9428,-6.469,-16.4631,-0.227,0.2049,-0.0673,91,4.247,81,-2.1331,8.1784,-6.4514,-1.4927,-0.0351,-0.0777,87,6881.134,133042,-2.1247,-1.6909,-4.6297,-1.1026,-0.1056,-1.061,60
4.404,85,0.598,-6.3284,-16.6352,-0.2545,0.4125,-0.4067,91,4.298,82,-2.3217,8.5115,-4.5351,-1.5025,0.2213,-0.587,87,6881.186,133043,-0.4338,-4.1126,-9.772,-1.0749,0.1551,-1.2906,60
4.456,86,0.424,-7.1768,-17.2574,-0.0905,0.6294,-0.4017,91,4.35,83,-3.0974,8.6101,-4.0321,-1.7163,0.7152,-1.1109,87,6881.238,133044,-1.4108,-3.2683,-9.2192,-0.5378,0.0221,-0.6739,60
4.508,87,-0.5526,-8.0451,-17.6292,0.0711,0.6344,-0.2652,91,4.402,84,-3.6347,8.0928,-3.8354,-1.5606,1.0388,-1.4324,87,6881.29,133045,-2.6754,-2.83,-8.2072,-0.1223,-0.1005,-0.1481,60
4.559,88,-1.6703,-8.0727,-18.0042,0.3448,0.1945,0.0669,91,4.454,85,-3.6153,7.4475,-4.1341,-1.3977,1.1404,-1.5125,87,6881.341,133046,-3.4985,-2.8644,-7.5531,0.3523,-0.1892,0.4056,60
4.611,89,-2.1523,-8.769,-17.7771,0.5943,-0.3047,0.5908,91,4.506,86,-3.4705,6.7873,-3.9088,-1.2241,1.0742,-1.2892,87,6881.393,133047,-4.7187,-2.7104,-6.7024,0.8653,-0.4025,0.8112,60
4.663,90,-1.9687,-9.1315,-17.6322,0.6872,-0.705,1.1078,91,4.558,87,-3.2784,7.0218,-4.2498,-0.965,1.0047,-1.0673,87,6881.445,133048,-6.1642,-2.6644,-5.5325,1.2417,-0.4806,1.0311,60
4.715,91,-2.164,-9.0893,-17.5458,0.7459,-0.8718,1.4852,91,4.609,88,-3.3997,6.2487,-4.8016,-0.6913,0.8357,-0.7906,87,6881.497,133049,-7.4681,-2.969,-4.1877,1.4078,-0.3376,1.2151,60
4.767,92,-1.7812,-9.3192,-16.5417,1.183,-0.9499,1.7606,91,4.661,89,-3.4489,5.2404,-5.5971,-0.4534,0.477,-0.3373,87,6881.548,133050,-9.2519,-2.8173,-3.2748,1.135,-0.249,1.0253,60
4.818,93,-2.433,-8.7253,-14.2962,1.5377,-0.5823,1.9616,91,4.713,90,-2.9133,4.0274,-6.337,-0.164,-0.1029,0.4076,87,6881.6,133051,-10.582,-3.1091,-2.9674,0.7901,-0.0586,0.3099,60
4.87,94,-2.5748,-8.227,-13.4043,1.5086,-0.757,1.9603,91,4.765,91,-1.9213,3.0875,-6.1659,0.3183,-0.7478,0.9629,87,6881.652,133052,-10.9901,-2.6915,-2.8397,0.3895,0.1854,-0.4499,60
4.922,95,-3.0896,-6.0322,-12.7579,1.7425,-0.9101,1.5596,91,4.817,92,-0.3471,2.9991,-7.087,0.5741,-1.2184,1.3681,87,6881.704,133053,-10.3462,-2.303,-3.1363,0.0118,0.4576,-1.0044,60
4.974,96,-2.6133,-3.3797,-12.5384,1.802,-1.0044,0.6794,91,4.869,93,3.8712,4.7645,-7.6376,-0.261,-1.5619,1.6639,87,6881.755,133054,-9.2134,-2.3165,-3.3642,-0.2234,0.7361,-1.3825,60
5.026,97,-0.8106,-2.4623,-11.9242,0.6649,-1.023,-0.1792,91,4.92,94,7.7446,4.7656,-5.944,-0.4092,-1.8126,1.8798,87,6881.807,133055,-7.9394,-1.6964,-3.9891,-0.3117,0.8693,-1.3234,60
5.077,98,0.053,-3.5786,-11.3068,0.0449,-0.8319,-0.8059,91,4.972,95,9.3298,5.4219,-3.9959,0.0292,-1.236,1.8939,87,6881.859,133056,-7.2579,-1.6944,-4.9015,-0.3095,0.972,-0.8042,60
5.129,99,1.6815,-6.9051,-11.0719,0.5543,-1.1693,-1.2633,91,5.024,96,8.15,5.4571,-2.921,0.529,-0.6583,1.4994,87,6881.911,133057,-6.2833,-1.4379,-5.5613,-0.3624,0.9628,-0.2884,60
5.181,100,4.3854,-10.2374,-12.0042,1.0789,-1.5227,-1.5971,91,5.076,97,5.9649,5.1616,-2.2337,1.0578,0.1117,1.001,87,6881.962,133058,-4.1697,-1.8846,-6.582,-0.4669,0.865,-0.0509,60
5.233,101,8.2571,-2.0818,-6.1701,1.0001,-1.7712,-1.3622,91,5.127,98,3.4708,5.1225,-3.0432,1.4438,0.6389,0.0641,87,6882.014,133059,-1.0938,-1.2595,-7.776,-0.5157,0.4836,0.2575,60
5.284,102,6.5857,-6.7171,-5.6858,0.0526,-0.6103,-1.5187,91,5.179,99,3.8781,6.2141,-3.8337,1.7255,0.1545,-0.6396,87,6882.066,133060,1.9531,1.1168,-8.4283,-0.4057,-0.0708,0.8637,60
5.336,103,2.7893,-5.4204,-2.9332,-0.5102,-1.1147,-0.9734,91,5.231,100,5.5157,8.9046,-7.7568,1.9311,-0.0704,-1.1532,87,6882.118,133061,3.0933,2.4924,-7.8729,0.0423,-0.5468,1.306,60
5.388,104,4.9791,-5.1341,-2.984,-0.0331,-0.1312,-0.4286,91,5.283,101,3.8485,8.8453,-10.7739,0.7399,0.6277,-1.346,87,6882.17,133062,3.4336,2.9158,-8.0051,0.1328,-0.9693,1.6289,60
5.44,105,1.6226,-3.1826,-3.7894,-0.7016,-0.1026,-0.3045,91,5.335,102,7.728,11.7825,-8.0758,1.0022,-0.0605,-1.6653,87,6882.221,133063,2.4713,2.6161,-8.2678,0.2112,-1.3,1.8645,60
5.491,106,3.2998,-5.1693,-8.0641,-1.1894,-0.7442,-0.0772,91,5.386,103,1.5071,8.6549,-10.114,0.0514,0.6317,-1.3888,87,6882.273,133064,1.8129,2.4159,-8.4377,0.251,-1.536,2.0365,60
5.543,107,4.0419,-6.8306,-13.8468,-1.5455,-1.2125,-0.1365,91,5.438,104,1.9026,6.6308,-10.4194,-0.2335,-0.1834,-1.2328,87,6882.325,133065,6.6815,7.0943,-14.1838,0.1486,-1.6586,0.938,60
5.595,108,4.989,-6.0568,-17.4579,-1.8053,-1.5543,0.5634,91,5.49,105,1.414,7.1453,-10.447,-0.1031,0.0177,-0.7377,87,6882.377,133066,5.0792,5.4021,-12.5781,0.6857,-0.5804,0.1094,60
5.647,109,5.8204,-9.4623,-14.0663,-0.9998,-0.4895,1.0878,91,5.542,106,2.2097,7.7523,-10.5345,0.0799,-0.4982,-0.4734,87,6882.428,133067,3.88,4.1641,-11.5243,1.0719,0.2163,-0.5797,60
5.699,110,3.7338,-8.4837,-12.8427,-0.5089,-1.0266,1.0563,91,5.594,107,2.2831,9.7577,-10.7424,0.0074,-0.5196,-0.1588,87,6882.48,133068,2.9905,3.2684,-10.7619,1.3452,0.8035,-1.0967,60
5.75,111,3.8333,-7.2602,-13.2823,-0.1458,-1.3434,0.747,91,5.646,108,1.2277,9.3697,-10.4884,-0.3739,-0.5921,0.0194,87,6882.532,133069,2.3709,2.5749,-10.2249,1.5351,1.2378,-1.4765,60
5.802,112,4.0244,-5.9241,-13.2254,0.1999,-0.5983,0.3519,91,5.698,109,-1.2165,8.8157,-9.9093,-0.7199,-0.7224,-0.0026,87,6882.584,133070,2.5393,1.524,-11.0414,1.7943,1.5917,-1.7536,60
5.854,113,3.0376,-6.6835,-13.1233,-0.2938,0.159,0.1613,91,5.749,110,-2.0443,7.2972,-7.9241,-1.178,-1.1254,-0.1969,87,6882.635,133071,3.9022,-0.8418,-5.4951,1.2994,0.9567,-1.9559,60
5.906,114,2.6526,-7.5083,-14.4005,-0.1265,0.4474,0.1684,91,5.801,111,-2.7399,8.8229,-8.4049,-1.0811,-0.4708,-0.2822,87,6882.687,133072,0.1885,-0.4087,-7.9676,1.3386,0.5945,-2.1036,60
5.958,115,0.9036,-8.4864,-15.2206,0.1057,0.9212,0.2965,91,5.853,112,-0.7537,9.371,-7.3282,-0.979,-0.6538,-0.5204,87,6882.739,133073,-0.6937,-1.2483,-9.3689,0.9965,0.4813,-1.9143,60
6.009,116,-0.1191,-8.5752,-16.1619,0.7086,0.9435,0.3805,91,5.905,113,-0.4692,10.5078,-6.9579,-0.7751,-0.5051,-0.9049,87,6882.791,133074,-2.4541,-0.9583,-10.0195,0.704,0.4373,-1.3169,60
6.061,117,-0.6458,-8.4061,-16.0607,1.0742,0.6987,0.4082,91,5.957,114,-0.0393,10.206,-7.1764,-0.6278,-0.3853,-1.1635,87,6882.842,133075,-4.0219,-0.8506,-11.0536,0.5646,0.5816,-0.405,60
6.113,118,-1.7734,-10.1636,-14.9948,1.3723,0.7716,0.9123,91,6.008,115,1.106,9.8436,-7.4261,-0.5819,-0.5253,-1.0302,87,6882.894,133076,-5.4428,-1.0191,-11.8504,0.6824,0.7583,0.3801,60
6.165,119,-2.5107,-11.7752,-14.0586,1.6588,0.5502,1.3425,91,6.06,116,2.8589,7.8146,-7.4206,-0.6684,-0.8324,-0.2438,87,6882.946,133077,-6.9434,-0.1965,-12.6482,0.8796,0.9767,0.9531,60
6.217,120,-3.5077,-12.4414,-13.5446,1.8824,0.3389,1.6564,91,6.112,117,4.7407,5.9728,-7.4069,-0.6031,-0.6352,0.4874,87,6882.998,133078,-7.2633,0.4917,-13.3376,1.1347,1.2201,1.1978,60
6.268,121,-3.6165,-11.3606,-12.3391,2.0482,0.0437,1.8856,91,6.164,118,5.2306,4.5816,-9.2948,-0.4518,-0.5888,1.0211,87,6883.049,133079,-7.2143,0.809,-14.3275,1.0886,1.1748,1.0983,60
6.32,122,-3.9602,-9.278,-12.1855,2.1693,-0.6053,2.0528,91,6.216,119,7.8969,5.3277,-9.7161,-0.365,-1.1024,1.4106,87,6883.101,133080,-7.5335,1.4719,-14.8951,1.3939,0.8683,0.6855,60
6.372,123,-2.4911,-5.413,-13.2346,2.2576,-1.1111,1.7707,91,6.267,120,10.0335,4.6326,-11.0993,-0.9091,-1.4773,1.6949,87,6883.153,133081,-8.8319,0.6285,-15.5316,1.6912,0.626,0.114,60
6.424,124,-1.4459,-2.7983,-14.2021,1.9502,-1.4803,1.0787,91,6.319,121,12.2422,4.0455,-11.6064,-0.3145,-1.7508,1.9024,87,6883.205,133082,-9.3293,-0.6442,-16.1543,1.8393,0.6104,-0.2724,60
6.476,125,-1.1338,-2.4638,-13.8725,1.1255,-1.7497,0.1122,91,6.371,122,10.8482,-0.3335,-12.449,-0.9096,-1.1929,1.9921,87,6883.256,133083,-8.7511,-1.2729,-16.1633,1.7728,0.5592,-0.5615,60
6.527,126,0.287,-6.1376,-9.0022,1.4958,-1.9463,-0.5932,91,6.423,123,8.8915,-0.9883,-13.2731,0.0079,-1.5433,0.7675,87,6883.308,133084,-7.2678,-1.725,-15.6086,1.4699,0.589,-0.7804,60
6.579,127,5.266,-4.8404,-3.979,0.4419,-1.229,0.2074,91,6.475,124,11.2653,0.9578,-10.4467,0.1959,-0.9118,-0.0412,87,6883.36,133085,-6.9517,-0.8838,-14.2989,1.1546,1.0645,-0.9855,60
6.631,128,1.2783,-4.3785,-0.8395,0.9148,-0.2146,0.5025,91,6.527,125,9.4421,-0.7282,-8.9541,0.8147,0.0136,-0.6548,87,6883.412,133086,-3.5516,0.7382,-11.4013,0.9051,1.4613,-1.1153,60
6.683,129,1.0854,-4.294,-1.4877,0.5183,0.5258,0.6523,91,6.578,126,8.3448,2.2955,-8.9987,0.6335,0.689,-0.9374,87,6883.463,133087,-2.0987,1.633,-8.7907,0.521,1.6801,-1.0599,60
6.734,130,-0.0206,-3.6865,-3.7437,1.0149,1.0662,0.9686,91,6.63,127,8.1338,-1.8538,-9.7633,0.0045,1.182,-1.0856,87,6883.515,133088,-0.2902,2.8851,-7.9874,0.2543,1.8607,-0.7705,60
6.786,131,-1.1749,-2.0941,-5.0271,1.2052,0.8251,1.0135,91,6.682,128,4.7221,-0.1806,-9.6968,0.675,1.5417,-1.4787,87,6883.567,133089,-0.1621,2.0655,-8.5149,0.3283,1.7446,-0.3954,60
6.838,132,-1.6656,-1.7085,-6.2765,0.6691,-0.0455,0.4979,91,6.734,129,7.2389,1.8334,-9.5747,0.9538,0.5385,-1.7656,87,6883.619,133090,-0.0628,1.4678,-8.9178,0.385,1.6579,-0.1217,60
6.89,133,1.1762,-4.7232,-1.9897,-0.1568,-0.7025,0.7021,91,6.786,130,5.8258,0.5603,-9.7673,0.3506,0.1118,-1.2475,87,6883.671,133091,0.0232,0.9954,-9.25,0.4305,1.5921,0.0792,60
6.942,134,-0.4996,-4.3008,-3.9682,0.554,-0.6147,0.074,91,6.837,131,8.7027,1.0047,-10.9958,0.6272,-0.5911,-0.2672,87,6883.722,133092,-0.8403,0.9869,-8.7333,0.8046,0.6203,0.1323,60
6.993,135,1.5206,-1.7957,-0.305,0.9702,-0.8314,-0.6032,91,6.889,132,9.785,1.1261,-11.3491,0.3364,-0.9927,0.4574,87,6883.774,133093,-0.5544,0.7164,-8.8732,1.0854,-0.0896,0.1692,60
7.045,136,2.2535,-4.7287,-0.4395,0.0307,0.0756,-1.1153,91,6.941,133,9.8403,3.3094,-11.0241,0.0718,-0.597,0.3913,87,6883.826,133094,-0.3834,0.5378,-8.9413,1.2896,-0.6102,0.198,60
7.097,137,-1.2799,-3.5023,-2.7285,-0.6544,0.7375,-1.4891,91,6.993,134,9.026,4.4074,-10.3045,-0.333,-0.7619,-0.1817,87,6883.878,133095,-0.2476,0.4448,-8.9496,1.45,-0.9929,0.2188,60
7.149,138,-1.4908,-4.5635,-4.0782,-1.155,-0.1311,-1.7619,91,7.045,135,7.4024,5.9711,-9.2911,-0.9231,-0.1948,-0.3006,87,6883.929,133096,1.1912,2.8201,-6.7576,0.4808,-1.3466,0.8354,60
7.201,139,-0.5956,-6.2544,-3.5612,-1.2351,-0.7519,-1.9611,91,7.096,136,7.5147,6.7065,-9.9206,-1.3371,-0.2293,-0.7382,87,6883.981,133097,1.1886,2.751,-7.4832,-0.3269,-1.4207,1.2854,60
7.252,140,1.0204,-5.8664,-3.2332,-1.3108,-0.8081,-2.1064,91,7.148,137,8.1246,9.6474,-11.3276,-0.9675,-0.453,-1.2251,87,6884.033,133098,1.2588,2.2653,-7.7969,-0.9165,-1.4217,1.6138,60
7.304,141,5.7142,-9.4792,-4.1983,-1.312,-0.3413,-1.2782,91,7.2,138,8.5009,8.0053,-12.9951,-1.2673,-0.6362,-1.5805,87,6884.084,133099,0.6486,2.4026,-8.036,-1.3468,-1.2185,1.8535,60
7.356,142,0.3779,-7.3029,-6.5256,-0.2832,-0.5805,-0.407,91,7.252,139,9.5822,5.4293,-13.3987,-0.9853,-1.137,-1.6455,87,6884.136,133100,1.7934,2.1839,-7.511,-1.6608,-0.9984,2.0285,60
7.408,143,4.8147,-8.7489,-11.9028,0.0971,-0.0765,0.3433,91,7.304,140,11.0409,4.215,-12.8965,-1.393,-1.3301,-1.1532,87,6884.188,133101,2.6541,1.9946,-7.1247,-1.89,-0.7788,2.1562,60
7.46,144,-1.1148,-6.5044,-13.7392,0.7453,-0.3649,0.4532,91,7.356,141,9.978,1.5846,-10.9008,-0.886,-0.2917,-0.2632,87,6884.24,133102,7.0915,6.7868,-2.6365,-2.0259,-0.6572,2.2494,60
7.511,145,4.2428,-4.848,-15.2797,1.2183,-0.9356,0.3449,91,7.407,142,8.8507,5.903,-10.6489,-0.2002,-0.427,-0.1064,87,6884.292,133103,6.241,1.6256,-4.692,-2.1565,-0.6244,2.3174,60
7.563,146,6.0814,1.8517,-14.3315,0.3215,-0.0005,0.9284,91,7.459,143,7.5099,6.9293,-9.5136,0.5256,-0.4666,-0.4439,87,6884.343,133104,5.1265,0.7369,-4.6585,-2.2517,0.1142,2.367,60
7.615,147,6.874,-0.1765,-9.7147,-0.436,-0.6381,0.3384,91,7.511,144,7.9413,5.6206,-10.6522,1.0553,-0.5493,-0.8336,87,6884.395,133105,4.7844,0.4933,-4.0664,-2.3213,0.7167,2.4032,60
7.667,148,5.1607,-3.0725,-11.072,-0.5317,0.2167,0.1569,91,7.563,145,7.3104,6.186,-11.1423,1.442,-0.3195,-0.6637,87,6884.447,133106,4.5212,0.2861,-3.6419,-2.3721,1.1818,2.4297,60
7.719,149,2.9856,-0.4386,-10.6387,0.2476,-0.4811,-0.1988,91,7.615,146,5.8051,5.7943,-13.5685,1.7241,0.0345,-0.4171,87,6884.499,133107,4.366,0.6847,-4.5702,-2.4091,1.5105,2.449,60
7.77,150,4.0522,-2.9623,-12.3764,-0.4967,-0.3724,0.0928,91,7.667,147,6.5351,5.6528,-13.5604,1.524,-0.2514,0.3603,87,6884.55,133108,3.1198,5.8308,-11.3611,-2.4361,0.8778,1.3279,60
7.822,151,7.9181,-7.3598,-16.6006,-1.0399,0.2575,0.7444,91,7.718,148,5.4186,6.7286,-14.2704,1.192,-0.1312,0.6258,87,6884.602,133109,2.5854,9.4621,-11.0822,-1.7506,-0.0224,0.4808,60
7.874,152,4.5611,-6.0588,-10.9865,-0.7112,-0.1645,0.2887,91,7.77,149,7.93,0.7664,-12.7522,0.2382,-0.5523,0.8343,87,6884.654,133110,1.3432,9.085,-11.102,-0.7876,0.1372,-0.1536,60
7.926,153,5.22,-3.0283,-12.1017,-0.8377,0.4903,-0.4644,91,7.822,150,7.104,3.0624,-13.4414,-0.0064,-0.4058,0.8368,87,6884.706,133111,0.5408,7.1248,-11.9108,-0.2371,0.4262,-0.3359,60
7.977,154,6.2721,-6.4879,-16.2823,-1.2879,-0.0849,-1.014,91,7.874,151,7.6056,3.5103,-13.1557,-0.0668,-0.0729,0.5233,87,6884.757,133112,-4.0741,-0.0579,-7.9742,-0.1321,0.7633,-0.645,60
8.029,155,8.8062,-2.1773,-9.2924,-1.2794,-0.0745,-0.8726,91,7.926,152,7.8867,5.4113,-12.9041,0.3465,0.0624,-0.0704,87,6884.809,133113,1.6338,-5.3001,-4.2755,-0.2311,0.9209,-0.369,60
8.081,156,10.0295,-6.6586,-11.4768,-0.822,-0.5477,-0.7665,91,7.977,153,7.5586,6.3344,-12.8719,0.053,0.1874,-0.3377,87,6884.861,133114,1.7994,-4.964,-5.8976,0.1642,0.9226,0.0898,60
8.133,157,8.333,-6.8052,-12.3793,-0.2823,-0.4974,-0.5716,91,8.029,154,6.5059,7.03,-13.4513,-0.1337,0.4582,-0.3905,87,6884.913,133115,1.2368,-5.5635,-5.6914,0.7937,1.002,0.5214,60
8.185,158,8.7387,-6.2104,-12.1505,-0.6694,-0.5384,-0.1227,91,8.081,155,5.8269,6.8531,-12.9154,-0.669,0.542,-0.3058,87,6884.964,133116,2.7016,-6.7103,-4.7425,1.2531,0.7842,1.0562,60
8.236,159,8.5897,-7.3666,-12.8778,-0.6282,-0.508,0.3806,91,8.133,156,5.0296,6.5143,-12.0853,-1.0953,0.7107,-0.1926,87,6885.016,133117,2.4416,-10.0432,-3.8626,0.9659,0.85,1.4466,60
8.288,160,8.4234,-7.3522,-12.8927,-0.6658,-0.5729,0.7779,91,8.185,157,3.7688,6.6173,-11.6154,-1.2119,0.7224,-0.2088,87,6885.068,133118,-0.3108,-9.4907,-1.7742,0.3667,0.6707,1.3445,60
8.34,161,7.5348,-7.3149,-12.9202,-0.6099,-0.6849,0.9705,91,8.236,158,2.6917,6.9511,-10.8025,-1.2876,0.8245,-0.4908,87,6885.12,133119,-2.2429,-8.7149,-1.347,-0.1043,0.4416,0.7845,60
8.392,162,6.3204,-7.0224,-12.4571,-0.5553,-0.7266,1.059,91,8.288,159,1.9868,7.2335,-10.0589,-1.4635,0.9681,-0.8121,87,6885.172,133120,-3.1484,-8.6546,0.2487,-0.2706,0.4754,0.7257,60
8.443,163,5.0273,-7.5342,-12.5655,-0.6413,-0.7751,0.9918,91,8.34,160,1.8973,6.4401,-8.9361,-1.554,0.9914,-1.2729,87,6885.223,133121,-3.8037,-8.2001,-0.4576,-0.3367,0.4797,1.0133,60
8.495,164,3.9158,-7.4088,-12.1518,-0.3128,-1.0713,0.882,91,8.392,161,0.8377,7.4478,-8.0644,-0.952,1.086,-1.6154,87,6885.275,133122,-4.482,-7.7487,-1.2576,0.1151,0.5293,1.3827,60
8.547,165,2.8326,-8.2687,-12.523,-0.4541,-0.9878,0.9681,91,8.444,162,0.6909,7.006,-6.8192,-1.1359,1.1699,-1.8654,87,6885.327,133123,-5.32,-8.2836,-1.6093,0.5746,0.5849,1.6406,60
8.599,166,0.985,-8.5329,-13.127,-0.4956,-0.8184,1.3832,91,8.495,163,-0.1682,8.1762,-6.7014,-1.235,1.5329,-2.0478,87,6885.378,133124,-5.1754,-6.742,-1.9454,0.8479,0.6978,1.6505,60
8.651,167,0.1262,-9.3778,-14.0224,-0.3173,-0.9371,1.6862,91,8.547,164,0.1831,6.7714,-6.3212,-1.1412,1.3406,-2.181,87,6885.43,133125,-5.2507,-5.8886,-1.9778,0.9705,0.8411,1.49,60
8.703,168,-0.0457,-9.6585,-13.8692,0.0389,-1.2482,1.9073,91,8.599,165,-0.9437,6.1309,-6.5067,-1.1458,1.1443,-2.0067,87,6885.482,133126,-5.1178,-4.1663,-2.1313,0.9917,0.9701,1.337,60
8.754,169,-0.5998,-8.8113,-13.6374,0.5567,-1.3923,2.0687,91,8.651,166,-1.8421,6.1354,-7.0782,-0.8526,1.2319,-1.7451,87,6885.534,133127,-5.0535,-2.9829,-2.1133,0.9713,0.9964,1.1024,60
8.806,170,-1.7663,-8.3495,-13.6065,0.5473,-1.2547,2.1864,91,8.703,167,-2.4602,5.6567,-6.8397,-0.5707,1.0501,-1.3749,87,6885.585,133128,-5.1687,-1.2796,-2.6346,1.0304,0.8787,1.1886,60
8.858,171,-2.2189,-7.8008,-12.7582,0.7286,-1.2995,2.2724,91,8.754,168,-3.3878,5.8041,-6.5537,-0.3525,0.8823,-0.9177,87,6885.637,133129,-5.3543,0.8347,-1.6186,1.2916,0.6859,1.5429,60
8.91,172,-2.6356,-6.997,-11.9948,0.6942,-1.1509,2.1407,91,8.806,169,-4.1089,6.0906,-6.2082,-0.256,0.6827,-0.4934,87,6885.689,133130,-6.1868,1.481,-2.1814,1.5982,0.357,1.8018,60
8.962,173,-3.1757,-6.2231,-11.5414,0.6249,-1.0092,1.8107,91,8.858,170,-4.5771,6.3729,-5.8061,-0.156,0.5359,-0.125,87,6885.741,133131,-7.4016,1.862,-2.0437,1.8403,0.1372,1.9907,60
9.013,174,-3.7431,-5.4607,-11.2589,0.4276,-0.8203,1.3707,91,8.91,171,-4.9936,6.595,-5.699,-0.2199,0.4341,0.1555,87,6885.792,133132,-7.3571,1.9323,-2.6964,2.017,0.1346,2.1138,60
9.065,175,-4.5347,-4.9988,-11.1619,0.2175,-0.5981,0.9289,91,8.962,172,-5.0245,6.5615,-5.2782,-0.2643,0.2737,0.3678,87,6885.844,133133,-6.8686,2.2112,-3.5532,2.1338,0.1802,2.2048,60
9.117,176,-5.4926,-4.7701,-11.3044,0.0223,-0.4422,0.5831,91,9.013,173,-5.2518,6.4504,-5.031,-0.214,0.2153,0.5599,87,6885.896,133134,-5.6602,2.0132,-4.5431,2.1333,0.1822,2.2764,60
9.169,177,-5.9536,-4.6032,-11.3154,-0.187,-0.4081,0.261,91,9.065,174,-5.0095,6.6478,-5.0196,-0.2117,0.3068,0.7536,87,6885.948,133135,-4.6968,1.6325,-5.308,1.7303,0.0858,1.9988,60
9.22,178,-6.4904,-4.7608,-11.5205,-0.4752,-0.2912,-0.11,91,9.117,175,-4.5041,7.0975,-5.1671,-0.2444,0.3605,0.9774,87,6886.0,133136,-3.9954,2.4623,-6.1883,1.2195,0.0257,1.6418,60
9.272,179,-6.8094,-5.0475,-11.9039,-0.5885,-0.1331,-0.3953,91,9.169,176,-4.0845,7.4869,-5.3871,-0.2262,0.5069,1.3265,87,6886.051,133137,-3.5805,3.2137,-6.7398,0.841,0.046,1.3158,60
9.324,180,-7.1451,-5.3807,-12.2451,-0.6878,-0.2082,-0.6698,91,9.221,177,-3.7695,7.8878,-5.6343,-0.1308,0.7735,1.6332,87,6886.103,133138,-3.6496,4.1066,-7.0316,0.402,0.0936,0.912,60
9.376,181,-7.4791,-5.6002,-12.3928,-0.7073,-0.4052,-1.0119,91,9.272,178,-3.9077,8.0487,-6.0489,-0.0106,1.051,1.8571,87,6886.155,133139,-3.9472,5.2406,-7.1528,0.0561,0.1615,0.5729,60
