right_hand_timestamp,right_hand_index,right_hand_accel_x,right_hand_accel_y,right_hand_accel_z,right_hand_gyro_x,right_hand_gyro_y,right_hand_gyro_z,right_hand_battery_percentage,left_hand_timestamp,left_hand_index,left_hand_accel_x,left_hand_accel_y,left_hand_accel_z,left_hand_gyro_x,left_hand_gyro_y,left_hand_gyro_z,left_hand_battery_percentage,ball_timestamp,ball_index,ball_accel_x,ball_accel_y,ball_accel_z,ball_gyro_x,ball_gyro_y,ball_gyro_z,ball_battery_percentage
0.815,15,1.0103,8.091,-15.253,0.3627,0.2112,-0.0301,93,0.426,8,1.2905,-8.4803,-13.4511,0.2115,-0.3242,-0.1819,91,4719.435,91247,8.4527,4.1088,-6.7119,0.2087,0.1508,0.1739,61
0.867,16,0.9688,8.3286,-15.0079,0.2772,0.1931,-0.0552,93,0.478,9,1.2603,-8.434,-13.3332,0.2391,-0.2645,-0.1375,91,4719.487,91248,8.8015,3.9956,-6.7635,0.2172,0.1909,0.1143,61
0.919,17,1.0351,8.3357,-15.0558,0.0662,0.2554,-0.1676,93,0.53,10,1.2224,-8.4431,-13.3479,0.232,-0.2102,-0.1265,91,4719.539,91249,9.0011,3.8721,-6.7339,0.2437,0.1419,0.0773,61
0.971,18,1.0341,8.4634,-15.015,-0.0605,0.2137,-0.2511,93,0.582,11,1.1431,-8.5782,-13.4098,0.1702,-0.1787,-0.1244,91,4719.59,91250,9.0335,3.9125,-6.7115,0.2597,-0.0354,0.1052,61
1.022,19,1.3797,8.0429,-14.8607,-0.103,0.0967,-0.3197,93,0.634,12,1.2455,-8.7456,-13.6496,-0.0108,-0.1502,-0.0568,91,4719.642,91251,8.6743,4.0392,-6.7999,0.2709,-0.184,0.1493,61
1.074,20,1.6551,7.3749,-15.3287,-0.3003,-0.2007,-0.0596,93,0.685,13,0.2104,-8.0965,-14.3574,-0.6224,-0.0047,-0.2178,91,4719.694,91252,8.2468,4.2713,-7.1556,0.3117,-0.1706,0.1515,61
1.126,21,1.4713,7.8745,-14.6393,-0.278,-0.1925,0.0704,93,0.737,14,0.3197,-8.1935,-14.2822,-0.633,0.0509,-0.1156,91,4719.746,91253,8.3611,4.0159,-7.3171,0.3514,-0.0728,0.1287,61
1.177,22,1.4784,7.7226,-14.1929,-0.172,-0.0443,0.1189,93,0.789,15,0.6857,-7.4475,-14.1684,-0.676,0.1582,0.0346,91,4719.797,91254,8.5769,3.9022,-7.3788,0.2769,-0.0289,0.1591,61
1.229,23,0.956,7.6499,-13.8208,-0.1758,-0.0588,0.2782,93,0.841,16,0.7812,-7.0295,-13.9579,-0.6161,0.521,0.1135,91,4719.849,91255,8.9646,3.8609,-7.4808,0.1979,-0.0376,0.2092,61
1.281,24,0.5398,7.4236,-14.1361,-0.1808,-0.219,0.4589,93,0.893,17,0.6463,-7.2145,-13.6815,-0.7561,0.7562,0.2245,91,4719.901,91256,9.0277,3.9411,-7.539,0.202,-0.0671,0.2256,61
1.333,25,-0.1587,5.4599,-13.8508,-0.631,-0.459,1.0015,93,0.944,18,2.5267,-5.2071,-14.386,-0.7163,0.8736,0.1099,91,4719.953,91257,8.9144,3.8154,-7.7503,0.2129,-0.0963,0.1978,61
1.385,26,-0.5655,3.3697,-13.4152,-0.3574,-0.4304,1.4076,93,0.996,19,1.9292,-4.832,-14.2328,-0.7382,0.9439,0.2722,91,4720.004,91258,8.7719,3.7051,-7.9286,0.1844,-0.0618,0.1582,61
1.436,27,0.8411,2.6263,-13.8393,0.4135,-0.6538,1.704,93,1.048,20,1.0547,-3.673,-13.7059,-0.8007,1.1835,-0.0432,91,4720.056,91259,8.6655,3.2904,-8.058,0.049,0.0437,0.1349,61
1.488,28,3.1319,4.9191,-15.2087,0.9109,0.0898,1.4259,93,1.1,21,0.3959,-2.397,-13.5412,-1.1681,1.5364,-0.3057,91,4720.108,91260,8.4767,3.167,-8.3099,-0.14,0.1984,0.0826,61
1.54,29,3.9041,5.1144,-15.4934,-0.0125,-0.0721,1.711,93,1.152,22,4.2687,-3.1851,-15.6009,-1.5325,1.0723,-0.9095,91,4720.16,91261,9.5441,2.9841,-7.9356,-0.3492,0.1608,-0.0432,61
1.592,30,5.1797,5.4545,-16.0644,-0.6865,0.0786,1.4238,93,1.204,23,5.7239,-5.5312,-16.9702,-0.5178,1.0837,-0.7263,91,4720.211,91262,9.213,2.675,-7.7954,-0.5328,-0.0649,-0.1228,61
1.644,31,6.4637,6.1954,-16.1341,-1.1784,0.0983,1.0658,93,1.255,24,7.056,-4.517,-16.2668,0.2938,0.5965,-1.2165,91,4720.263,91263,8.6049,2.3336,-7.521,-0.6091,-0.25,-0.1636,61
1.695,32,8.1581,8.7786,-15.0225,-1.5374,0.3251,0.2702,93,1.307,25,7.9104,-4.8162,-16.4742,-0.2405,0.7517,-0.2604,91,4720.315,91264,8.1685,2.5469,-7.3795,-0.7128,-0.4086,-0.1688,61
1.747,33,9.745,9.8524,-13.8017,-1.7995,0.6024,-0.4774,93,1.359,26,7.9609,-6.5281,-16.7396,0.116,0.4984,0.3259,91,4720.367,91265,7.4019,2.7681,-7.6087,-0.8212,-0.4539,-0.0295,61
1.799,34,9.5238,10.206,-13.9987,-1.9907,0.4375,-1.0235,93,1.411,27,8.1709,-7.5611,-16.7289,0.7564,0.1614,0.7192,91,4720.419,91266,6.0321,2.6196,-8.0667,-0.9215,-0.4379,0.1764,61
1.851,35,7.6294,10.426,-13.0621,-2.1303,0.3309,-1.4221,93,1.463,28,8.4306,-10.3605,-16.5742,1.2238,-0.1828,1.1903,91,4720.47,91267,3.3571,1.8411,-8.8199,-1.0813,-0.2051,0.4756,61
1.902,36,0.0359,12.9993,-11.5515,-1.4606,0.0668,-0.4406,93,1.514,29,7.1316,-10.5286,-15.2551,1.5649,-0.3073,1.5341,91,4720.522,91268,1.8185,1.3692,-8.9979,-1.2503,0.1881,0.8615,61
1.954,37,-1.3236,14.4184,-11.2576,-0.4016,0.1475,0.0456,93,1.566,30,4.8444,-10.3659,-14.3409,1.45,-0.2717,1.7833,91,4720.574,91269,1.521,0.9772,-9.0682,-1.3688,0.5154,1.1492,61
2.006,38,-6.0108,15.8478,-11.9698,-0.6502,-0.4858,0.4642,93,1.618,31,2.7427,-9.7426,-13.3552,0.5754,0.1696,1.9669,91,4720.626,91270,1.3222,0.6794,-9.1156,-1.4525,0.7607,1.3587,61
2.058,39,-2.4135,14.8345,-10.6752,-0.0677,-0.2388,-0.0391,93,1.67,32,2.1128,-8.9521,-12.8079,0.1698,0.4806,1.9246,91,4720.677,91271,1.2482,0.4184,-9.0999,-1.5102,0.946,1.5124,61
2.11,40,-1.4936,13.4958,-9.6645,0.4622,0.044,-0.167,93,1.722,33,1.8707,-6.5432,-11.4829,-0.5561,0.8838,1.9383,91,4720.729,91272,1.1179,0.1401,-9.307,-1.1398,1.2662,1.7792,61
2.161,41,-0.9882,12.0072,-10.0512,0.7309,0.2168,-0.2257,93,1.773,34,6.2846,-7.3163,-10.5812,0.2658,-0.0042,1.3584,91,4720.781,91273,0.8908,-0.0572,-9.2891,-0.8638,1.5242,1.9742,61
2.213,42,-0.1795,10.9438,-10.0642,0.8649,0.2569,-0.2681,93,1.825,35,7.7249,-8.546,-11.3546,0.6682,-0.5597,1.0824,91,4720.832,91274,0.7243,-0.202,-9.291,-0.6524,1.7156,2.1166,61
2.265,43,0.4806,10.0917,-10.296,0.7204,0.2572,-0.1994,93,1.877,36,5.4564,-8.1712,-11.8274,0.1784,-0.4248,0.563,91,4720.884,91275,0.5885,-0.3118,-9.2884,-0.4896,1.8574,2.2205,61
2.317,44,1.0475,9.9675,-10.491,0.6491,0.2659,-0.1632,93,1.929,37,3.7587,-8.2864,-12.2575,0.1175,-0.3806,0.4334,91,4720.936,91276,0.4832,-0.3948,-9.2708,-0.361,1.9639,2.2963,61
2.369,45,1.2345,9.9493,-10.9918,0.656,0.3225,-0.1462,93,1.981,38,2.5484,-8.2584,-12.592,0.0606,-0.3729,0.3361,91,4720.988,91277,1.9979,-2.9719,-5.9954,-0.2572,2.0215,2.3516,61
2.42,46,1.4216,9.7859,-11.6798,0.6745,0.3633,-0.1148,93,2.033,39,1.6914,-8.2203,-12.9319,0.0964,-0.4575,0.1658,91,4721.039,91278,0.9062,-3.0267,-6.6288,-0.7967,1.7604,1.8406,61
2.472,47,1.1165,9.8247,-11.9107,0.7996,0.4292,-0.1221,93,2.084,40,1.155,-8.5112,-13.3489,0.016,-0.5288,0.0566,91,4721.091,91279,-2.413,-2.7203,-5.7273,-1.2594,1.5898,0.67,61
2.524,48,0.6082,9.5983,-12.204,0.8015,0.4804,-0.0747,93,2.136,41,0.3577,-8.6057,-13.6538,-0.1697,-0.4581,0.0573,91,4721.143,91280,-2.3274,-3.6919,-4.4825,-1.2262,1.6166,-0.187,61
2.576,49,-0.1228,8.7163,-12.5302,1.1962,0.4987,-0.0007,93,2.188,42,-0.5436,-8.4672,-13.6266,-0.266,-0.3774,0.0327,91,4721.195,91281,-1.9907,-5.4392,-5.269,-0.8872,1.2837,-0.7623,61
2.627,50,-0.2341,6.7211,-13.1234,0.9321,0.4554,0.1385,93,2.24,43,-2.0498,-9.0046,-14.3751,-0.5512,-0.1744,-0.1064,91,4721.246,91282,-0.5623,-6.6451,-6.1136,-0.621,0.8154,-0.704,61
2.679,51,-0.8442,5.8027,-13.3963,1.3384,0.387,0.3636,93,2.292,44,-2.5652,-8.3235,-14.2992,-0.7654,-0.1249,-0.064,91,4721.298,91283,-0.0979,-6.9756,-6.2389,-0.51,0.3456,-0.4255,61
2.731,52,-1.0883,4.3641,-13.1989,1.6512,0.5436,0.6723,93,2.343,45,-2.6631,-7.3506,-14.3077,-0.6635,-0.064,-0.0592,91,4721.35,91284,-0.2783,-7.1488,-6.4311,-0.4271,0.0359,-0.1522,61
2.783,53,-0.845,3.5251,-12.8462,1.8795,0.8706,0.9377,93,2.395,46,-2.634,-5.734,-13.921,-0.5197,0.192,-0.3058,91,4721.402,91285,-0.4382,-7.3888,-6.4238,-0.3221,-0.0665,-0.0428,61
2.835,54,-0.1069,2.6771,-14.7144,2.0461,1.1527,0.945,93,2.447,47,-2.4111,-4.4328,-13.4243,-0.495,0.5117,-0.7091,91,4721.453,91286,-0.3099,-7.4395,-6.398,-0.1241,-0.1279,0.0427,61
2.886,55,1.0416,2.9401,-15.595,2.1677,1.5141,0.2941,93,2.499,48,-1.6477,-3.2932,-13.2886,-0.9493,0.9289,-1.2039,91,4721.505,91287,-0.2113,-8.067,-6.1275,0.1005,-0.1325,0.1506,61
2.938,56,3.011,3.5655,-17.2138,0.9047,1.4473,0.166,93,2.551,49,-0.3951,-4.5226,-13.8335,-1.3729,1.357,-1.5633,91,4721.557,91288,-0.0974,-8.1876,-5.872,0.2876,-0.1028,0.1834,61
2.99,57,4.4555,2.9901,-18.6032,-0.0171,1.1577,0.4818,93,2.602,50,1.4358,-6.7278,-15.381,-1.141,1.6226,-1.5374,91,4721.609,91289,0.1761,-8.0256,-5.3675,0.4476,-0.0234,0.0895,61
3.042,58,5.7353,3.2001,-17.8786,-0.6896,1.1519,0.4827,93,2.654,51,2.6274,-7.3986,-16.3678,-0.161,0.9496,-1.5364,91,4721.661,91290,0.5164,-7.1905,-4.96,0.6298,0.1431,0.0261,61
3.094,59,7.3156,4.3866,-16.7611,-1.1286,1.3171,0.2213,93,2.706,52,4.3404,-6.5674,-16.1886,0.2107,0.6115,-1.2023,91,4721.712,91291,1.2737,-6.7249,-4.0509,0.8057,0.2363,0.0182,61
3.145,60,8.2363,5.1345,-15.4459,-0.9404,1.4157,-0.1995,93,2.758,53,4.6438,-7.6095,-15.6757,0.1847,0.6872,-0.4832,91,4721.764,91292,1.1428,-5.6107,-4.3856,0.704,0.269,0.0712,61
3.197,61,9.2221,6.9264,-14.367,-1.3637,1.2516,-0.8207,93,2.81,54,5.2338,-6.8483,-15.5398,-0.2467,0.8774,-0.1911,91,4721.816,91293,0.871,-4.0823,-5.3442,0.4158,0.3769,0.2085,61
3.249,62,9.568,8.2092,-14.0746,-1.6727,1.0152,-1.2741,93,2.862,55,5.7895,-7.7696,-15.4657,-0.2656,0.9146,0.1307,91,4721.867,91294,0.7587,-2.8049,-6.6364,0.016,0.6239,0.382,61
3.301,63,8.4498,9.1499,-13.2596,-1.8982,0.6363,-1.605,93,2.914,56,6.6125,-10.3657,-15.6137,0.4713,0.6661,0.7608,91,4721.92,91295,1.0204,-2.1368,-7.7826,-0.3552,0.8194,0.4898,61
3.353,64,5.8936,4.2031,-12.9772,-1.3021,-0.2007,-0.5366,93,2.965,57,7.3595,-11.7316,-16.1798,1.0157,-0.1865,1.2206,91,4721.971,91296,0.8071,-1.6119,-8.2196,-0.643,0.8241,0.5394,61
3.404,65,3.8684,6.5924,-11.0236,-1.2531,-0.2873,-0.2929,93,3.017,58,6.0787,-10.8929,-15.894,1.4131,-0.8088,1.5563,91,4722.023,91297,0.6362,-1.2459,-8.5441,-0.8515,0.8282,0.5769,61
3.456,66,3.6314,8.2215,-10.1113,-0.5898,-0.3593,-0.3542,93,3.069,59,3.8135,-6.315,-13.9215,0.3513,-0.6318,0.4494,91,4722.075,91298,0.5174,-1.007,-8.7885,-1.0014,0.8326,0.6059,61
3.508,67,3.6252,9.3896,-8.8108,-0.3103,-0.3646,-0.5292,93,3.121,60,2.8389,-7.6216,-12.5744,0.9137,-0.3071,0.219,91,4722.126,91299,-0.4992,3.9974,-3.8509,-0.5787,0.5145,0.6872,61
3.56,68,3.6316,9.2366,-8.5986,-0.1976,-0.3936,-0.5074,93,3.173,61,3.8219,-5.9745,-13.6568,-0.0132,-0.1403,-0.2222,91,4722.178,91300,-0.316,2.8809,-5.5513,-0.4639,0.4584,0.6619,61
3.612,69,3.6806,8.7869,-8.3532,0.025,-0.1598,-0.6501,93,3.224,62,3.8801,-7.4712,-13.0004,-0.0019,-0.3588,-0.0318,91,4722.23,91301,-0.2188,2.0707,-6.6658,-0.3804,0.4206,0.6504,61
3.663,70,3.5005,8.8981,-8.6407,0.1052,0.076,-0.7639,93,3.276,63,3.5876,-7.653,-12.3332,-0.0559,-0.2623,0.3382,91,4722.282,91302,-0.1323,1.4865,-7.5111,-0.3184,0.3933,0.6419,61
3.715,71,3.0696,9.1951,-8.8448,0.3165,0.0292,-0.5814,93,3.328,64,3.0394,-7.6248,-11.9676,-0.0806,-0.2823,0.3159,91,4722.333,91303,-0.0766,1.052,-8.1309,-0.2718,0.3733,0.6363,61
3.767,72,2.864,9.7822,-8.6802,0.2659,-0.0724,-0.4743,93,3.38,65,2.5911,-7.8033,-11.9478,-0.1695,-0.274,0.1878,91,4722.385,91304,-0.0379,0.7235,-8.5766,-0.237,0.3585,0.6323,61
3.819,73,2.8889,9.5088,-8.1429,0.1709,-0.1553,-0.1858,93,3.432,66,2.3207,-8.0805,-12.1162,-0.4606,-0.2513,0.006,91,4722.437,91305,-4.0228,-0.4383,-4.0117,-0.1103,0.2145,0.2688,61
3.87,74,2.4744,10.0385,-8.392,0.4997,-0.1416,-0.0576,93,3.483,67,1.96,-8.7146,-11.784,-0.5601,0.0053,0.108,91,4722.489,91306,-4.6996,-4.319,-5.4253,-0.0241,0.1562,-0.0842,61
3.922,75,1.7163,9.703,-8.8569,0.8145,-0.2907,0.0605,93,3.535,68,1.7694,-8.333,-11.6791,-0.2923,0.4892,-0.2785,91,4722.54,91307,-4.203,-5.0108,-6.2661,0.2193,-0.0299,-0.3706,61
3.974,76,0.7575,8.9267,-9.1625,0.4985,-0.2438,0.1722,93,3.587,69,1.3588,-8.9839,-11.8468,-0.2477,0.6712,-0.451,91,4722.592,91308,-4.8958,-7.1385,-5.8918,0.6375,-0.1708,-0.5219,61
4.026,77,0.0905,8.94,-9.7634,0.2517,-0.1722,0.2781,93,3.639,70,1.1205,-8.8671,-12.2771,-0.0658,0.6835,-0.5711,91,4722.644,91309,-4.3647,-8.1708,-6.0484,0.7853,-0.2371,-0.388,61
4.078,78,-0.3258,7.4611,-10.8638,0.1265,-0.2172,0.566,93,3.691,71,0.5307,-8.0629,-12.2923,0.0074,0.6049,-0.5026,91,4722.696,91310,-4.1698,-8.1647,-6.4013,0.711,-0.2988,-0.2318,61
4.129,79,-0.6109,6.0891,-11.4262,0.3075,-0.2715,0.8372,93,3.742,72,-0.0999,-6.2641,-13.144,-0.0162,0.5632,-0.5165,91,4722.748,91311,-3.9378,-7.9114,-6.5919,0.5654,-0.2756,-0.1727,61
4.181,80,-0.2803,4.4988,-11.816,0.3673,-0.3603,1.2804,93,3.794,73,-0.4331,-4.4814,-13.547,-0.6789,0.3282,-0.7255,91,4722.799,91312,-3.6553,-7.7557,-6.6694,0.4292,-0.1944,-0.0666,61
4.233,81,1.2626,5.6007,-10.8056,0.7426,-0.5778,1.6111,93,3.846,74,-0.0522,-3.2527,-13.8686,-1.1755,-0.0973,-1.2159,91,4722.851,91313,-3.6355,-7.626,-6.758,0.3884,-0.0703,0.2298,61
4.285,82,4.0167,7.0357,-10.7685,0.3669,-0.3589,1.8525,93,3.898,75,-0.0537,-4.4789,-13.7359,-1.538,0.6081,-0.3514,91,4722.903,91314,-3.552,-8.3334,-6.3925,0.4316,-0.0251,0.2122,61
4.337,83,5.4433,7.5732,-11.2949,0.8053,-0.2219,1.7821,93,3.95,76,1.8371,-4.4715,-14.3471,-1.2131,0.8508,-0.9428,91,4722.955,91315,-4.0882,-8.6936,-5.7815,0.3659,-0.1066,-0.0851,61
4.388,84,5.6634,8.5244,-11.9285,1.1673,-0.1768,1.2619,93,4.002,77,3.5371,-5.675,-15.2562,-0.2485,0.6933,-1.1383,91,4723.006,91316,-3.9785,-8.5489,-4.8817,0.1879,-0.0142,-0.3444,61
4.44,85,5.9079,8.3591,-12.4198,1.0664,-0.2219,0.5865,93,4.053,78,4.4111,-5.1759,-15.0469,0.3713,0.5149,-0.9219,91,4723.058,91317,-3.6608,-7.9113,-4.5661,-0.0281,0.2113,-0.3482,61
4.492,86,6.3526,7.8458,-12.5059,0.8941,-0.0591,0.039,93,4.105,79,4.3582,-4.5007,-14.7971,-0.1012,0.4713,-0.3337,91,4723.11,91318,-2.8172,-6.6379,-4.7171,-0.2036,0.4739,-0.2718,61
4.543,87,8.049,7.3382,-12.211,0.2972,0.5287,-0.1079,93,4.157,80,4.542,-4.9589,-14.6837,-0.3586,0.5506,0.3128,91,4723.161,91319,-1.5806,-5.4305,-5.4053,-0.3599,0.5826,-0.1589,61
4.595,88,9.928,9.1178,-11.2735,-0.3582,1.0682,-0.7538,93,4.209,81,5.8508,-5.8715,-14.9075,0.3348,0.5646,0.6432,91,4723.213,91320,-0.6972,-4.0403,-6.3316,-0.5694,0.5236,-0.0966,61
4.647,89,10.3387,10.0103,-10.2476,-0.8863,1.3276,-1.2253,93,4.261,82,7.5654,-9.2033,-15.5083,0.9161,0.2123,1.1348,91,4723.265,91321,-0.4836,-2.7471,-7.534,-0.8555,0.3768,-0.0997,61
4.699,90,5.8817,5.7414,-15.4252,-1.3054,0.8265,-0.8844,93,4.312,83,8.5707,-10.829,-14.6418,1.3403,0.0133,1.4936,91,4723.317,91322,-0.3419,-2.0438,-8.0634,-1.0674,0.2893,-0.0855,61
4.751,91,8.2202,7.5419,-12.7645,-1.5702,0.5378,-1.0313,93,4.364,84,8.0435,-10.7054,-13.8411,1.6499,-0.0115,1.7555,91,4723.369,91323,-0.2446,-1.5228,-8.4551,-1.2207,0.2246,-0.0743,61
4.803,92,6.4939,7.6836,-11.24,-0.4986,0.7705,-0.7494,93,4.416,85,0.6916,-13.0741,-7.454,1.2,-0.6155,0.7581,91,4723.42,91324,-0.152,-1.158,-8.7726,-1.3315,0.1763,-0.0648,61
4.855,93,5.2766,7.5567,-10.4029,0.0246,0.7062,-0.3085,93,4.468,86,5.1648,-10.7162,-9.1762,0.1958,-0.0493,1.2048,91,4723.472,91325,-0.1269,-0.9268,-8.9735,-1.4095,0.14,-0.0563,61
4.906,94,4.1112,7.8145,-10.0102,0.0541,0.7624,-0.0581,93,4.52,87,5.193,-8.6946,-10.2713,-0.5018,0.5396,0.845,91,4723.524,91326,5.2658,-5.0952,-14.5084,-0.8394,0.0412,0.0172,61
4.958,95,4.0643,5.2561,-10.5542,0.5961,0.8446,0.3494,93,4.571,88,4.9719,-7.6881,-12.0714,-1.0463,1.0729,0.3919,91,4723.576,91327,3.8796,-3.7432,-13.2989,-0.3915,0.0529,0.1246,61
5.01,96,4.2765,6.2475,-10.6695,0.5712,0.8243,0.9279,93,4.623,89,5.4931,-7.1971,-12.1069,-1.2226,1.3171,0.0594,91,4723.627,91328,2.8501,-2.7631,-12.3509,-0.0637,0.0612,0.2036,61
5.061,97,4.3837,5.9681,-11.5102,0.5202,0.5396,1.1248,93,4.675,90,4.8537,-7.3651,-12.8615,-0.3582,1.6403,-0.3551,91,4723.679,91329,2.0822,-2.044,-11.659,0.1762,0.0661,0.263,61
5.113,98,4.5328,6.2692,-12.7771,1.0108,0.0782,1.4546,93,4.727,91,4.6697,-6.2302,-13.9528,0.1137,1.2998,-0.5367,91,4723.731,91330,1.5409,-1.5205,-11.1655,0.3534,0.0692,0.306,61
5.165,99,5.1462,6.4533,-12.14,0.7332,0.1312,1.3321,93,4.779,92,5.1224,-5.3827,-13.1771,0.2897,0.7917,-0.7481,91,4723.783,91331,1.1295,-1.1476,-10.8,0.483,0.0703,0.3387,61
5.217,100,5.487,6.8488,-13.015,-0.1423,-0.1931,1.6488,93,4.83,93,5.632,-5.1082,-12.4512,0.3846,0.7599,-0.8887,91,4723.835,91332,2.1588,-4.1653,-11.4387,0.6087,0.1179,-0.1838,61
5.269,101,5.9527,6.6298,-12.562,-0.5943,-0.0841,1.385,93,4.882,94,6.1762,-5.112,-11.8443,0.3267,0.5599,-0.7347,91,4723.886,91333,0.3919,-5.4098,-11.4555,0.6879,-0.1828,-0.2638,61
5.32,102,6.655,6.3204,-12.0504,-0.9761,-0.149,1.1166,93,4.934,95,6.2757,-5.6485,-11.9537,0.8587,0.5157,-0.5558,91,4723.938,91334,0.1842,-5.249,-10.2999,0.9063,-0.4084,-0.3245,61
5.372,103,6.4815,6.3474,-11.3508,-0.6938,0.3625,0.1622,93,4.986,96,5.6335,-4.6778,-12.7592,0.4966,-0.0856,-0.1937,91,4723.99,91335,-0.1045,-5.2346,-9.4098,1.1817,-0.7221,-0.4666,61
5.424,104,6.7828,6.291,-10.8566,-0.4925,0.1912,-0.0088,93,5.038,97,5.9119,-4.5157,-12.8993,-0.0608,0.2414,-0.4256,91,4724.042,91336,-0.3655,-6.1357,-8.3104,1.3865,-0.8731,-0.3949,61
5.476,105,6.9777,6.9213,-10.5956,-0.3189,0.0727,-0.1879,93,5.089,98,6.5348,-4.7864,-12.8881,0.1617,0.2499,-0.8124,91,4724.093,91337,-1.3794,-8.3138,-5.2227,0.9194,-0.7524,-0.1311,61
5.528,106,6.6608,7.4921,-10.506,-0.1293,-0.0682,-0.4885,93,5.141,99,6.0206,-4.4844,-13.3151,0.4465,-0.442,0.0539,91,4724.145,91338,-1.1529,-6.6306,-4.9287,0.3604,-0.6646,0.3413,61
5.579,107,6.5552,7.3205,-10.9942,0.0455,-0.489,-0.5541,93,5.193,100,6.8482,-5.3668,-13.938,0.3709,-0.4003,-0.1333,91,4724.197,91339,-1.0963,-6.8831,-5.5598,-0.0389,-0.4707,0.8946,61
5.631,108,4.8987,6.806,-10.9467,0.2132,-0.8575,-0.3643,93,5.245,101,6.3252,-5.4454,-14.2215,-0.044,-0.7067,0.2337,91,4724.249,91340,-2.0886,-7.994,-5.6786,-0.5326,0.0308,1.319,61
5.683,109,3.8596,5.9416,-10.9768,0.1844,-0.6943,-0.7105,93,5.297,102,5.3164,-4.9602,-14.4641,-0.2325,-0.8467,0.1516,91,4724.3,91341,-2.3698,-8.0491,-5.419,-0.8648,0.3229,1.35,61
5.735,110,2.7763,4.1471,-10.9665,0.239,-0.4545,-0.8677,93,5.349,103,4.1042,-4.513,-14.3519,-0.4615,-1.0929,0.2327,91,4724.352,91342,-3.0995,-7.9866,-6.6032,-0.9404,0.447,0.9779,61
5.786,111,2.2642,3.2396,-10.9929,0.2893,-0.2192,-0.4501,93,5.4,104,2.8025,-3.3908,-13.8861,-0.5364,-1.1298,0.2982,91,4724.404,91343,-3.3568,-7.882,-7.1979,-0.8773,0.3671,0.7465,61
5.838,112,2.3758,3.0554,-11.1673,0.6131,0.1091,0.1568,93,5.452,105,2.0098,-2.5618,-12.9536,-0.5477,-0.7955,0.0731,91,4724.455,91344,-4.1111,-7.3975,-7.6326,-0.7365,0.3117,0.4094,61
5.89,113,3.3216,3.0504,-11.9037,1.106,0.3925,0.7911,93,5.504,106,2.0572,-2.1746,-12.7406,-0.6452,-0.4277,-0.0281,91,4724.507,91345,-4.5145,-7.7761,-8.0502,-0.4834,0.2489,0.0439,61
5.942,114,6.3369,5.9038,-12.9079,1.1196,0.2265,1.254,93,5.556,107,3.5368,-1.8447,-13.1224,-0.8958,0.3192,-0.6714,91,4724.559,91346,-4.6124,-8.3141,-8.0665,-0.2483,0.2161,-0.1838,61
5.993,115,7.5908,7.6932,-12.1645,0.24,0.0848,0.9299,93,5.608,108,6.196,-4.3696,-13.0361,-0.1443,0.6099,-0.897,91,4724.611,91347,-4.5457,-8.6281,-7.8595,0.1116,0.075,-0.2094,61
6.045,116,8.8417,8.0202,-12.0416,-0.253,-0.2165,0.4429,93,5.659,109,8.1409,-2.7288,-14.9374,0.5664,0.7037,-1.2534,91,4724.662,91348,-4.1145,-8.1487,-7.479,0.5838,-0.1414,-0.1806,61
6.097,117,9.4728,8.3437,-12.4369,-0.862,-0.2729,-0.2495,93,5.711,110,8.626,-3.2975,-15.6263,-0.2666,0.5464,-0.6316,91,4724.714,91349,-4.0639,-7.5036,-6.9916,0.9499,-0.3217,-0.1681,61
6.149,118,9.5874,9.0085,-11.6554,-0.9896,-0.0664,-0.857,93,5.763,111,9.3239,-4.8013,-16.3315,-0.245,0.1297,-0.0728,91,4724.766,91350,-3.4327,-6.553,-6.8293,1.1145,-0.351,-0.1593,61
6.201,119,9.8551,9.444,-10.6794,-0.9638,0.5606,-1.3004,93,5.815,112,9.2931,-5.9314,-17.2958,0.2878,-0.3746,0.253,91,4724.818,91351,-2.6804,-5.4196,-7.3505,1.0788,-0.2867,-0.1262,61
6.253,120,7.8692,9.6242,-11.5156,-1.1872,0.8599,-1.6242,93,5.867,113,9.4047,-6.7374,-17.6071,0.7717,-0.7415,0.8217,91,4724.87,91352,-2.2365,-4.2757,-8.0971,0.9198,-0.1552,-0.1889,61
6.304,121,5.8508,11.0278,-10.8826,-0.2575,0.576,-1.7421,93,5.918,114,10.0021,-7.5213,-17.833,1.235,-1.2022,1.2651,91,4724.921,91353,-1.8973,-3.4062,-8.7549,0.678,0.055,-0.3112,61
6.356,122,4.7244,9.835,-9.8956,-0.1164,0.5493,-1.4219,93,5.97,115,8.0924,-6.139,-16.6166,1.4179,-1.3031,1.2461,91,4724.973,91354,-1.3619,-2.5362,-8.9571,0.4174,0.2492,-0.3523,61
6.408,123,4.1503,9.5483,-9.7554,-0.0931,0.5269,-1.11,93,6.022,116,7.7403,-5.4124,-15.4463,0.9741,-1.4651,1.3807,91,4725.025,91355,-0.9923,-1.8938,-9.1547,0.2192,0.3738,-0.3805,61
6.46,124,3.6099,9.0455,-9.745,0.1221,0.35,-0.87,93,6.074,117,5.7695,-5.0574,-14.9073,0.6663,-1.1313,1.0393,91,4725.077,91356,-0.7201,-1.4338,-9.3124,0.0769,0.474,-0.3713,61
6.511,125,3.2959,8.564,-9.1646,0.1214,0.1938,-0.7029,93,6.126,118,4.4385,-4.9055,-14.9331,0.2614,-0.6217,0.5001,91,4725.128,91357,2.3996,-1.3986,-14.8222,-0.2297,0.311,-0.1903,61
6.563,126,3.1758,8.3626,-9.19,0.0362,0.1016,-0.5674,93,6.178,119,3.8709,-5.94,-14.6976,-0.1347,-0.4779,0.4513,91,4725.18,91358,1.7254,-1.0409,-13.3287,-0.5128,0.332,-0.1243,61
6.615,127,3.0944,8.4182,-9.228,0.0029,-0.059,-0.4389,93,6.229,120,3.5524,-5.9647,-14.4493,-0.0571,-0.4096,0.4223,91,4725.232,91359,1.28,-0.7813,-12.335,-0.7193,0.3476,-0.0749,61
6.667,128,2.9006,8.4868,-9.029,-0.1277,-0.2989,-0.3096,93,6.281,121,3.1821,-6.2436,-14.6409,-0.0027,-0.3336,0.4887,91,4725.284,91360,0.9609,-0.605,-11.6317,-0.8688,0.3584,-0.0386,61
6.718,129,2.726,8.4378,-8.8756,-0.2373,-0.5603,-0.2025,93,6.333,122,2.9578,-5.7716,-14.7123,-0.1524,-0.2825,0.6589,91,4725.335,91361,0.6023,-0.829,-10.7593,-0.9689,0.3697,-0.0056,61
6.77,130,2.4792,8.5311,-8.9431,-0.1005,-0.6325,-0.0735,93,6.385,123,2.5288,-5.8701,-14.4531,-0.7881,-0.129,0.6745,91,4725.387,91362,-0.5685,-2.5735,-11.5484,-0.864,0.1569,0.1461,61
6.822,131,2.3622,8.3011,-9.1971,0.2802,-0.6829,0.1089,93,6.437,124,2.3694,-5.3943,-15.1002,-1.2445,-0.0496,0.6538,91,4725.439,91363,-1.3805,-3.5801,-12.0497,-0.7827,0.0223,0.145,61
6.874,132,1.956,7.8575,-9.5517,0.8289,-0.8792,0.7064,93,6.488,125,1.8316,-5.3746,-15.6808,-1.5026,-0.0439,0.7392,91,4725.49,91364,-1.3108,-3.8451,-11.445,-0.4078,-0.1201,0.1326,61
6.926,133,2.1814,7.9665,-10.3147,1.2794,-0.7827,0.807,93,6.54,126,1.3666,-4.9098,-16.1344,-1.4638,0.0427,0.4935,91,4725.542,91365,-1.8536,-4.9238,-10.8543,-0.0451,-0.3016,0.173,61
6.977,134,0.4819,8.3649,-11.1903,0.8482,-0.553,0.9781,93,6.592,127,0.8743,-4.2349,-16.0891,-1.3754,0.0534,0.3642,91,4725.594,91366,-2.212,-6.0393,-10.0179,0.1834,-0.3613,0.2716,61
7.029,135,0.2937,5.6354,-11.4274,0.6119,-0.736,1.1697,93,6.644,128,0.8374,-2.7957,-16.3071,-0.8338,0.2015,-0.0136,91,4725.646,91367,-2.6745,-6.8638,-9.4089,0.2576,-0.3624,0.3163,61
7.081,136,1.5327,5.612,-11.4204,0.7605,-0.5728,1.215,93,6.696,129,0.2981,-1.5489,-15.271,-0.4264,0.4205,-0.5506,91,4725.698,91368,-2.979,-7.1824,-8.9084,0.249,-0.2423,0.3525,61
7.133,137,3.6769,6.3681,-12.1489,0.3975,-0.302,1.2687,93,6.747,130,-0.3448,-0.7369,-14.0352,-0.6765,0.7482,-1.0728,91,4725.749,91369,-3.1087,-7.2433,-8.5288,0.14,-0.1698,0.3531,61
7.184,138,5.5684,7.6461,-11.8587,0.915,0.2722,1.1664,93,6.799,131,0.2243,-2.0456,-14.4088,-0.7774,0.7826,-0.5896,91,4725.801,91370,-3.3219,-7.1027,-8.4433,0.0068,-0.1166,0.3498,61
7.236,139,7.2268,6.8836,-12.4445,0.5905,0.7361,1.0129,93,6.851,132,2.9583,-2.7707,-16.0057,-0.9065,1.2457,-0.8247,91,4725.853,91371,-3.6272,-7.3114,-8.4273,-0.18,-0.0961,0.4195,61
7.288,140,8.8034,6.1686,-15.5176,1.1054,0.0634,1.1208,93,6.903,133,4.9776,-3.7381,-16.9616,-0.0174,1.0901,-0.2873,91,4725.905,91372,-4.1001,-7.1467,-8.5039,-0.2857,-0.0305,0.5139,61
7.34,141,8.3263,2.8781,-12.8266,0.1294,0.1038,0.1611,93,6.955,134,6.4583,-3.7248,-17.7508,-0.537,1.1098,0.3149,91,4725.956,91373,-4.3357,-6.5605,-8.4049,-0.2271,0.0202,0.632,61
7.391,142,8.2204,1.7202,-12.2982,0.7688,0.0985,0.6386,93,7.007,135,8.8306,-4.0653,-18.6139,-1.0374,0.7399,-0.0991,91,4726.008,91374,-4.2675,-5.7281,-8.1762,-0.1244,0.0471,0.6833,61
7.443,143,8.418,6.563,-10.3714,0.3323,0.7204,0.3155,93,7.059,136,9.0241,-1.6736,-17.4818,-0.5731,0.4383,0.1814,91,4726.06,91375,-3.6603,-4.4807,-8.2573,-0.0889,0.1437,0.645,61
7.495,144,10.4974,2.8888,-10.7439,0.695,0.5649,0.8287,93,7.11,137,8.1323,-1.5493,-17.4311,0.0525,0.3612,-0.5477,91,4726.112,91376,-2.5154,-3.572,-8.7956,-0.1076,0.2072,0.4889,61
7.547,145,12.7183,1.3116,-9.768,0.2852,-0.257,1.2815,93,7.162,138,7.6722,-2.5968,-15.7275,-0.1087,0.5759,-0.2107,91,4726.163,91377,-1.8546,-2.6615,-9.0634,-0.1317,0.2022,0.3922,61
7.599,146,13.0728,2.626,-11.4484,-0.4692,0.2583,1.4226,93,7.214,139,8.04,-2.3686,-14.7955,-0.2022,0.9309,-0.6549,91,4726.215,91378,-1.3614,-1.9738,-9.2619,-0.1484,0.1976,0.3216,61
7.651,147,12.6067,2.5356,-13.8402,0.0742,-0.331,1.1498,93,7.266,140,7.4572,-1.6074,-14.4987,0.2678,1.1747,-1.1587,91,4726.267,91379,-1.016,-1.4828,-9.4064,-0.1598,0.1936,0.2705,61
7.703,148,12.8251,3.5353,-13.8705,0.3636,-0.2034,0.1641,93,7.318,141,7.868,-1.2675,-15.7896,0.2593,0.987,-0.8589,91,4726.319,91380,-0.764,-1.139,-9.5292,-0.1669,0.19,0.2318,61
7.754,149,12.2457,4.0119,-13.7861,0.7019,-0.2427,-0.5554,93,7.369,142,9.178,0.0078,-16.4621,0.7229,0.1729,-0.3931,91,4726.371,91381,-5.0098,4.4998,-4.3915,-0.147,0.0611,0.3121,61
7.806,150,10.9866,4.6664,-13.0997,0.7151,-0.2738,-1.0804,93,7.421,143,10.0042,-0.7889,-17.1914,0.6728,-0.4313,-0.0055,91,4726.422,91382,-2.5629,3.5947,-5.4691,-0.7495,0.0469,0.9004,61
7.858,151,9.9158,5.1233,-12.8341,0.8289,-0.1879,-1.4637,93,7.473,144,9.2358,-1.4498,-16.5394,0.2935,-0.5927,0.1372,91,4726.474,91383,-1.3372,2.4808,-6.4121,-1.2061,0.2437,1.1086,61
7.91,152,8.2059,3.8531,-13.0817,0.9156,-0.4118,-1.2033,93,7.525,145,8.4667,-1.8645,-16.3389,0.2622,-0.6466,0.2942,91,4726.526,91384,-0.5654,1.1397,-7.55,-1.3594,0.7057,0.7822,61
7.962,153,7.1287,5.3138,-12.4851,1.0419,-0.4831,-1.1126,93,7.577,146,7.7997,-2.2426,-16.2859,0.1429,-0.5892,0.4295,91,4726.578,91385,0.0863,-0.1905,-11.7207,-1.5673,0.6087,1.1651,61
8.013,154,5.5528,5.0318,-12.539,0.7895,-0.523,-0.9241,93,7.628,147,6.8295,-2.0121,-15.9634,0.1314,-0.5128,0.1864,91,4726.629,91386,-4.1055,0.6391,-13.9424,-1.8218,0.3319,1.526,61
8.065,155,4.4829,5.388,-13.0433,0.7335,-0.5517,-0.6661,93,7.68,148,6.1534,-2.404,-15.7265,0.261,-0.6494,0.1198,91,4726.681,91387,-5.7957,0.178,-9.7913,-1.8478,0.572,1.5414,61
8.117,156,3.7881,5.1397,-13.115,0.5766,-0.6389,-0.4694,93,7.732,149,5.0703,-2.0255,-15.5107,0.4359,-0.5997,-0.0535,91,4726.733,91388,-5.824,-0.5953,-10.6145,-1.7143,0.6266,1.2482,61
8.168,157,3.3131,5.2169,-13.694,-0.0566,-1.0033,-0.1024,93,7.784,150,4.5506,-2.5677,-15.1109,0.4454,-0.516,0.0037,91,4726.785,91389,-7.3274,-1.2081,-11.4798,-1.1235,-0.0336,0.5086,61
8.22,158,3.0353,5.2158,-13.6119,-0.3755,-0.8843,0.0128,93,7.836,151,4.5446,-2.9032,-15.5336,0.6629,-0.3003,-0.1354,91,4726.837,91390,-9.5791,-1.9483,-12.33,-0.6869,-0.6044,-0.1461,61
8.272,159,2.8262,5.6396,-13.8294,-0.0228,-0.3526,0.0849,93,7.887,152,3.2831,-2.5235,-15.0525,0.1831,-0.0799,0.458,91,4726.888,91391,-10.6636,-2.1008,-12.5294,-0.4382,-0.6519,-0.4091,61
8.324,160,2.5201,5.5918,-14.3279,-0.1926,-0.0221,-0.0882,93,7.939,153,3.068,-2.121,-14.8322,-0.197,-0.2244,0.5155,91,4726.94,91392,-10.4286,-1.9768,-12.761,-0.3037,-0.487,-0.5806,61
8.376,161,3.0391,6.2111,-14.6041,-0.1136,0.0117,-0.0222,93,7.991,154,2.7812,-1.7984,-14.2287,-0.2995,-0.187,0.428,91,4726.992,91393,-9.8716,-2.4026,-12.6427,-0.1389,-0.2193,-0.639,61
8.427,162,3.9443,6.7809,-15.1217,-0.1052,-0.2913,0.2891,93,8.043,155,3.5421,-2.4648,-14.7876,-0.3171,-0.043,0.3465,91,4727.043,91394,-8.9198,-2.2134,-12.3707,-0.0139,-0.0444,-0.6717,61
8.479,163,4.1039,7.1313,-15.1707,-0.2336,-0.3018,0.2188,93,8.095,156,4.7336,-3.4718,-16.074,-0.3548,-0.0969,0.2998,91,4727.095,91395,-7.697,-2.1677,-12.0495,0.2108,-0.1133,-0.6384,61
8.531,164,4.1138,7.1699,-15.0828,-0.2144,-0.1452,0.1183,93,8.146,157,5.1876,-3.3368,-16.5537,-0.2663,-0.1398,0.1802,91,4727.147,91396,-6.8644,-2.6341,-11.8033,0.4028,-0.1961,-0.549,61
8.583,165,4.1172,7.0259,-15.1291,-0.1715,-0.0462,0.1146,93,8.198,158,5.0189,-3.0084,-16.4603,-0.1457,-0.1025,0.0572,91,4727.199,91397,-7.1061,-3.6004,-11.4452,0.4026,-0.0782,-0.3634,61
8.635,166,4.0661,7.1603,-15.3078,-0.1148,-0.1516,0.3042,93,8.25,159,4.7925,-2.9745,-16.4783,-0.0209,-0.0194,-0.0031,91,4727.25,91398,-6.8913,-4.2862,-11.6612,0.3278,0.1505,-0.0641,61
8.686,167,4.3695,7.2613,-15.2978,-0.4549,-0.4166,0.6542,93,8.302,160,5.0895,-2.3991,-16.9582,0.0786,-0.0393,-0.1628,91,4727.302,91399,-6.3794,-3.4916,-11.5697,0.272,0.2121,0.2852,61
8.738,168,4.9679,6.9685,-15.3147,-0.4188,-0.271,0.7701,93,8.354,161,5.0049,-2.673,-16.8914,0.1173,-0.1059,-0.0548,91,4727.354,91400,-6.2145,-2.938,-11.4399,0.3208,0.1415,0.4587,61
8.79,169,4.8076,6.6105,-15.5112,0.0358,-0.2655,0.6574,93,8.406,162,5.2509,-2.9921,-16.8927,0.2349,-0.2363,0.2394,91,4727.406,91401,-6.6177,-2.619,-11.273,0.3008,0.1478,0.4036,61
8.842,170,4.3644,5.9095,-15.0881,-0.1534,-0.1769,0.5483,93,8.457,163,4.7363,-3.1249,-16.7451,0.1361,-0.3075,0.1495,91,4727.457,91402,-6.9219,-2.9945,-11.5938,0.3047,0.1317,0.1579,61
8.893,171,4.3085,6.1136,-14.6382,-0.3711,-0.0896,0.453,93,8.509,164,4.5919,-3.4418,-16.64,0.6116,-0.399,0.0435,91,4727.509,91403,-8.1966,-3.7787,-12.0193,0.2576,-0.0944,0.1035,61
8.945,172,4.2135,6.5686,-14.4411,-0.6161,-0.1892,0.3732,93,8.561,165,4.4962,-4.6194,-16.1288,0.7041,-0.3897,-0.0551,91,4727.561,91404,-9.1622,-3.7249,-12.0399,0.1908,-0.1775,0.1287,61
8.997,173,4.133,6.9819,-14.5022,-0.1187,-0.3072,0.2295,93,8.613,166,3.8301,-5.286,-15.7687,1.1543,-0.2913,-0.1294,91,4727.613,91405,-9.3664,-3.3124,-11.9361,0.1255,-0.1168,0.1464,61
9.049,174,4.2142,6.3523,-14.9857,0.4832,-0.1198,0.035,93,8.665,167,3.1847,-6.2125,-15.7073,1.439,-0.3907,-0.078,91,4727.664,91406,-9.1423,-3.2733,-11.8167,0.1071,-0.0173,0.1083,61
9.101,175,4.4384,6.2729,-15.5887,0.5105,-0.3543,0.0114,93,8.716,168,4.6525,-5.6284,-15.5915,0.3736,-0.3265,-0.0591,91,4727.716,91407,-9.1217,-3.4796,-11.6749,0.121,0.017,0.0989,61
9.152,176,4.5013,6.5801,-15.2418,0.2356,-0.4224,-0.0595,93,8.768,169,3.8359,-5.8439,-16.1502,-0.4073,0.0471,-0.1898,91,4727.768,91408,-9.3632,-3.4262,-11.7676,0.0869,0.0372,0.0475,61
9.204,177,4.5235,6.0519,-15.2078,0.2753,-0.3511,-0.0456,93,8.82,170,5.093,-4.8251,-16.754,0.1136,-0.1088,0.3982,91,4727.82,91409,-9.1905,-2.9498,-11.7123,0.1536,0.0028,-0.0428,61
9.256,178,4.1926,6.7341,-14.7631,-0.0007,-0.0649,-0.4268,93,8.872,171,4.1388,-4.7058,-16.7541,-0.1587,-0.0823,0.6648,91,4727.872,91410,-9.8704,-3.3789,-12.0918,0.4199,-0.0024,-0.0543,61
9.308,179,3.3443,6.728,-14.8409,-0.3089,0.0312,-0.6208,93,8.924,172,3.8573,-4.5741,-17.2853,0.0226,-0.1133,0.5815,91,4727.924,91411,-9.7065,-3.8048,-11.918,0.5195,0.0755,-0.0062,61
9.36,180,2.9155,7.1772,-14.7051,-0.2644,-0.0346,-0.7032,93,8.975,173,3.2161,-4.2992,-17.2506,-0.2436,-0.3125,0.565,91,4727.975,91412,-9.3194,-3.634,-11.4848,0.6659,0.1565,0.1911,61
9.411,181,2.5764,7.3548,-14.6087,-0.1324,-0.18,-0.6865,93,9.027,174,2.8361,-4.2022,-17.3335,-0.3721,-0.4373,0.3191,91,4728.027,91413,-9.1396,-3.542,-11.1077,0.8252,0.2437,0.3503,61
9.463,182,2.454,7.5161,-14.6583,-0.2552,-0.3953,-0.5385,93,9.079,175,2.5598,-4.2261,-17.53,-0.5128,-0.5655,0.2103,91,4728.079,91414,-9.098,-3.3365,-10.991,0.911,0.3851,0.3726,61
9.515,183,2.354,7.7068,-14.5109,-0.232,-0.3672,-0.4947,93,9.131,176,2.249,-3.994,-17.7029,-0.4342,-0.5964,0.1266,91,4728.131,91415,-8.9682,-3.403,-11.6863,0.5858,0.5569,0.0838,61
9.567,184,2.1943,7.7764,-14.4164,-0.2552,-0.3024,-0.487,93,9.183,177,2.0229,-3.7443,-17.8148,-0.3695,-0.5887,0.0958,91,4728.182,91416,-8.9953,-4.0087,-11.7554,0.1702,0.6571,-0.0868,61
9.619,185,1.7881,8.2027,-14.3888,-0.084,-0.2299,-0.4414,93,9.234,178,1.803,-3.555,-17.9219,-0.3092,-0.5786,0.0484,91,4728.234,91417,-8.5712,-3.0714,-12.3993,0.0337,0.6313,-0.1117,61
9.67,186,1.6372,8.3488,-14.3876,-0.0806,-0.242,-0.3447,93,9.286,179,1.6022,-3.4918,-17.8951,-0.295,-0.5551,0.0458,91,4728.286,91418,-7.9024,-2.5465,-12.6935,0.0713,0.2844,-0.1378,61
9.722,187,1.4894,8.3732,-14.376,-0.084,-0.3082,-0.2055,93,9.338,180,1.3198,-3.396,-17.9113,-0.1993,-0.499,0.0504,91,4728.337,91419,-7.8753,-2.4618,-12.3679,0.2789,-0.3038,-0.1095,61
9.774,188,1.3861,8.3187,-14.3858,-0.1081,-0.3415,-0.1238,93,9.39,181,1.0704,-3.3822,-18.0563,-0.0847,-0.4156,0.0453,91,4728.389,91420,-8.3115,-2.7642,-11.7234,0.4496,-0.8176,-0.0549,61
9.826,189,1.3118,8.3304,-14.3623,-0.1232,-0.3612,-0.0662,93,9.442,182,0.8412,-3.3893,-18.1582,0.0066,-0.3374,0.0483,91,4728.441,91421,-8.7747,-3.1675,-10.8824,0.5475,-1.0819,-0.0216,61
9.877,190,1.2624,8.3642,-14.3881,-0.1691,-0.3605,-0.0239,93,9.494,183,0.6295,-3.4589,-18.3168,0.0338,-0.2558,0.0641,91,4728.493,91422,-9.161,-3.7204,-10.1987,0.4974,-1.1213,0.025,61
9.929,191,1.1918,8.3672,-14.405,-0.2069,-0.3564,0.0172,93,9.545,184,0.4612,-3.4976,-18.4294,0.0265,-0.1719,0.0652,91,4728.544,91423,-9.2209,-3.6978,-9.9164,0.3626,-0.9731,0.0459,61
9.981,192,1.0796,8.4408,-14.3919,-0.2366,-0.3601,0.0733,93,9.597,185,0.2943,-3.5929,-18.468,0.0083,-0.1181,0.0954,91,4728.596,91424,-9.1196,-3.6189,-9.6471,0.2664,-0.8093,0.0594,61
