right_hand_timestamp,right_hand_index,right_hand_accel_x,right_hand_accel_y,right_hand_accel_z,right_hand_gyro_x,right_hand_gyro_y,right_hand_gyro_z,right_hand_battery_percentage,left_hand_timestamp,left_hand_index,left_hand_accel_x,left_hand_accel_y,left_hand_accel_z,left_hand_gyro_x,left_hand_gyro_y,left_hand_gyro_z,left_hand_battery_percentage,ball_timestamp,ball_index,ball_accel_x,ball_accel_y,ball_accel_z,ball_gyro_x,ball_gyro_y,ball_gyro_z,ball_battery_percentage
0.703,13,-5.3377,6.3905,-3.7647,0.0883,0.0024,-0.2175,92,0.298,5,-2.9075,5.2746,-1.4899,-0.0075,-0.0595,-0.1534,92,4278.879,82730,-5.0092,-4.0141,-5.7719,0.7349,0.6863,2.1989,61
0.754,14,-5.4371,6.5974,-3.6751,0.0969,0.0215,-0.1786,92,0.35,6,-2.9884,5.1088,-1.5156,-0.0383,-0.046,-0.1658,92,4278.931,82731,-5.861,-2.707,-6.0047,0.6709,0.4386,1.7993,61
0.806,15,-5.7123,6.5423,-3.6017,0.0423,0.1126,-0.1533,92,0.402,7,-3.0818,5.0346,-1.3345,-0.0969,-0.0396,-0.1695,92,4278.983,82732,-6.8683,-1.7295,-6.1923,0.5222,0.3351,1.1575,61
0.858,16,-6.0112,6.8377,-3.5412,0.1634,0.2483,-0.1322,92,0.453,8,-3.1431,5.0424,-1.2691,-0.1356,0.0073,-0.1742,92,4279.035,82733,-7.3417,-0.8211,-6.359,0.3601,0.3418,0.5867,61
0.91,17,-6.5364,6.905,-3.5711,0.2666,0.4639,-0.1406,92,0.505,9,-3.2836,4.9781,-1.2783,-0.1283,0.0525,-0.2007,92,4279.086,82734,-7.6709,-0.3301,-6.4088,0.3392,0.2818,0.215,61
0.962,18,-6.6854,6.687,-3.8269,0.3927,0.6352,-0.2899,92,0.557,10,-3.4497,4.805,-1.187,-0.1786,0.1151,-0.238,92,4279.138,82735,-8.256,-0.2428,-6.3778,0.3455,0.2104,0.0465,61
1.013,19,-6.638,6.1241,-4.5124,0.5399,0.7801,-0.2996,92,0.609,11,-3.7043,4.7441,-1.2497,-0.216,0.1653,-0.2949,92,4279.19,82736,-8.7745,-0.1344,-6.3705,0.2926,0.1861,-0.063,61
1.065,20,-6.1608,4.7744,-5.1745,0.8149,0.7314,-0.2189,92,0.661,12,-3.8428,4.4688,-1.5179,-0.2809,0.1785,-0.3406,92,4279.242,82737,-9.0385,-0.0772,-6.4505,0.2497,0.2191,-0.1154,61
1.117,21,-5.0748,3.58,-6.4922,0.9855,0.7148,0.2583,92,0.712,13,-3.8365,3.8256,-2.0366,-0.4696,0.0594,-0.2669,92,4279.293,82738,-9.0718,0.0071,-6.617,0.2336,0.2364,-0.0955,61
1.169,22,-2.922,-0.4746,-9.1212,0.3608,-0.0284,0.8652,92,0.764,14,-2.4172,3.0745,-2.0981,-0.9012,-0.4,0.1289,92,4279.345,82739,-9.2576,0.0074,-6.8127,0.2373,0.217,-0.1221,61
1.22,23,-0.8027,-1.2666,-10.3457,0.1861,-0.69,1.3081,92,0.816,15,-0.7085,2.6792,-2.4813,-1.2471,-0.9646,0.5544,92,4279.397,82740,-9.4504,-0.0794,-6.8962,0.2218,0.2214,-0.1595,61
1.272,24,3.9659,0.5192,-9.1017,0.8102,-1.1425,1.6313,92,0.868,16,0.5103,1.6675,-3.3695,-1.1527,-1.3767,0.9132,92,4279.449,82741,-9.7452,-0.0586,-6.9859,0.1908,0.248,-0.1347,61
1.324,25,7.9508,5.7669,-9.9038,1.2657,-0.918,1.8673,92,0.92,17,2.2011,1.9139,-4.0726,-0.1695,-1.6774,1.2666,92,4279.5,82742,-9.814,0.0153,-7.1739,0.1606,0.2665,-0.0471,61
1.376,26,9.0737,6.9086,-11.1653,0.2464,-1.1494,0.9444,92,0.971,18,3.6586,2.8606,-3.061,0.548,-1.8969,1.5894,92,4279.552,82743,-9.8731,0.0659,-7.3209,0.149,0.1921,0.1444,61
1.427,27,6.4461,6.3602,-11.1134,-0.4975,-1.1417,0.0142,92,1.023,19,5.0097,4.473,-1.1232,0.9793,-2.0517,1.7612,92,4279.604,82744,-9.6029,0.1324,-7.5479,0.144,0.1135,0.4479,61
1.479,28,0.5418,8.8998,-9.9416,-1.0405,-0.839,-0.4441,92,1.075,20,6.3188,4.6477,0.0358,1.374,-1.5861,1.807,92,4279.656,82745,-8.3055,0.3495,-7.9342,0.1683,0.0336,0.89,61
1.531,29,1.1412,7.2501,-10.4302,-1.4368,-1.2817,-0.9992,92,1.127,21,4.0705,5.1233,0.0541,1.2572,-1.0124,1.6915,92,4279.707,82746,-6.1882,0.2138,-8.4273,0.3055,-0.1247,1.3252,61
1.583,30,4.4163,2.9609,-10.3819,-1.726,-0.3843,-0.0527,92,1.179,22,2.6275,5.1175,0.0563,0.7888,-0.4151,1.2952,92,4279.759,82747,-4.1843,-0.0671,-9.1073,0.426,-0.392,1.6429,61
1.635,31,8.2795,-3.0367,-8.1217,-1.9371,0.0824,0.6382,92,1.23,23,1.6597,5.3453,-0.7223,0.7257,0.3064,0.7719,92,4279.811,82748,-2.2052,-1.2711,-10.2574,0.2602,-0.5139,1.8748,61
1.686,32,11.0991,-5.7564,-3.3364,-2.0328,0.7426,1.1424,92,1.282,24,2.1048,6.7075,-1.9123,0.9954,0.8921,-0.0718,92,4279.863,82749,0.2329,-2.5785,-11.5977,0.3379,-0.2625,1.6297,61
1.738,33,9.687,-3.1907,0.1338,-0.8739,1.2244,1.5104,92,1.334,25,6.2791,10.2223,-2.4883,1.3982,1.2594,-0.7387,92,4279.915,82750,0.0613,-1.5216,-8.8709,0.9205,0.497,1.1224,61
1.79,34,12.1263,-7.5264,0.7621,-1.3152,1.2381,1.5789,92,1.386,26,8.1057,12.7017,-1.7556,1.5182,1.3108,-1.2255,92,4279.966,82751,0.0241,-0.8884,-7.7582,1.3457,1.0514,0.7464,61
1.842,35,3.6837,-7.3662,-1.8495,-0.4652,0.8866,1.5125,92,1.438,27,7.6534,9.3403,1.0386,1.4173,1.5625,-1.5808,92,4280.018,82752,-5.214,4.6827,-12.6057,1.656,1.456,0.5534,61
1.894,36,3.8759,-7.0558,-6.3866,0.3026,1.0354,1.4455,92,1.489,28,2.2301,9.8055,-0.023,1.7061,1.8195,-0.4884,92,4280.07,82753,-3.7323,3.1823,-13.0228,1.2756,1.125,0.3901,61
1.945,37,1.8789,-1.2189,-5.4965,0.8952,1.0067,0.6421,92,1.541,29,-3.2623,9.9207,-5.0149,0.6838,1.2915,-0.7419,92,4280.121,82754,-2.6882,2.3587,-12.1867,0.9989,0.8803,0.272,61
1.997,38,1.4128,-1.9393,-4.8551,0.3687,1.1087,0.674,92,1.593,30,-1.7675,10.5024,-3.5039,-0.181,0.2792,-1.1964,92,4280.173,82755,-1.9359,1.7573,-11.5671,0.7954,0.7017,0.1848,61
2.049,39,1.8943,-1.8875,-3.7975,0.7467,0.8948,0.5209,92,1.645,31,-1.0312,8.0516,-3.373,-0.4084,0.2032,-0.9449,92,4280.225,82756,-1.3978,1.3043,-11.1293,0.6472,0.5705,0.1204,61
2.101,40,1.7087,-0.6341,-1.7514,0.7437,0.8006,0.5339,92,1.697,32,-0.8361,7.6302,-4.4723,-0.2614,-0.1071,-0.951,92,4280.277,82757,-1.0012,0.9829,-10.8169,0.5394,0.4735,0.0728,61
2.153,41,0.8747,0.0993,-0.3444,1.2017,1.0011,0.431,92,1.748,33,-0.9469,7.4431,-4.01,0.2028,-0.2394,-0.814,92,4280.328,82758,-0.7084,0.8427,-11.1151,0.4615,1.0263,0.5352,61
2.204,42,-1.0536,2.1871,0.7248,1.5514,1.4017,-0.1144,92,1.8,34,-1.9047,5.955,-2.14,0.3872,-0.1363,-0.4439,92,4280.38,82759,2.6153,-0.7649,-15.9319,0.6812,1.2733,0.3858,61
2.256,43,-3.0554,3.1665,1.8867,1.8067,1.7054,-0.7586,92,1.852,35,-3.2654,7.0408,-1.4298,0.1477,-0.0669,-0.3737,92,4280.432,82760,0.1893,0.8215,-15.7982,-0.086,0.3182,0.0668,61
2.308,44,-3.2665,2.4977,1.1061,1.993,1.9271,-1.2288,92,1.904,36,-4.1304,7.9,-1.6664,0.2122,0.1366,-0.519,92,4280.484,82761,-0.0584,2.431,-16.4107,-0.0978,-0.4118,0.4835,61
2.36,45,-1.707,0.8409,-0.2191,2.0591,2.0889,-0.983,92,1.956,37,-4.2334,6.346,-2.1242,0.1797,0.2012,-0.8396,92,4280.535,82762,-1.794,4.2035,-13.8597,-0.0779,-0.7043,0.5574,61
2.412,46,-0.3387,-0.3983,-2.445,2.0117,2.207,-0.3701,92,2.008,38,-4.289,5.5439,-2.3532,0.3204,0.1996,-1.0102,92,4280.587,82763,-3.1728,3.8162,-10.9743,-0.3803,-0.5017,0.2493,61
2.463,47,-0.7615,-0.6618,-6.2761,1.6746,2.1824,0.3804,92,2.059,39,-3.7583,4.8252,-2.6559,0.365,0.0925,-1.0065,92,4280.639,82764,-4.1041,3.5538,-11.11,-0.7073,0.0041,0.2411,61
2.515,48,0.1373,-1.7286,-7.6243,0.7131,1.3151,0.9543,92,2.111,40,-3.3391,3.9476,-3.2526,0.5617,-0.2055,-0.8857,92,4280.691,82765,-5.3495,4.6112,-12.0451,-0.5808,0.2202,0.5772,61
2.567,49,2.7291,-3.0267,-6.8053,0.143,0.2905,1.3731,92,2.163,41,-2.0317,4.2334,-3.8143,0.735,-0.7558,-0.5279,92,4280.742,82766,-4.3763,6.3755,-12.7642,-0.4308,0.1225,0.8928,61
2.619,50,7.0481,1.7117,-8.6666,0.7788,0.8443,1.6788,92,2.215,42,-0.8176,3.5138,-2.5438,0.047,-1.2243,0.2801,92,4280.794,82767,-4.3027,9.4215,-13.2844,-0.0761,-0.0691,0.9628,61
2.671,51,6.9713,6.6392,-10.674,0.5762,1.1252,1.3876,92,2.267,43,-0.5456,2.8809,-2.6961,-0.6457,-1.5662,0.8698,92,4280.846,82768,-4.5445,9.9475,-13.8927,0.0821,0.2076,1.3347,61
2.722,52,6.9993,8.4197,-11.9811,-0.2569,0.1519,0.7271,92,2.319,44,1.8925,2.3232,-1.3704,-1.1513,-1.8158,1.1829,92,4280.898,82769,-4.0562,8.9607,-13.8522,-0.4394,0.8309,1.6498,61
2.774,53,5.6109,8.9701,-12.1284,-0.8649,-0.5585,0.241,92,2.37,45,3.8511,-0.0641,-0.2864,-1.3546,-1.9979,1.3482,92,4280.95,82770,-3.2663,7.0937,-13.2567,-0.9936,1.2951,1.8798,61
2.826,54,4.141,8.3126,-11.2558,-1.3086,-1.0017,0.2555,92,2.422,46,5.2884,-1.8314,0.2737,-0.3431,-1.9449,1.5906,92,4281.001,82771,-2.342,5.4222,-12.6457,-1.3935,1.6339,2.0476,61
2.878,55,3.215,7.6754,-10.0486,-1.6324,-1.3677,0.0935,92,2.474,47,4.6645,-1.0857,0.3171,0.4213,-1.4318,1.7531,92,4281.053,82772,-1.4325,4.1009,-12.5668,-1.4593,1.8576,2.1701,61
2.93,56,4.1383,6.8838,-8.7482,-1.8688,-1.2363,0.3057,92,2.526,48,3.8457,-0.198,0.3084,0.9792,-0.6276,1.5299,92,4281.105,82773,-1.135,2.576,-11.6106,-1.1498,1.9624,2.2103,61
2.981,57,7.7023,3.9408,-6.1624,-2.0413,-0.6453,0.8696,92,2.578,49,3.3414,0.1958,0.1201,1.3864,0.1773,1.2469,92,4281.156,82774,-1.6129,0.5558,-12.1481,-0.7802,1.7267,1.7905,61
3.033,58,9.564,2.5337,-2.995,-2.1672,0.2114,1.3113,92,2.63,50,3.1715,0.6763,-0.8156,1.6836,0.804,0.7228,92,4281.208,82775,-2.2751,-0.6715,-12.171,-0.4718,1.0326,0.8924,61
3.085,59,8.0808,3.2285,-2.8473,-1.5156,0.8367,1.6337,92,2.681,51,4.4914,4.5925,-1.881,1.9005,0.7959,-0.1322,92,4281.26,82776,-1.55,-0.5081,-10.7504,-0.1108,0.0905,0.4847,61
3.137,60,4.1857,0.1884,-7.7794,-1.7835,1.2925,1.8004,92,2.733,52,6.7018,7.6515,-1.9423,1.7074,0.5165,-0.7828,92,4281.312,82777,-0.9491,-0.3578,-9.7375,0.1559,-0.597,0.2131,61
3.189,61,8.1112,0.1003,-3.0866,-0.7039,0.5544,1.3017,92,2.785,53,7.6532,0.3236,0.3491,1.7788,1.0368,-1.2577,92,4281.364,82778,-0.463,-0.1741,-9.0279,0.3516,-1.0988,0.0149,61
3.24,62,7.2528,-2.3324,-3.3032,-0.7408,0.5224,0.9539,92,2.837,54,6.6573,0.9751,1.464,1.6052,1.1708,-1.5195,92,4281.415,82779,4.8773,-3.2355,-8.8575,0.1684,-0.9063,0.1262,61
3.292,63,6.1351,-2.3798,-3.372,-0.4206,0.5379,0.5511,92,2.889,55,4.6807,1.4676,0.0452,0.8907,0.8949,-1.6651,92,4281.467,82780,3.6027,-2.3276,-9.1579,0.0846,-0.685,0.2164,61
3.344,64,4.5968,-2.7749,-3.2257,-0.1536,0.352,0.2758,92,2.94,56,3.231,3.1908,-2.4409,0.2963,0.6522,-1.5671,92,4281.519,82781,2.6904,-1.6718,-9.3512,0.0237,-0.523,0.2825,61
3.396,65,3.0166,-2.7805,-2.548,0.1958,0.1397,0.0472,92,2.992,57,2.0933,4.3183,-3.0065,0.2423,0.6627,-1.3608,92,4281.571,82782,2.0084,-1.1926,-9.5009,-0.0212,-0.4045,0.3302,61
3.447,66,1.8373,-2.467,-1.1288,0.4505,0.2151,-0.2445,92,3.044,58,0.4945,5.1723,-3.2675,-0.0282,0.602,-1.1921,92,4281.622,82783,1.514,-0.8438,-9.62,-0.0537,-0.3177,0.3654,61
3.499,67,0.835,-1.9511,0.5372,0.7688,0.5258,-0.4865,92,3.096,59,-1.2631,3.7337,-4.1359,-0.4738,0.2324,-1.3269,92,4281.674,82784,1.1432,-0.599,-9.7312,-0.0784,-0.254,0.3907,61
3.551,68,-0.132,-1.4824,1.6384,1.232,1.0547,-0.5577,92,3.148,60,-3.9473,6.1822,-4.0548,-0.2606,0.0883,-0.8019,92,4281.726,82785,0.2528,0.5984,-7.9872,-0.0853,-0.3873,0.0654,61
3.603,69,-1.2911,-1.5881,2.0429,1.5736,1.4522,-0.6909,92,3.199,61,-4.9888,6.1636,-3.6805,-0.4237,-0.1086,-0.722,92,4281.778,82786,-0.6914,0.1115,-5.6676,0.4878,-0.1838,-0.1809,61
3.655,70,-1.9143,-1.3652,1.6143,1.8228,1.7423,-0.7393,92,3.251,62,-5.2286,5.692,-2.8518,-0.6978,-0.2973,-0.7505,92,4281.829,82787,1.0033,0.7756,-8.9332,0.6264,-0.295,0.2346,61
3.707,71,-2.545,-1.5924,0.0808,2.0048,1.954,-0.6059,92,3.303,63,-5.2351,5.7499,-2.4711,-0.9838,-0.3752,-0.7037,92,4281.881,82788,1.1408,1.0489,-10.4627,0.5273,-0.3942,0.7644,61
3.758,72,-0.5028,-3.8763,-3.0873,2.1375,2.1086,0.2344,92,3.355,64,-4.6717,4.9337,-1.9598,-1.2191,-0.4713,-0.6166,92,4281.933,82789,1.7904,1.8312,-11.2069,0.3262,-0.2284,0.8883,61
3.81,73,0.8893,-4.2786,-7.2697,2.2344,1.517,0.8477,92,3.407,65,-2.9435,5.2724,-2.2741,-1.5698,-0.7336,-0.3573,92,4281.985,82790,2.1006,2.133,-11.94,0.0289,0.067,0.7872,61
3.862,74,3.6468,-2.9436,-9.4977,2.3052,0.9005,1.2954,92,3.458,66,-2.0993,2.0371,-4.0439,-1.8257,-1.1752,-0.2039,92,4282.036,82791,6.0356,1.6359,-12.7787,-0.2705,0.2251,0.6193,61
3.914,75,7.7179,3.2416,-11.606,2.3568,1.3396,1.622,92,3.51,67,-1.0772,0.5367,-5.4514,-1.8916,-1.5304,-0.3352,92,4282.088,82792,7.1505,1.476,-13.5377,-0.4765,0.3374,0.5703,61
3.966,76,10.0519,7.7558,-13.3705,1.2008,1.1601,1.7207,92,3.562,68,0.1673,-0.8319,-4.974,-2.0488,-1.7896,-0.5964,92,4282.14,82793,8.2953,1.9245,-14.1523,-0.6283,0.4263,0.7943,61
4.017,77,8.336,9.4502,-14.7548,0.199,0.1773,1.0142,92,3.614,69,2.6119,-2.9007,-3.9741,-1.2516,-1.9788,-0.825,92,4282.191,82794,8.9898,2.2438,-14.5237,-0.6078,0.5128,1.2554,61
4.069,78,6.7322,10.0222,-14.8924,-0.5321,-0.5399,0.2775,92,3.666,70,4.0724,-4.5199,-1.6556,-0.4394,-2.1169,-0.4894,92,4282.243,82795,8.8423,2.7605,-14.5382,-0.3704,0.6482,1.5919,61
4.121,79,5.3817,8.5919,-14.3868,-1.0658,-1.0634,-0.3553,92,3.717,71,4.3145,-5.6494,-0.8911,0.3408,-1.8993,-0.0569,92,4282.295,82796,7.5077,3.4818,-13.6638,0.2282,0.9657,1.8375,61
4.173,80,4.9048,7.5578,-12.6837,-1.4552,-1.4454,-0.5769,92,3.769,72,3.482,-3.7469,-0.4344,0.9205,-1.3264,0.245,92,4282.347,82797,5.6203,2.6914,-12.8174,0.8404,1.2183,2.0168,61
4.224,81,4.9215,5.9848,-10.4514,-1.7395,-1.4355,-0.3489,92,3.821,73,2.9915,-2.6693,-0.0011,1.3435,-0.5716,0.254,92,4282.398,82798,3.4693,2.6407,-12.3238,1.2872,1.2383,2.1477,61
4.276,82,4.7184,4.1321,-7.1014,-1.9469,-1.0338,0.0361,92,3.873,74,2.8165,-1.0035,-0.0914,1.6523,0.2528,-0.1221,92,4282.45,82799,1.5442,2.8609,-12.2071,1.6048,1.0008,2.2431,61
4.328,83,5.2565,0.5268,-4.7852,-2.0983,-0.3717,0.703,92,3.925,75,2.5007,2.4116,-0.6909,1.8776,0.8304,-0.6367,92,4282.502,82800,0.8695,2.9262,-11.5232,1.0182,0.8761,2.309,61
4.38,84,6.992,0.2282,-2.5298,-1.1659,0.4111,1.1897,92,3.977,76,2.7764,3.1729,-1.1272,1.9126,1.1302,-1.1511,92,4282.554,82801,0.964,1.7784,-9.4169,0.0653,1.1391,2.2898,61
4.432,85,8.645,-0.9541,-1.5698,-1.458,0.9825,1.545,92,4.028,77,2.7626,2.8194,-1.9788,1.9544,1.1637,-1.3453,92,4282.605,82802,1.0388,1.1489,-8.7265,-0.6302,1.4217,2.3062,61
4.483,86,5.8874,-0.4223,-3.2905,-0.8235,0.6063,0.6508,92,4.08,78,3.1793,5.1961,-2.312,1.3789,0.8003,-1.4932,92,4282.657,82803,1.0509,0.6419,-8.2466,-1.1379,1.6357,2.3203,61
4.535,87,9.3532,-3.1361,-3.0421,-0.5708,0.2108,0.3392,92,4.132,79,4.2364,9.1192,-1.6372,1.3513,1.0446,-1.149,92,4282.709,82804,5.3052,1.4816,-7.643,-0.6789,0.9885,1.7691,61
4.587,88,8.6439,-2.1554,-1.6412,-0.5639,-0.0789,0.1469,92,4.184,80,3.2421,8.0568,-2.7019,0.6064,0.7736,-1.1284,92,4282.761,82805,3.9362,1.0604,-8.3128,-0.3542,0.5706,1.3807,61
4.639,89,7.009,-1.8801,-0.0414,-0.1042,0.2257,-0.3762,92,4.236,81,1.4753,7.0392,-3.9686,-0.085,0.7072,-0.8035,92,4282.813,82806,2.9084,0.7722,-8.7378,-0.1167,0.2654,1.0992,61
4.691,90,5.3909,-1.942,1.2774,0.5932,0.6917,-0.6657,92,4.287,82,0.2438,7.0437,-4.2294,-0.5205,0.1737,-0.8095,92,4282.864,82807,2.1408,0.5553,-9.0503,0.0576,0.0412,0.8938,61
4.742,91,3.5979,-2.1384,2.0927,1.1073,1.1872,-0.8355,92,4.339,83,-0.7731,6.8854,-3.8347,-0.8512,-0.0944,-0.8107,92,4282.916,82808,1.5887,0.3987,-9.2768,0.1858,-0.1244,0.7459,61
4.794,92,2.3506,-2.2752,1.77,1.4826,1.5489,-0.8938,92,4.391,84,-1.998,6.3661,-3.7658,-0.8853,-0.2427,-0.9257,92,4282.968,82809,1.1717,0.2892,-9.4548,0.2787,-0.2449,0.6378,61
4.846,93,1.1814,-1.562,0.3772,1.7564,1.8129,-0.8894,92,4.443,85,-2.8508,5.6423,-2.8375,-0.659,-0.3674,-1.1885,92,4283.02,82810,0.2147,0.5756,-9.8984,0.3477,-0.3335,0.5588,61
4.898,94,0.2566,-1.3495,-0.9642,1.9563,2.0055,-0.6285,92,4.495,86,-2.8284,5.506,-2.1509,-0.6289,-0.4414,-1.3192,92,4283.071,82811,-0.5761,-1.3593,-8.1985,0.2482,-0.3146,0.4513,61
4.949,95,0.1353,-1.9952,-2.5216,2.1022,2.1462,-0.0557,92,4.546,87,-2.2937,4.8216,-1.9286,-0.7519,-0.5247,-1.3128,92,4283.123,82812,0.2123,-1.253,-8.638,-0.4926,-0.4793,-0.0007,61
5.001,96,0.5972,-3.1588,-5.2488,2.2086,1.965,0.636,92,4.598,88,-1.7447,4.677,-1.6983,-1.1654,-0.7808,-1.0803,92,4283.175,82813,-1.6515,-1.4075,-9.7056,-0.5687,-0.3272,0.0673,61
5.053,97,3.7667,-2.3612,-7.2087,2.0822,1.2127,1.1408,92,4.65,89,-0.2135,4.5783,-2.469,-1.5305,-1.2217,-0.5459,92,4283.227,82814,-2.6997,-1.7927,-10.3063,-0.3489,-0.2108,0.0568,61
5.105,98,6.3058,0.4734,-9.1477,2.1941,1.1042,1.5092,92,4.702,90,1.1093,2.1651,-4.9719,-1.5939,-1.5643,-0.2208,92,4283.278,82815,-3.935,-2.3998,-11.1872,0.1265,-0.4793,0.2087,61
5.157,99,9.6586,5.7354,-11.6754,2.2757,1.4883,1.7782,92,4.754,91,3.8044,0.8309,-5.2587,-1.511,-1.8144,-0.0857,92,4283.33,82816,-5.2507,-3.4628,-11.9015,0.7461,-0.6651,0.814,61
5.208,100,9.0516,9.5759,-13.645,0.9835,0.5642,1.2917,92,4.806,92,6.6348,-0.8367,-3.8343,-0.9042,-1.9969,-0.119,92,4283.382,82817,-5.9824,-4.7775,-11.8792,1.2014,-0.951,1.2698,61
5.26,101,7.2518,8.5117,-14.7964,0.0405,-0.2575,0.7657,92,4.857,93,7.3675,-1.0775,-2.3792,-0.0259,-2.0844,0.0568,92,4283.434,82818,-7.1153,-5.1503,-11.312,1.3344,-1.3489,1.6025,61
5.312,102,5.9434,9.5067,-14.5294,-0.6478,-0.8573,0.2844,92,4.909,94,7.5275,-1.9651,-1.5861,0.5703,-1.8712,0.4192,92,4283.485,82819,-7.5016,-4.6805,-10.6905,1.1807,-1.6143,1.8452,61
5.364,103,5.0912,9.0076,-14.0306,-1.1502,-1.295,-0.1274,92,4.961,95,7.0751,-2.2323,-1.2458,1.088,-1.3436,0.7521,92,4283.537,82820,-5.8982,-3.6212,-10.427,0.9114,-1.8258,2.0224,61
5.416,104,4.8557,7.0921,-12.9179,-1.5168,-1.5754,-0.0816,92,5.013,96,6.1514,-0.8414,-1.3668,1.4658,-0.5873,0.7309,92,4283.589,82821,-4.0889,-2.3742,-10.4564,0.6125,-1.9957,2.1518,61
5.467,105,6.1864,3.299,-9.9613,-1.7844,-1.0414,0.6171,92,5.065,97,5.2008,1.5983,-1.1409,1.7415,0.25,0.4708,92,4283.641,82822,-2.6558,-1.5826,-10.9252,0.197,-2.1196,2.2461,61
5.519,106,7.94,-0.043,-6.3556,-0.8771,-0.1287,1.127,92,5.116,98,4.2981,2.8041,-1.6374,1.9428,0.8614,0.0445,92,4283.692,82823,-1.9208,-0.9415,-11.7416,0.0695,-1.9228,2.315,61
5.571,107,8.6973,-0.4078,-3.8531,-0.8079,0.5885,1.4992,92,5.168,99,4.1607,5.8478,-2.7239,2.0896,0.9746,-0.6539,92,4283.744,82824,-1.3901,-1.014,-11.6001,0.7233,-1.3733,2.3653,61
5.623,108,4.3546,-3.6396,-3.3682,-1.2652,-0.1338,0.7313,92,5.22,100,4.808,6.7822,-4.2027,1.257,0.5347,-1.1636,92,4283.796,82825,-1.3366,-0.5636,-10.3473,1.2018,-0.9366,2.402,61
5.674,109,3.3594,-1.027,-3.6371,-0.6747,0.5754,1.2104,92,5.272,101,5.738,7.9784,-4.5245,0.2766,-0.0798,-1.5356,92,4283.848,82826,-1.2568,-0.2062,-9.4339,1.551,-0.6393,2.4288,61
5.726,110,4.3316,-1.7295,-2.7912,-0.3733,0.7084,1.1352,92,5.324,102,4.0164,11.1499,-0.6544,0.8722,0.6208,-0.6521,92,4283.899,82827,-1.1372,0.3008,-8.8246,1.8059,-0.4394,2.4483,61
5.778,111,4.2431,-1.9496,-1.6209,0.1143,1.1645,0.7503,92,5.375,103,2.9262,9.0098,-1.637,0.2202,0.8732,-0.648,92,4283.951,82828,-0.5138,0.0645,-9.6106,0.816,-0.1391,2.2593,61
5.83,112,3.948,-2.4752,-0.5089,0.7562,1.5323,0.4206,92,5.427,104,2.1273,7.783,-1.7847,-0.4132,0.6081,-0.7588,92,4284.003,82829,-0.2484,0.084,-9.5932,0.096,0.0838,2.1213,61
5.882,113,3.0297,-3.4454,-0.4956,1.2263,1.8008,0.2756,92,5.479,105,1.3744,7.4486,-1.7606,-0.9816,0.4216,-0.809,92,4284.055,82830,-0.0416,0.0863,-9.5562,-0.4283,0.2499,2.0204,61
5.933,114,2.336,-3.5404,-2.0784,1.5694,1.9967,0.1091,92,5.531,106,0.5281,7.0203,-1.5519,-1.3858,0.2591,-0.9165,92,4284.106,82831,0.1064,0.0894,-9.5331,-0.8094,0.3755,1.946,61
5.985,115,2.1181,-3.4699,-4.4018,1.8198,2.1397,0.5201,92,5.583,107,0.1405,5.1808,-1.8633,-1.3863,0.1581,-0.8969,92,4284.158,82832,0.2306,0.0876,-9.5745,-1.0844,0.4078,1.9597,61
6.037,116,1.5215,-2.9573,-7.4955,1.9842,1.795,1.0562,92,5.634,108,0.2748,4.0324,-2.382,-0.5283,0.0129,-0.883,92,4284.21,82833,5.5267,-5.1939,-12.7789,-1.3435,0.313,1.8216,61
6.089,117,1.6104,-2.3754,-9.6602,2.1225,0.7496,1.4475,92,5.686,109,0.1843,5.2134,-2.4788,-0.3885,-0.4658,-0.5008,92,4284.262,82834,4.145,-3.7042,-12.1398,-0.6974,0.1552,1.5487,61
6.141,118,6.2316,3.6562,-8.9171,2.2235,0.6511,1.7331,92,5.738,110,-0.3926,5.2677,-3.7931,-0.9636,-1.0127,0.2996,92,4284.314,82835,5.0989,-1.4215,-9.9063,-0.6455,0.0271,1.2956,61
6.192,119,9.6044,8.0584,-8.3008,1.9601,0.7188,1.9415,92,5.79,111,0.9559,2.1239,-5.6632,-1.3833,-1.4117,0.4662,92,4284.366,82836,6.0987,-1.1219,-9.1164,-0.6099,-0.1568,1.1974,61
6.244,120,6.8346,11.2713,-9.4117,0.7997,0.0431,1.023,92,5.842,112,5.5911,0.7665,-4.6153,-1.1455,-1.703,-0.3352,92,4284.417,82837,7.3708,-0.097,-8.1233,-0.8085,-0.2954,1.438,61
6.296,121,6.2622,11.0328,-9.5222,-0.0937,-0.6379,0.1393,92,5.893,113,7.7155,-1.9719,-3.7936,-0.8657,-1.8443,-0.5504,92,4284.469,82838,8.4917,0.9854,-7.4846,-1.0719,-0.4817,1.7252,61
6.348,122,4.4305,10.689,-8.3033,-0.7458,-1.1349,-0.2252,92,5.945,114,7.9856,-3.0383,-3.119,0.0198,-1.5758,-0.0355,92,4284.521,82839,8.9694,2.3428,-6.4358,-1.277,-0.7116,1.9348,61
6.4,123,3.2067,10.381,-7.2294,-1.2217,-1.4952,-0.599,92,5.997,115,6.9751,-3.4985,-2.4123,0.6862,-1.1073,0.1597,92,4284.572,82840,8.6497,2.6877,-6.4411,-1.3776,-1.0764,2.0878,61
6.451,124,3.4078,7.0839,-7.043,-1.569,-1.4734,-0.2799,92,6.049,116,6.2671,-1.507,-2.215,1.1725,-0.393,0.1825,92,4284.624,82841,7.057,3.4574,-7.1383,-1.4111,-1.4448,2.1995,61
6.503,125,5.0714,2.0728,-6.7697,-1.8225,-1.3095,0.4679,92,6.101,117,4.8745,0.9979,-1.1794,1.5275,0.3922,0.216,92,4284.676,82842,4.7199,4.243,-7.8871,-1.4711,-1.7176,2.281,61
6.555,126,7.4955,-2.7409,-6.1244,-1.5249,-1.1409,1.0181,92,6.153,118,4.1811,1.8313,-1.5231,1.7866,0.9654,0.0871,92,4284.728,82843,1.8762,5.5749,-7.6946,-1.6885,-1.9167,2.3404,61
6.607,127,10.5268,-5.9481,-5.0249,-0.8184,-0.6224,1.4197,92,6.204,119,3.5548,3.6751,-2.6785,1.9756,1.3505,-0.4718,92,4284.779,82844,0.8204,3.7271,-5.9544,-1.9102,-2.062,1.7394,61
6.659,128,9.3508,-0.9993,-1.6501,-0.8918,0.1247,1.6839,92,6.256,120,3.7156,5.9211,-4.1544,1.4256,0.9883,-1.0307,92,4284.831,82845,0.6197,2.7609,-5.9447,-2.072,-2.168,1.236,61
6.71,129,9.0059,-3.352,-2.3865,-1.0061,0.1391,1.6863,92,6.308,121,4.4252,8.4079,-5.6432,0.6466,0.0487,-1.4387,92,4284.883,82846,0.4607,2.0291,-5.9624,-2.1901,-2.2454,0.8676,61
6.762,130,6.5251,-3.1547,-0.7568,-0.2154,0.2884,0.7701,92,6.36,122,6.4684,3.522,-1.4708,0.7162,0.4571,-1.6396,92,4284.935,82847,-4.8953,-3.7769,-12.3772,-2.0357,-2.2,0.6082,61
6.814,131,5.1502,-3.6981,0.2712,0.5051,0.8929,0.3012,92,6.412,123,3.7762,3.7122,-1.8165,0.1452,0.4577,-1.4821,92,4284.986,82848,-3.6107,-2.7064,-11.7687,-1.0523,-1.9197,0.8945,61
6.865,132,4.4548,-4.29,0.6968,1.043,1.3341,-0.0467,92,6.463,124,1.122,4.5224,-2.9685,-0.574,0.2012,-1.3045,92,4285.038,82849,-2.6494,-1.9026,-11.1969,-0.3375,-1.7199,1.1033,61
6.917,133,3.6305,-4.7182,-0.133,1.4356,1.6561,-0.1685,92,6.515,125,-0.0234,5.009,-3.2887,-1.0672,-0.0361,-1.3377,92,4285.09,82850,-1.9525,-1.3382,-10.756,0.1818,-1.5785,1.2569,61
6.969,134,2.8542,-5.3593,-2.728,1.7222,1.8911,-0.0926,92,6.567,126,0.1189,4.3858,-2.9795,-1.1493,-0.2863,-1.4962,92,4285.142,82851,-1.4517,-0.915,-10.4452,0.5575,-1.4794,1.3697,61
7.021,135,2.4764,-5.7133,-7.1419,1.9313,1.7864,0.5617,92,6.619,127,0.3948,4.6062,-2.3922,-0.5272,-0.4679,-1.3041,92,4285.193,82852,-1.0969,-0.6068,-10.208,0.8299,-1.4107,1.4528,61
7.073,136,2.4007,-4.2214,-9.6386,2.0839,0.7115,1.0866,92,6.671,128,2.077,2.7983,-2.8599,-0.7966,-0.6156,-0.943,92,4285.245,82853,-6.0321,1.3299,-5.443,1.074,-1.3663,1.519,61
7.124,137,4.0559,-3.9631,-9.5796,2.1953,-0.15,1.4697,92,6.722,129,3.3247,1.6644,-3.172,-0.3312,-0.7585,-0.3421,92,4285.297,82854,-7.5789,-0.3692,-8.5117,0.245,-1.1956,0.9562,61
7.176,138,8.0165,2.4975,-7.2753,2.2766,0.3912,1.7493,92,6.774,130,3.8054,1.2564,-3.3416,-0.0945,-0.9235,0.3788,92,4285.349,82855,-7.3834,-1.4242,-9.0595,0.2778,-1.0928,0.7134,61
7.228,139,7.1791,7.2127,-8.1866,1.0105,0.3541,0.6016,92,6.826,131,4.2304,1.2793,-2.4613,0.2523,-1.1051,0.9418,92,4285.4,82856,-7.6625,-0.3254,-9.8074,0.2822,-1.1184,0.964,61
7.28,140,6.1049,8.2136,-9.4167,0.0601,-0.4109,-0.236,92,6.878,132,4.3647,2.497,-1.5827,0.435,-1.1245,1.3356,92,4285.452,82857,-7.7138,-1.1437,-10.7535,0.0867,-1.4776,1.3793,61
7.332,141,5.1909,7.5396,-10.3198,-0.6335,-0.9692,-0.8474,92,6.93,133,4.7776,3.2941,-0.933,0.3551,-0.8865,1.5092,92,4285.504,82858,-7.0303,-0.8013,-11.3205,-0.2084,-1.7415,1.6823,61
7.383,142,3.7779,6.9174,-8.9027,-1.1397,-1.3767,-1.2136,92,6.982,134,3.8468,4.1466,-1.2333,0.5438,-0.532,1.4247,92,4285.556,82859,-4.9864,-0.4275,-10.387,-0.5823,-1.9341,1.9035,61
7.435,143,2.7557,6.4213,-7.8591,-1.5092,-1.603,-1.1323,92,7.033,135,2.7352,5.3655,-1.5448,0.6887,-0.298,1.0284,92,4285.608,82860,-3.299,1.1332,-8.8614,-1.0959,-2.0747,2.065,61
7.487,144,3.0887,3.8191,-7.755,-1.7789,-1.6333,-0.6964,92,7.085,136,1.915,6.3879,-1.5072,0.5499,-0.1342,0.4383,92,4285.659,82861,-2.1309,2.0305,-8.0816,-1.4777,-2.1773,2.1828,61
7.539,145,4.732,-2.4103,-9.1411,-1.9757,-1.6815,-0.2894,92,7.137,137,1.3361,6.8769,-1.3386,0.5076,0.1211,-0.2091,92,4285.711,82862,-1.8152,1.8196,-10.5466,-1.3445,-2.2522,2.2688,61
7.591,146,8.3322,-6.9569,-9.729,-0.7969,-1.8753,0.4654,92,7.189,138,1.2488,7.8474,-1.809,0.5167,0.3568,-0.8357,92,4285.763,82863,-1.4518,1.8498,-10.5868,-0.6585,-2.3068,2.3316,61
7.642,147,6.0478,-7.329,-10.5934,-0.996,-0.6868,0.6784,92,7.241,139,1.7048,9.5243,-3.4196,0.4279,0.1584,-1.2963,92,4285.814,82864,-1.1193,1.9601,-9.3278,0.1933,-2.3467,2.3774,61
7.694,148,7.972,-8.1811,-8.0741,-1.0451,-1.1706,1.1718,92,7.293,140,4.0556,12.1294,-5.119,-0.2144,-0.464,-1.6325,92,4285.866,82865,-0.8518,2.0354,-8.4161,0.8149,-2.3758,2.4108,61
7.746,149,5.9064,-8.7108,-7.7946,-0.4678,-0.1719,0.1801,92,7.344,141,-2.1861,14.1794,-4.7993,0.5112,0.3404,-0.5262,92,4285.918,82866,-0.4185,2.1314,-7.8011,1.2616,-2.3971,2.4352,61
7.798,150,2.6949,-11.5552,-6.9501,-0.4073,0.4926,0.5467,92,7.396,142,-2.0034,11.9974,-3.6312,0.2539,0.7376,-0.4421,92,4285.97,82867,-0.163,1.5056,-8.0161,1.2,-1.8575,1.4943,61
7.85,151,3.1993,-10.9096,-6.9499,0.3771,-0.0446,1.0756,92,7.448,143,-2.4764,10.396,-4.0848,-0.4457,0.5381,-0.3772,92,4286.021,82868,-0.0142,1.1175,-8.4899,1.1589,-1.4557,0.8075,61
7.901,152,2.5679,-10.5316,-7.9419,0.9496,0.6499,1.4273,92,7.5,144,-2.468,9.7629,-2.8741,-0.5247,0.1176,-0.6011,92,4286.073,82869,0.0978,0.847,-8.8364,1.1287,-1.1603,0.3061,61
7.954,153,1.3624,-8.5297,-9.9104,1.3674,0.9636,1.7184,92,7.552,145,-1.6409,8.2776,-1.7961,-0.5959,0.1781,-0.6801,92,4286.125,82870,0.176,0.6341,-9.0914,1.1067,-0.9426,-0.0593,61
8.005,154,0.8874,-5.6176,-13.5336,1.6724,0.4339,1.9308,92,7.603,146,-0.4193,7.0903,-1.827,-0.7342,0.2008,-0.3244,92,4286.177,82871,0.2412,0.4831,-9.2969,1.0907,-0.7825,-0.326,61
8.057,155,0.8208,-3.8954,-15.0283,1.895,-0.3526,2.0858,92,7.655,147,-0.034,6.1755,-3.2415,-1.1894,-0.2116,0.0696,92,4286.229,82872,0.3018,0.3558,-9.4283,1.0797,-0.6639,-0.5195,61
8.109,156,5.6554,-0.1096,-13.6612,2.0574,-0.9267,2.199,92,7.707,148,0.7505,4.6651,-3.967,-1.0703,-0.7303,0.2524,92,4286.28,82873,-0.0163,2.7959,-5.3511,1.1324,-0.6023,-0.3429,61
8.16,157,9.1839,0.126,-10.9015,2.1645,-1.3457,2.2815,92,7.759,149,1.5308,4.0802,-4.5919,-1.0681,-1.2057,0.3805,92,4286.332,82874,2.1662,3.3214,-6.218,0.8058,-0.1263,0.1475,61
8.212,158,10.9881,4.2984,-7.7668,1.2209,-0.6953,1.1574,92,7.811,150,2.473,3.378,-4.1091,-1.4596,-1.5526,0.6231,92,4286.384,82875,3.3023,1.9188,-8.388,0.5428,0.2187,0.7834,61
8.264,159,9.9467,4.5483,-5.7139,0.2137,-0.6955,0.1696,92,7.863,151,4.9424,1.017,-2.6827,-1.0026,-1.8058,0.516,92,4286.436,82876,5.635,1.6837,-10.0257,0.5246,0.684,1.2474,61
8.316,160,7.1883,4.7444,-4.3631,-0.5214,-0.6543,-0.5491,92,7.914,152,6.7924,1.684,-1.4343,-0.06,-1.704,0.6082,92,4286.487,82877,7.1695,0.3892,-10.9019,0.6263,1.0227,1.5861,61
8.368,161,5.0345,3.0764,-5.0852,-1.0579,-0.7415,-0.4575,92,7.966,153,5.9799,1.1586,-1.0969,0.5157,-1.2506,0.9379,92,4286.539,82878,5.4082,1.1888,-11.3339,0.6032,1.3116,1.8333,61
8.419,162,3.6528,1.2948,-7.1829,-1.4495,-0.89,0.2938,92,8.018,154,5.1636,0.5362,-0.3115,1.0481,-0.6292,1.1819,92,4286.591,82879,3.9861,1.2947,-11.5079,0.9858,1.6173,2.0137,61
8.471,163,2.8391,-2.0852,-10.3506,-1.7353,-1.2922,0.8911,92,8.07,155,4.561,1.6638,0.033,1.4367,0.1974,1.3232,92,4286.643,82880,2.6886,1.5048,-11.6661,1.259,1.5755,2.1454,61
8.523,164,3.1499,-5.993,-15.5508,-1.9439,-1.6124,1.0664,92,8.122,156,4.0044,2.2692,-0.4547,1.7203,0.8231,1.1468,92,4286.694,82881,1.8193,2.0727,-11.91,1.0465,1.0561,2.2415,61
8.575,165,4.4765,-8.5188,-19.0855,-0.7443,-1.8462,1.2251,92,8.173,157,3.6298,3.2603,-1.3539,1.9273,1.2798,0.5765,92,4286.746,82882,1.9086,1.8277,-10.9702,0.1009,1.0197,2.3116,61
8.627,166,8.3235,-0.8275,-15.1339,-0.8827,-1.0029,1.5708,92,8.225,158,2.7892,5.195,-2.5244,2.0783,1.6114,0.0466,92,4286.798,82883,2.0342,1.1045,-10.0742,-0.6042,1.31,2.3628,61
8.678,167,5.2754,-4.7885,-11.5749,-0.3454,-0.7258,1.1675,92,8.277,159,3.0688,7.1965,-3.5579,0.9179,0.7491,-0.6503,92,4286.849,82884,2.0813,0.5775,-9.4035,-1.1189,1.5541,2.4002,61
8.73,168,8.6863,-8.0657,-11.6376,0.4223,-0.9013,1.1914,92,8.329,160,-2.5382,10.5792,-7.367,1.3416,1.2172,0.1908,92,4286.901,82885,2.0214,0.1651,-8.9467,-1.4945,1.7577,2.4275,61
8.782,169,4.6127,-9.032,-12.5099,0.9826,0.0246,1.4671,92,8.381,161,-3.1175,11.285,-7.7332,0.9135,1.4232,0.1613,92,4286.953,82886,0.8467,0.2098,-7.8952,-0.8715,0.6831,1.9516,61
8.834,170,2.536,-9.7652,-16.011,1.3915,-0.5095,1.4613,92,8.432,162,-2.698,9.6125,-7.5343,0.1904,1.0856,-0.2079,92,4287.005,82887,0.6313,0.2009,-8.2999,-0.4202,-0.1088,1.6042,61
8.886,171,1.4422,-2.8569,-19.6821,1.69,-1.026,1.141,92,8.484,163,-2.1218,8.1728,-7.2738,-0.4983,0.3758,-0.4633,92,4287.056,82888,0.4554,0.1823,-8.5528,-0.093,-0.688,1.3505,61
8.937,172,1.2218,0.0531,-20.0578,1.9078,-1.4181,0.2849,92,8.536,164,-1.1758,7.7562,-6.167,-1.0437,-0.3967,-0.3629,92,4287.108,82889,0.3247,0.175,-8.7326,0.1435,-1.111,1.1657,61
8.989,173,3.2807,-2.8158,-21.7157,2.0668,-1.7043,0.0347,92,8.588,165,1.4119,4.7714,-6.7496,-1.4418,-0.9622,-0.4089,92,4287.16,82890,0.2304,0.1941,-8.8718,0.3131,-1.4214,1.0309,61
9.041,174,7.4507,3.3348,-22.9544,2.0889,-1.9132,-0.1899,92,8.64,166,2.8874,2.0942,-5.8258,-0.9241,-1.1528,0.0293,92,4287.212,82891,0.1837,0.2529,-8.9766,0.4348,-1.6479,0.9332,61
9.093,175,9.3503,3.0692,-17.9338,0.8472,-0.8122,0.5381,92,8.692,167,3.2974,0.5483,-3.6818,-0.0027,-1.5065,0.5797,92,4287.264,82892,-3.8691,5.1658,-13.1008,0.2901,-1.4074,1.178,61
9.145,176,7.419,3.7906,-13.1517,-0.059,-0.0089,0.8473,92,8.743,168,4.734,0.7579,-1.5594,0.6697,-1.4731,0.886,92,4287.316,82893,-5.0056,5.1647,-8.2548,0.0269,-0.9636,1.1865,61
9.196,177,7.159,1.8431,-10.9847,-0.7205,0.2562,1.2951,92,8.795,169,4.4862,1.0825,-0.5104,1.1332,-0.7051,1.2255,92,4287.367,82894,-4.7517,5.372,-7.2265,0.625,-0.677,1.5416,61
9.248,178,5.8928,-0.0194,-12.099,-1.2032,0.8384,1.6218,92,8.847,170,3.6226,3.1915,-0.1664,1.4266,-0.0648,1.1685,92,4287.419,82895,-4.1947,6.1184,-8.2383,1.1209,-0.7534,1.8008,61
9.3,179,6.9159,-2.221,-16.8269,-1.5555,-0.022,1.8603,92,8.899,171,3.3678,4.352,-0.2037,1.1263,0.6077,0.8963,92,4287.471,82896,-5.5261,4.0379,-9.0798,1.492,-1.0026,1.99,61
9.352,180,7.4659,-5.1979,-20.2775,-0.5571,-0.6854,1.5786,92,8.951,172,3.0422,4.6102,-1.2009,1.197,1.1221,0.5052,92,4287.523,82897,-6.253,0.9156,-9.758,1.7628,-1.1186,2.1281,61
9.404,181,7.854,-0.4298,-22.4761,0.2671,-0.5541,0.502,92,9.003,173,4.2604,7.3121,-3.4394,1.1552,0.8607,-0.3048,92,4287.574,82898,-7.0639,-1.7368,-8.8377,1.9604,-1.2527,2.2289,61
9.455,182,5.4309,-5.5114,-23.373,-0.4824,0.172,-0.1302,92,9.054,174,7.2461,10.6635,-7.7352,0.222,-0.035,-0.9088,92,4287.626,82899,-4.7647,-0.9918,-7.781,2.1047,-1.5773,1.4849,61
9.507,183,4.6504,-6.9218,-21.8437,-0.0964,-0.5125,0.5489,92,9.106,175,10.2075,5.3633,-2.9977,-0.2457,-0.6982,-1.3497,92,4287.678,82900,-3.2203,-0.605,-6.6247,2.21,-1.8143,0.9368,61
9.559,184,5.8443,-8.7488,-19.4673,0.3769,-0.1084,1.0521,92,9.158,176,3.5482,9.2412,-0.0989,0.4924,-1.1731,-1.0269,92,4287.73,82901,-2.0807,-0.3304,-5.8207,2.2868,-1.9872,0.5359,61
9.611,185,5.7828,-10.8349,-17.5068,0.9494,-0.207,1.4445,92,9.21,177,1.3351,7.4497,0.9869,0.2053,-0.4083,-1.0536,92,4287.781,82902,-1.0394,-0.802,-1.6848,2.3343,-1.6771,0.133,61
9.663,186,4.6385,-11.3967,-16.494,1.3673,0.4659,1.7309,92,9.262,178,1.1905,7.0178,1.5683,0.0951,0.3811,-1.2146,92,4287.833,82903,-0.6162,-0.6029,-3.692,2.3775,-1.542,-0.1783,61
9.714,187,4.3575,-10.7426,-15.8193,1.6723,0.7639,1.7951,92,9.313,179,2.3596,6.5545,0.9466,-0.3663,0.9572,-1.4047,92,4287.885,82904,-0.3118,-0.4502,-5.088,2.4091,-1.441,-0.4058,61
9.766,188,3.1482,-8.2396,-15.9515,1.8949,0.7087,1.298,92,9.365,180,1.8776,5.2885,-0.6608,-0.4381,1.2627,-1.2352,92,4287.937,82905,-0.0927,-0.3251,-6.0939,2.4321,-1.3659,-0.5714,61
9.818,189,1.8011,-3.8725,-17.5202,2.0574,-0.0699,1.1294,92,9.417,181,1.1081,4.2775,-2.2268,-0.5751,0.916,-0.7665,92,4287.988,82906,0.0583,-0.1325,-6.7825,2.422,-1.0,-0.6599,61
9.87,190,3.9162,-2.3581,-16.0091,1.7922,-0.7203,0.7223,92,9.469,182,0.5916,3.5121,-3.2573,-0.8794,0.0993,-0.041,92,4288.04,82907,-2.7363,-4.6281,-3.237,2.4285,-0.7049,-0.9827,61
9.921,191,3.7516,-1.2829,-16.9815,1.9134,-1.1951,0.206,92,9.521,183,0.6605,2.2016,-4.24,-1.3219,-0.6002,0.6355,92,4288.092,82908,-2.7823,-6.2702,-4.8307,1.4727,-0.2567,-0.5919,61
9.973,192,7.7944,-1.4946,-15.1689,1.0286,-1.4478,0.7929,92,9.572,184,3.3446,-0.9281,-2.9664,-1.3082,-1.1107,0.4916,92,4288.143,82909,-4.1087,-7.6558,-7.3597,1.3247,0.1631,0.0619,61
10.025,193,9.1853,-0.4302,-12.44,0.0734,-0.3742,0.9618,92,9.624,185,4.1133,-1.0723,-1.4264,-1.1285,-1.4833,0.5294,92,4288.195,82910,-3.6887,-7.379,-10.185,1.6372,0.3229,0.2956,61
10.077,194,6.9593,0.127,-11.3592,-0.6238,0.4093,0.7856,92,9.676,186,3.988,-1.8942,-0.0927,-1.0197,-1.6837,0.6011,92,4288.247,82911,-3.1855,-6.8076,-10.9684,1.8687,0.0877,-0.0195,61
10.129,195,4.5474,-0.365,-10.3832,-1.1327,0.7411,0.73,92,9.728,187,4.4191,-2.383,0.3126,-0.3353,-1.5205,0.6374,92,4288.299,82912,-2.2562,-6.3246,-10.186,2.0378,-0.451,-0.6903,61
10.18,196,4.1732,-1.9643,-9.3844,-1.504,0.7273,1.0291,92,9.78,188,3.8477,-2.1414,-0.0264,0.427,-1.0524,0.5009,92,4288.35,82913,-1.0679,-6.5224,-8.1628,2.1611,-0.9683,-1.1799,61
10.232,197,3.7005,-3.5131,-10.0032,-1.7751,0.7664,1.4277,92,9.831,189,3.3225,-0.7383,-0.2831,0.9834,-0.6019,0.316,92,4288.402,82914,-0.1536,-5.1382,-7.1574,2.2512,-1.2601,-1.5372,61
10.284,198,3.9995,-4.9048,-11.616,-1.9729,0.4568,1.7187,92,9.883,190,2.037,1.9028,-0.4932,1.3895,-0.0367,0.0738,92,4288.454,82915,-0.8787,-3.1437,-7.4232,2.3169,-1.3042,-1.798,61
10.336,199,4.2997,-7.8545,-16.4744,-2.1173,0.0284,1.931,92,9.935,191,1.5818,2.636,-1.0123,1.3885,0.3184,-0.1957,92,4288.506,82916,-3.7408,-2.3694,-9.432,2.3648,-0.5861,-1.9883,61
10.388,200,8.1944,-5.9455,-18.5981,-1.0078,-0.6486,1.8851,92,9.987,192,1.2876,5.2186,-2.5102,1.5994,0.3212,-0.6233,92,4288.558,82917,-4.5049,-1.3966,-9.6184,2.3998,0.2609,-2.1272,61
10.439,201,6.1457,-7.0687,-17.7304,-0.064,-0.5737,1.5969,92,10.039,193,1.2,9.0101,-3.9003,1.0573,-0.0533,-1.1413,92,4288.609,82918,-2.5622,-0.0352,-7.509,2.4254,0.8791,-2.2286,61
10.491,202,5.8027,-8.9227,-17.7977,0.6277,-0.3294,1.2627,92,10.09,194,3.9773,11.9028,-4.4671,0.5213,-0.7116,-1.5194,92,4288.661,82919,-1.2061,0.9849,-5.989,2.444,1.3303,-2.3026,61
10.543,203,3.2514,-8.7178,-17.1123,1.1325,0.0735,1.2546,92,10.142,195,0.2694,14.014,-10.4116,1.0522,0.1582,-0.8693,92,4288.713,82920,-0.3238,1.8122,-4.9144,2.4576,1.6595,-2.3566,61
10.595,204,0.9225,-7.9812,-16.0897,1.5009,0.206,1.2924,92,10.194,196,0.4012,10.9718,-9.1157,0.5128,0.5515,-0.8961,92,4288.765,82921,-0.0363,1.1981,-4.9312,2.0115,1.1847,-1.7266,61
10.646,205,-0.0289,-4.1785,-18.7763,1.7698,0.2305,1.2991,92,10.246,197,0.4601,8.3279,-7.8237,-0.2654,0.1814,-0.8836,92,4288.817,82922,-0.0226,0.917,-6.2567,1.6901,0.8396,-1.2665,61
10.698,206,-0.5225,-1.7376,-18.9301,1.9661,-0.5011,0.5459,92,10.298,198,1.0715,6.6648,-6.489,-0.8737,-0.4319,-0.3395,92,4288.868,82923,-0.009,0.714,-7.2038,1.4556,0.5876,-0.9314,61
10.75,207,4.628,2.6954,-17.7741,2.1093,-1.0351,-0.2767,92,10.349,199,2.1003,7.526,-6.4826,-1.3177,-0.9879,0.2668,92,4288.92,82924,-0.0131,0.5576,-7.9194,1.2838,0.4043,-0.6881,61
10.802,208,6.8347,-2.4929,-20.9688,2.2138,-1.4248,-0.8771,92,10.402,200,3.8418,3.3443,-6.8096,-1.6418,-1.3937,0.3351,92,4288.972,82925,0.001,0.4359,-8.4426,1.1588,0.2691,-0.5111,61
10.854,209,10.0446,3.4871,-16.6254,1.1995,-1.1319,-0.5298,92,10.453,201,4.6011,1.9407,-4.8413,-0.5265,-1.5825,0.609,92,4289.024,82926,-5.2308,-4.9397,-13.5522,1.1657,0.2931,-0.8798,61
10.906,210,10.9937,2.8488,-15.2885,0.1981,-0.1437,0.29,92,10.505,202,5.2087,1.6611,-3.6538,0.2875,-1.5298,0.8947,92,4289.075,82927,-5.6983,-1.6854,-11.2961,1.0751,0.1758,-0.6529,61
10.957,211,8.3363,1.5088,-13.6749,-0.5328,0.5775,0.8779,92,10.557,203,5.2303,0.9405,-2.4473,0.5864,-1.25,1.0602,92,4289.127,82928,-8.0533,0.5917,-10.564,0.8847,0.5645,0.0482,61
11.009,212,4.9351,0.607,-12.9757,-1.0663,1.1039,1.3174,92,10.609,204,5.0241,0.5669,-2.0494,0.9506,-0.5764,1.3172,92,4289.179,82929,-8.5417,1.7828,-11.2602,1.1424,1.1006,0.7109,61
11.061,213,2.0293,-0.6678,-14.54,-1.4556,0.8827,1.1476,92,10.661,205,4.1474,0.9993,-1.8426,1.3655,-0.0385,1.1799,92,4289.231,82930,-9.3172,0.6117,-9.3643,1.5076,1.492,1.1945,61
11.113,214,2.0385,-4.2492,-18.6085,-1.7397,-0.0251,1.0247,92,10.712,206,3.6019,1.9463,-2.2092,1.6683,0.4802,0.803,92,4289.282,82931,-8.2032,-1.3531,-6.6797,1.7742,1.7776,1.5475,61
11.164,215,5.328,-8.299,-21.5778,-0.6986,-0.6876,0.7426,92,10.764,207,2.7166,2.9135,-2.7921,1.8642,0.7317,0.3567,92,4289.334,82932,-6.4959,-2.6728,-3.5809,1.9688,1.986,1.8051,61
11.216,216,2.4146,-8.2428,-16.9868,-0.9122,0.1805,0.5546,92,10.816,208,2.6052,4.3967,-4.7745,2.0323,0.5171,-0.1042,92,4289.386,82933,-6.298,-0.7957,-2.923,2.1108,2.1369,1.9932,61
11.268,217,2.7984,-8.4007,-17.2992,0.0086,-0.5376,0.7343,92,10.868,209,4.866,8.5358,-5.7882,1.3386,-0.2933,-0.7624,92,4289.437,82934,-5.6769,-0.5458,-3.5462,2.2144,1.8539,2.1304,61
11.32,218,4.2276,-8.9765,-16.4369,0.6807,0.2671,0.7706,92,10.92,210,3.8113,5.6893,-12.1643,0.3511,0.3648,0.0121,92,4289.489,82935,-5.2568,-0.3617,-3.9607,2.2901,1.5949,2.2305,61
11.372,219,1.8487,-9.2712,-16.7342,1.1711,0.7688,1.1924,92,10.971,211,4.0676,5.4653,-9.3262,0.2995,0.3886,-0.4848,92,4289.541,82936,-4.9417,-0.335,-4.1967,2.3453,1.3424,2.3036,61
11.423,220,1.3623,-8.3092,-16.3215,1.5291,0.3983,1.0175,92,11.023,212,3.1022,6.3183,-8.1334,-0.051,0.4515,-0.9235,92,4289.593,82937,-3.8579,-0.1195,-3.2755,2.3251,1.117,1.9417,61
11.475,221,0.2696,-2.9344,-19.9087,1.7904,0.9714,0.6019,92,11.075,213,2.6456,4.9249,-7.595,-0.7173,0.2438,-0.8447,92,4289.645,82938,-2.8344,-0.1017,-4.9131,2.3216,0.9351,1.6753,61
11.527,222,-0.9669,-0.6966,-15.2579,1.9811,0.0397,-0.1209,92,11.127,214,3.0987,3.6546,-6.592,-1.2035,-0.2686,-0.5723,92,4289.696,82939,-2.0972,-0.0891,-6.0866,2.3201,0.7994,1.4809,61
11.579,223,2.5301,-1.4784,-12.1144,1.873,-0.6404,-0.7634,92,11.179,215,3.4035,3.1721,-7.4003,-1.5584,-0.7275,-0.2238,92,4289.748,82940,-1.5524,-0.0768,-6.9374,2.3202,0.6972,1.3393,61
11.631,224,6.9029,3.0403,-16.8381,2.0414,-1.1367,-1.2322,92,11.23,216,4.945,-0.8364,-6.7,-1.4656,-1.2036,-0.3139,92,4289.8,82941,4.2254,5.2751,-2.4998,2.3658,0.6682,1.013,61
11.682,225,10.0837,3.8168,-15.3015,0.8125,-0.1472,-0.3418,92,11.282,217,5.622,-0.7663,-5.4488,-0.398,-1.551,-0.2105,92,4289.852,82942,4.7545,0.9644,0.6829,1.9876,0.9758,1.415,61
11.734,226,8.927,3.8192,-13.9205,-0.0844,0.575,-0.2983,92,11.334,218,5.1551,-2.3335,-4.076,-0.1316,-1.5352,-0.2807,92,4289.903,82943,3.0376,0.8563,0.9651,2.0296,0.7837,1.2222,61
11.786,227,6.2634,4.2141,-12.956,-0.739,1.0697,-0.5409,92,11.386,219,4.8045,-3.0171,-3.1031,0.3418,-1.4243,-0.1356,92,4289.955,82944,2.3599,1.2149,0.2901,2.1552,0.6203,1.1218,61
11.838,228,4.3855,3.1902,-12.4521,-1.2167,0.7359,-0.0542,92,11.438,220,4.3752,-3.8482,-2.5211,0.9198,-0.9286,-0.0987,92,4290.007,82945,1.5867,2.682,0.0093,2.2468,0.2581,1.3477,61
11.89,229,3.5643,0.4693,-14.6301,-1.5654,0.5086,0.6371,92,11.489,221,4.065,-2.214,-2.0536,1.343,-0.2487,-0.432,92,4290.059,82946,0.9105,3.7092,-0.3955,2.3137,-0.361,1.6593,61
11.941,230,3.2496,-4.2855,-18.6742,-1.8199,0.134,1.1416,92,11.541,222,2.6279,2.6867,-2.4365,1.6519,0.2448,-0.6112,92,4290.111,82947,-1.698,2.4837,-0.5075,2.3625,-0.8628,1.8867,61
11.993,231,2.3228,-6.8288,-21.6257,-0.9249,-0.5716,1.4306,92,11.593,223,1.95,3.6712,-2.1829,1.5736,0.4477,-0.8674,92,4290.162,82948,-2.8432,-1.9417,-1.5371,2.3981,-0.8629,2.0197,61
12.045,232,2.3608,-9.5692,-18.329,-1.2772,0.2304,1.6921,92,11.645,224,0.9883,8.0063,-3.787,0.8858,0.0399,-1.3195,92,4290.214,82949,-0.9971,-5.0563,-1.306,2.4242,-0.8958,1.0083,61
12.097,233,1.4031,-6.4619,-18.2375,-0.4743,0.2118,1.6879,92,11.697,225,2.3872,10.7457,-3.968,-0.0183,-0.6046,-1.6494,92,4290.266,82950,0.3292,-3.617,-1.8228,2.4431,-1.1511,0.0598,61
12.149,234,0.7491,-7.685,-18.5779,-0.2964,0.0161,1.6182,92,11.749,226,6.6612,2.5819,-0.2482,-0.372,0.125,-1.8203,92,4290.318,82951,1.3008,-2.5557,-2.2262,2.457,-1.3005,-0.6324,61
12.2,235,-0.4609,-8.1966,-17.3716,0.2918,-0.1774,1.4102,92,11.8,227,9.7806,0.4755,0.0053,-0.9058,-0.5719,-2.0149,92,4290.369,82952,0.0643,-3.693,-9.6503,2.0138,-1.5856,-1.1074,61
12.252,236,-0.9855,-8.314,-16.2501,0.8873,-0.7664,1.2043,92,11.852,228,9.3593,1.1658,-0.2303,-1.14,-0.3997,-2.0299,92,4290.421,82953,0.1438,-2.8586,-9.1468,1.8098,-1.8203,-1.4843,61
12.304,237,-1.1955,-8.9472,-16.2203,1.322,-1.0305,0.6815,92,11.904,229,6.7593,1.2913,-0.5674,-1.2296,-0.1288,-1.5411,92,4290.473,82954,0.2336,-2.2299,-9.112,1.6714,-1.9917,-1.7594,61
12.356,238,-1.8455,-5.7107,-17.8824,1.6392,-1.4095,-0.0534,92,11.956,230,5.6345,0.7767,-0.9794,-1.417,-0.0516,-0.5666,92,4290.525,82955,0.2889,-1.7872,-9.0955,1.5789,-2.1167,-1.9601,61
12.408,239,-1.4944,-2.1842,-18.648,1.8708,-1.6981,-0.7141,92,12.008,231,5.2634,1.2688,-1.8491,-1.5188,-0.2828,0.2519,92,4290.576,82956,0.3311,-1.4777,-9.0761,1.523,-2.2079,-2.1066,61
12.459,240,1.1354,3.7958,-18.2625,2.0397,-1.9087,-1.1963,92,12.059,232,4.6087,2.8037,-2.2185,-1.5555,-0.7484,0.8492,92,4290.628,82957,0.3788,-1.283,-9.0506,1.491,-2.2741,-2.2136,61
12.511,241,5.885,2.663,-15.5413,0.8113,-2.0624,-0.4022,92,12.111,233,3.0023,3.7734,-2.3356,-1.7308,-1.2189,1.2852,92,4290.68,82958,-2.3957,-1.6139,-7.6318,1.7621,-1.0163,-1.9883,61
12.563,242,7.1288,3.1061,-12.3238,0.2654,-1.5811,0.0633,92,12.163,234,2.1169,2.5668,-1.9131,-1.9432,-1.5623,1.6033,92,4290.731,82959,-3.2207,-1.8921,-7.8775,1.4626,-0.3634,-1.9326,61
