right_hand_timestamp,right_hand_index,right_hand_accel_x,right_hand_accel_y,right_hand_accel_z,right_hand_gyro_x,right_hand_gyro_y,right_hand_gyro_z,right_hand_battery_percentage,left_hand_timestamp,left_hand_index,left_hand_accel_x,left_hand_accel_y,left_hand_accel_z,left_hand_gyro_x,left_hand_gyro_y,left_hand_gyro_z,left_hand_battery_percentage,ball_timestamp,ball_index,ball_accel_x,ball_accel_y,ball_accel_z,ball_gyro_x,ball_gyro_y,ball_gyro_z,ball_battery_percentage
0.557,10,-3.4703,-0.8653,-6.7416,0.6093,-0.6837,-0.8265,91,0.567,10,2.7947,5.8278,-17.4069,0.9402,0.8336,-0.5498,92,4968.196,96056,-5.8887,-4.5973,-7.876,-0.0974,0.4,-0.38,61
0.609,11,-3.0455,-0.8408,-9.0489,1.1168,-1.1683,-1.2783,91,0.619,11,1.1925,7.7018,-17.9456,1.3579,1.2835,-0.8902,92,4968.247,96057,-3.2338,-2.1628,-8.4472,0.0354,0.3667,-0.2348,61
0.661,12,-0.1945,-5.8114,-14.6008,1.4895,-1.522,-1.6081,91,0.67,12,1.8711,9.7731,-21.0373,0.4938,0.2641,-1.2959,92,4968.299,96058,2.04,-0.0136,-10.2936,0.301,0.1948,0.2228,61
0.712,13,4.9149,1.1485,-8.2007,0.4097,-0.5493,-1.3124,91,0.722,13,6.1236,12.4597,-23.2938,0.9582,-0.4799,-1.6321,92,4968.351,96059,5.9578,5.3212,-10.988,0.8936,-0.2923,0.8383,61
0.764,14,5.8149,0.1846,-9.2185,-0.3784,0.2815,-1.025,91,0.774,14,6.6631,14.4205,-19.3553,0.6137,-1.0229,-1.8776,92,4968.403,96060,4.6697,3.9395,-11.043,1.174,-0.6837,1.2875,61
0.816,15,4.4364,-0.3307,-10.6932,-0.9535,0.8879,-0.9387,91,0.826,15,6.3402,13.1483,-13.1411,-0.2321,-1.4193,-2.0567,92,4968.454,96061,3.2209,3.0443,-10.4441,1.3733,-0.973,1.6154,61
0.868,16,1.6478,-3.976,-13.1211,-1.3733,1.3305,-0.6547,91,0.878,16,3.185,7.9345,-12.7865,-0.8494,-0.5069,-2.1875,92,4968.506,96062,-2.8808,-1.367,-5.0591,1.1678,-0.6576,1.3779,61
0.92,17,1.1544,-8.0996,-16.0163,-0.5229,0.3818,-0.3256,91,0.929,17,0.611,7.8109,-13.0745,-1.184,-1.0426,-1.3229,92,4968.558,96063,-2.0451,-0.9147,-5.6597,0.3989,-0.0401,0.7611,61
0.971,18,5.8993,-11.1092,-17.8919,-0.2306,-0.3907,0.439,91,0.981,18,3.1534,5.9465,-12.2541,-0.5311,-0.1502,-1.0737,92,4968.609,96064,-1.5735,-0.4841,-6.603,-0.1844,0.413,-0.0154,61
1.023,19,8.0065,-12.1923,-14.3318,-0.3827,-0.9545,0.997,91,1.033,19,-3.3685,7.403,-12.4822,-0.9376,0.5695,-1.0071,92,4968.661,96065,-1.2271,-0.2007,-7.3206,-0.6159,0.7389,-0.6638,61
1.075,20,4.7556,-11.6026,-9.6787,-0.6475,-1.2452,1.4043,91,1.085,20,-5.0314,6.8668,-12.584,-0.5852,0.0911,-0.3358,92,4968.713,96066,-0.9836,-0.0148,-7.8456,-0.9374,0.971,-1.1584,61
1.127,21,2.2223,-9.5593,-9.8167,0.197,-1.3341,1.7016,91,1.137,21,-8.1949,6.9551,-12.6326,-0.778,0.1269,-0.2639,92,4968.765,96067,-0.7973,0.1061,-8.2382,-1.1773,1.135,-1.5207,61
1.179,22,1.0908,-7.8752,-11.0675,0.454,-1.5726,1.9185,91,1.188,22,-8.1267,6.4651,-12.3901,-0.5636,-0.5478,-0.1868,92,4968.816,96068,-0.6564,0.1844,-8.5169,-1.3586,1.2494,-1.7848,61
1.23,23,2.213,-4.4214,-11.9123,1.0058,-1.8171,1.6076,91,1.24,23,-7.8566,7.2902,-12.5421,-0.2034,-0.4516,-0.2982,92,4968.868,96069,-0.5485,0.2538,-8.7213,-1.496,1.3278,-1.9775,61
1.282,24,1.8948,-4.6955,-8.7994,0.0567,-0.6947,0.9617,91,1.292,24,-6.9288,6.3876,-11.7065,-0.49,-0.5821,-0.243,92,4968.92,96070,-0.477,0.286,-8.8902,-1.6012,1.3784,-2.1187,61
1.334,25,-2.5398,-5.4417,-7.5959,0.6184,-0.408,0.5398,91,1.344,25,-6.1989,5.4479,-11.2636,0.0282,-0.0809,-0.3394,92,4968.972,96071,-1.1279,-1.3916,-9.531,-1.5042,1.4406,-2.2224,61
1.386,26,-5.7312,-6.882,-7.2352,0.1711,-0.3381,0.4163,91,1.396,26,-5.3361,4.935,-10.7067,0.1514,-0.1379,0.1587,92,4969.024,96072,-0.1414,-0.7717,-10.3706,-1.222,0.8497,-1.7911,61
1.438,27,-4.6932,-4.784,-6.1879,0.7307,-0.7567,0.1545,91,1.447,27,-4.0925,4.4677,-10.1781,0.4661,0.025,0.7812,92,4969.075,96073,0.8186,-2.6149,-11.8533,-0.8026,0.5582,-1.2516,61
1.489,28,-6.2439,-5.1866,-6.1167,0.9907,-0.3911,0.2691,91,1.499,28,-3.0604,5.0831,-9.2027,0.4967,0.3291,1.2355,92,4969.127,96074,1.0062,-3.0369,-13.4234,-0.0905,0.2363,-0.6761,61
1.541,29,-6.3447,-5.7496,-6.1907,0.674,-0.1255,0.2916,91,1.551,29,-2.6461,7.3908,-8.3214,-0.3175,0.538,1.5671,92,4969.179,96075,-0.6821,-6.7683,-13.4552,0.2855,0.0258,-0.2809,61
1.593,30,-5.9673,-4.8506,-6.1231,0.7559,0.0028,0.2001,91,1.603,30,-5.9768,10.721,-14.0132,-0.9118,-0.28,1.8091,92,4969.231,96076,-3.0878,-7.5338,-12.4179,0.3935,0.0418,-0.2181,61
1.645,31,-5.5607,-4.1262,-6.0256,0.6182,-0.0453,-0.1053,91,1.655,31,0.5573,2.5638,-11.1879,-0.3413,-0.8771,1.7322,92,4969.282,96077,-2.6718,-8.0971,-11.891,0.2722,0.2818,-0.1526,61
1.696,32,-4.8886,-3.5862,-6.6622,0.3161,-0.0992,-0.7295,91,1.707,32,0.9961,7.198,-13.5087,0.4226,0.039,0.5779,92,4969.334,96078,-2.1775,-7.7491,-11.3087,0.254,0.3913,0.0005,61
1.748,33,-4.1411,-2.7803,-7.3989,0.2943,-0.5781,-1.2075,91,1.758,33,0.9247,5.9279,-11.6571,0.8473,0.5934,0.2667,92,4969.386,96079,-1.8148,-6.8377,-11.1377,0.1456,0.2798,-0.0218,61
1.8,34,-2.8943,-1.7228,-7.1465,0.0144,-1.0912,-1.5564,91,1.81,34,0.0147,6.5021,-11.1623,1.2901,0.923,-0.3826,92,4969.438,96080,-1.035,-5.0516,-10.9284,-0.022,0.2277,0.053,61
1.852,35,0.0033,-5.3033,-8.2361,-0.3101,-1.4658,-1.8111,91,1.862,35,0.1338,9.2423,-12.7598,1.6133,0.3907,-0.9569,92,4969.49,96081,0.6056,-1.2111,-10.3011,0.2517,0.0676,0.6263,61
1.904,36,5.0592,1.5193,-14.0076,0.448,-1.7391,-1.9969,91,1.914,36,1.5948,11.6845,-14.7607,1.8492,-0.021,-1.3847,92,4969.541,96082,2.0726,3.7936,-9.3058,0.8576,-0.4847,1.1328,61
1.956,37,8.7492,-0.5246,-15.2302,-0.3504,-0.5869,-0.9415,91,1.966,37,1.1574,12.3787,-15.2432,1.5339,-0.688,-1.697,92,4969.593,96083,3.9198,6.1088,-8.9409,1.2998,-1.0168,1.5025,61
2.007,38,6.8443,-2.6687,-13.2228,-0.9331,0.2541,-0.62,91,2.017,38,0.4561,12.6456,-14.9912,1.0352,-1.1748,-1.9249,92,4969.645,96084,2.7497,4.6145,-8.9519,1.3579,-1.4052,1.7723,61
2.059,39,4.2445,-2.1398,-12.2085,-1.3584,0.8678,-0.1996,91,2.069,39,-0.8837,12.452,-14.015,0.9207,-1.5301,-2.0913,92,4969.697,96085,1.8762,3.5625,-8.8101,1.3899,-1.6887,1.9692,61
2.111,40,3.3469,-3.5036,-10.7747,-1.6688,1.0804,0.1839,91,2.121,40,0.5062,8.3069,-9.4803,0.0378,-1.7894,-1.6881,92,4969.748,96086,6.1678,7.784,-11.8336,0.8498,-1.0746,1.3131,61
2.163,41,3.3817,-7.3175,-11.0381,-1.8953,0.9692,0.81,91,2.173,41,-0.232,9.0708,-13.0015,0.6976,-0.6269,-1.4553,92,4969.8,96087,4.4696,5.7075,-11.0843,0.441,-0.5984,0.6729,61
2.214,42,3.9545,-10.5384,-11.156,-1.68,0.3643,1.2678,91,2.225,42,-1.1081,8.5596,-12.5995,-0.1709,-1.1302,-1.2659,92,4969.852,96088,3.2662,4.192,-10.7079,0.1406,-0.2522,0.2067,61
2.266,43,3.3786,-10.2854,-9.7121,-1.2498,-0.0703,1.6019,91,2.276,43,-1.7171,7.2386,-11.1199,-0.1356,-0.2085,-1.3265,92,4969.903,96089,2.3847,3.0971,-10.4087,-0.0803,0.0001,-0.1332,61
2.318,44,0.6837,-10.3947,-9.2651,-1.0515,-0.634,1.8458,91,2.328,44,-4.493,6.9533,-11.3638,-0.1561,-0.0106,-1.1404,92,4969.955,96090,1.7437,2.2834,-10.2226,-0.2427,0.1836,-0.3809,61
2.37,45,-1.0915,-9.7442,-8.7169,-0.3556,-0.7434,2.0238,91,2.38,45,-4.316,6.5795,-11.4571,-0.0921,-0.5452,-0.7228,92,4970.007,96091,1.2884,1.6951,-10.0628,-0.3617,0.3165,-0.562,61
2.422,46,0.586,-6.6957,-8.6139,0.4148,-1.2091,1.8894,91,2.432,46,-3.8989,5.4086,-11.2322,-0.0481,-0.3658,-0.3011,92,4970.059,96092,0.9438,1.2379,-9.9923,-0.4496,0.412,-0.6935,61
2.473,47,-0.0753,-8.1116,-7.4836,0.0023,-0.9665,1.5108,91,2.484,47,-3.6906,4.6935,-11.1743,0.0793,-0.1234,0.3268,92,4970.11,96093,0.6882,0.9092,-9.9454,-0.5142,0.4803,-0.7889,61
2.525,48,-0.7646,-7.4426,-6.9386,0.6303,-0.6221,1.3273,91,2.536,48,-2.366,4.6029,-9.4933,0.3211,0.0418,0.9039,92,4970.162,96094,-0.2414,-3.8299,-9.9664,-0.3752,0.444,-1.2518,61
2.577,49,-2.6445,-6.6408,-6.1998,0.8943,-0.5059,1.1834,91,2.588,49,-1.3837,6.1934,-6.4326,0.1897,0.7096,1.3251,92,4970.214,96095,-2.0443,-2.2883,-8.6518,-0.7231,0.3013,-1.2439,61
2.629,50,-3.234,-6.0978,-6.5695,0.8332,-0.3753,1.001,91,2.639,50,-2.241,9.8471,-11.8049,-0.5416,-0.0776,1.6325,92,4970.266,96096,-3.3907,-3.2981,-8.1467,-0.5007,0.1941,-1.1239,61
2.68,51,-3.5315,-4.9649,-7.0481,0.8929,-0.3658,0.6637,91,2.691,51,3.2839,1.926,-7.4588,-0.8667,-0.7293,1.8568,92,4970.317,96097,-2.6912,-3.7349,-8.62,-0.3085,0.1555,-1.0884,61
2.732,52,-3.3707,-4.666,-7.405,0.1903,-0.4195,0.1006,91,2.743,52,2.505,2.356,-9.7931,0.0392,0.1468,0.6688,92,4970.369,96098,-2.7311,-4.1553,-8.8111,-0.0242,-0.0301,-1.0429,61
2.784,53,-3.4163,-3.9531,-6.9983,-0.0474,-0.5232,-0.6017,91,2.795,53,0.5952,7.0464,-9.7925,0.5146,0.7318,0.0095,92,4970.421,96099,-3.2678,-3.8573,-8.5624,0.2867,-0.1527,-0.83,61
2.836,54,-3.2317,-2.0469,-6.6653,0.0507,-1.0512,-1.1143,91,2.847,54,-0.4124,5.5864,-10.2938,0.3941,1.2132,-0.6181,92,4970.473,96100,-3.234,-3.6801,-8.6398,0.487,-0.0686,-0.5544,61
2.888,55,-2.6748,-4.3931,-12.8322,0.3957,-1.4366,-1.4884,91,2.898,55,-3.8374,5.6465,-11.4238,0.9593,1.3716,-0.5827,92,4970.524,96101,-2.0136,-2.4114,-8.8997,0.6356,0.0815,-0.19,61
2.939,56,3.1046,2.1837,-6.7744,0.9632,-1.7178,-1.7539,91,2.95,56,-2.9395,8.9413,-16.2774,1.3719,0.3284,-0.7088,92,4970.576,96102,0.8695,-0.0309,-10.3544,1.0122,0.1272,0.1018,61
2.991,57,7.3227,-3.604,-4.4039,0.0256,-0.9333,-1.272,91,3.002,57,-1.0046,10.2029,-19.8198,1.632,-0.433,-1.2037,92,4970.628,96103,1.0953,1.9642,-12.8994,1.3554,0.2746,0.0074,61
3.043,58,5.4191,-2.729,-3.2843,-0.6492,0.0013,-1.1387,91,3.054,58,2.4979,12.7734,-22.4052,1.8628,-0.9887,-1.5649,92,4970.68,96104,0.7464,1.4013,-11.9391,1.2359,0.6057,-0.1244,61
3.095,59,2.6061,-2.1083,-3.9781,-1.1512,0.6834,-0.6905,91,3.106,59,3.2511,13.2181,-19.4781,1.4189,-1.3943,-1.8285,92,4970.732,96105,0.5532,0.9637,-11.2154,1.1477,0.8451,-0.2184,61
3.146,60,0.5727,-2.5708,-5.4899,-1.5176,1.159,-0.3655,91,3.158,60,5.4295,12.4202,-11.5846,1.5528,-1.0608,-1.856,92,4970.783,96106,0.409,0.5727,-10.638,1.0845,1.021,-0.2844,61
3.198,61,2.5414,-4.6909,-6.2671,-1.785,1.231,0.3337,91,3.209,61,1.68,10.8106,-13.6494,1.067,-0.0951,-1.2647,92,4970.835,96107,-2.4895,1.4465,-11.3905,1.3782,0.5571,0.199,61
3.25,62,5.1249,-8.6214,-9.2787,-1.9801,1.2261,0.9202,91,3.261,62,-0.0446,9.0674,-13.2625,0.447,-0.7384,-0.9923,92,4970.887,96108,-1.9145,1.1171,-10.794,1.6055,0.2032,0.5696,61
3.302,63,6.9273,-11.49,-11.4972,-1.4215,0.2256,1.3482,91,3.313,63,-0.1321,8.4347,-13.4432,-0.3298,-0.5363,-0.7338,92,4970.939,96109,-1.4535,0.8703,-10.3613,1.7692,-0.0594,0.8378,61
3.354,64,6.4176,-12.0346,-9.7779,-0.9672,-0.3908,1.6606,91,3.365,64,-1.9261,6.9843,-13.2138,-0.1282,-0.0097,-0.6287,92,4970.991,96110,-1.1104,0.6784,-10.0567,1.8858,-0.2555,1.033,61
3.406,65,4.0577,-9.2057,-9.9654,-0.5003,-0.5332,1.8886,91,3.417,65,-2.7613,5.3587,-13.6144,0.0201,-0.3304,-0.2374,92,4971.042,96111,-0.8626,0.5496,-9.8418,1.9689,-0.4024,1.1759,61
3.457,66,1.7186,-5.2547,-8.6004,-0.1304,-0.7579,1.2027,91,3.468,66,-2.3619,7.7601,-13.2059,0.671,-0.1612,-0.1292,92,4971.094,96112,-0.6886,0.4573,-9.664,2.0268,-0.5139,1.2798,61
3.509,67,0.708,-8.4271,-8.6944,-0.3499,-0.6524,1.0793,91,3.52,67,-4.268,6.1686,-13.8173,0.1757,0.5614,-0.1981,92,4971.146,96113,-0.3277,-2.063,-7.2996,2.0367,-0.6022,1.3463,61
3.561,68,-0.584,-6.5646,-8.9001,0.1091,-0.2422,1.0861,91,3.572,68,-6.6463,8.0059,-13.9908,0.0181,0.1075,-0.0452,92,4971.197,96114,-1.572,-1.2976,-6.6927,1.5777,-0.6522,0.8725,61
3.613,69,-1.6599,-6.4987,-8.9621,-0.1926,0.0223,0.9718,91,3.624,69,-7.2164,8.0403,-14.0466,-0.6668,0.0367,-0.1931,92,4971.249,96115,-0.8078,-0.7039,-6.1465,1.2703,-0.6271,0.5159,61
3.664,70,-2.5972,-7.0716,-9.3383,-0.2311,-0.0168,0.7646,91,3.676,70,-7.4155,7.9861,-14.0915,-0.8948,-0.2205,-0.3317,92,4971.301,96116,-2.1256,1.0695,-5.8112,0.7429,-0.583,0.1956,61
3.716,71,-3.0369,-8.0236,-10.2338,0.3645,-0.1428,0.6664,91,3.727,71,-7.0418,6.5871,-13.2751,-1.288,-0.1275,-0.6602,92,4971.353,96117,-1.8655,1.562,-5.8279,0.3992,-0.3738,-0.158,61
3.768,72,-4.297,-5.8754,-9.7262,0.6402,-0.1681,0.2813,91,3.779,72,-7.411,5.9874,-12.0928,-0.4898,0.0284,-0.5253,92,4971.404,96118,-1.3663,1.5947,-5.3209,0.0723,-0.2071,-0.5311,61
3.82,73,-6.5575,-7.0696,-8.5176,0.7166,-0.1848,0.1169,91,3.831,73,-7.4852,5.8275,-12.194,-0.9911,0.0055,-0.4975,92,4971.456,96119,-2.4589,1.2991,-4.6005,-0.1832,-0.362,-0.7758,61
3.872,74,-7.4253,-5.9032,-8.2033,1.1904,-0.3943,0.1842,91,3.883,74,-7.8146,6.1734,-11.9828,-0.6219,-0.0092,-0.2595,92,4971.508,96120,-2.6745,1.6992,-3.4938,-0.2871,-0.358,-0.7089,61
3.923,75,-7.648,-6.8084,-7.8346,0.9621,-0.1846,0.3373,91,3.935,75,-7.4138,5.7073,-11.3771,-0.7116,0.0196,-0.1414,92,4971.56,96121,-2.8351,0.3566,-1.6697,-0.1872,-0.3901,-0.5122,61
3.975,76,-7.1531,-4.2572,-7.6445,0.591,-0.1821,0.1976,91,3.986,76,-7.2544,5.9223,-11.4194,-0.3523,0.0941,0.1511,92,4971.611,96122,-3.1923,-1.1162,-0.1583,-0.1466,-0.433,-0.3762,61
4.027,77,-7.0206,-5.6392,-7.392,0.8336,-0.2507,0.1137,91,4.038,77,-5.5383,5.178,-11.2537,-0.2403,-0.0579,0.7713,92,4971.663,96123,-2.4617,-1.1663,-0.243,0.0903,-0.4515,-0.1253,61
4.079,78,-7.7166,-4.9874,-7.2885,0.7882,-0.3368,0.0707,91,4.09,78,-4.1883,3.8854,-10.4318,-0.323,0.2289,1.2283,92,4971.715,96124,-3.0759,-0.4516,-0.6958,0.2868,-0.3474,-0.002,61
4.13,79,-7.7109,-4.4707,-7.2167,0.6202,-0.4802,0.0875,91,4.142,79,-3.2192,3.5928,-7.6066,-0.9158,0.1958,1.5618,92,4971.767,96125,-2.7339,-0.5354,-0.498,0.5046,-0.2833,0.0771,61
4.182,80,-5.8625,-2.4593,-6.9676,0.9235,-0.815,0.006,91,4.194,80,-2.6158,7.949,-11.1317,-1.3484,-0.5297,1.8053,92,4971.819,96126,-2.4769,-0.9815,-0.9091,0.4817,-0.1918,0.1524,61
4.234,81,-5.8477,-2.9172,-6.5597,0.6691,-0.9489,-0.04,91,4.246,81,3.0104,0.5407,-8.8013,-1.6641,-1.0593,1.9829,92,4971.87,96127,-2.0963,-0.8817,-0.8035,0.3117,-0.1581,0.1868,61
4.286,82,-5.5957,-3.1944,-6.467,0.0484,-0.7933,-0.3716,91,4.297,82,4.622,0.5545,-11.0896,-0.5428,-0.094,0.7609,92,4971.922,96128,-2.4991,-1.0132,-0.5257,0.2375,-0.0458,0.1916,61
4.337,83,-4.9272,-2.4307,-6.4232,-0.034,-1.0528,-0.9437,91,4.349,83,3.079,5.3878,-10.9155,0.2755,0.6104,-0.1311,92,4971.974,96129,-2.2623,-0.5918,-0.88,0.2656,0.0711,0.1776,61
4.389,84,-4.4354,-1.9928,-6.7513,-0.0155,-1.4377,-1.3639,91,4.401,84,2.4527,4.7152,-10.5431,0.4465,1.1246,-0.7809,92,4972.026,96130,-2.2468,-0.322,-2.1582,0.2553,0.1671,0.2021,61
4.441,85,-4.2538,-2.6814,-7.4158,0.6565,-1.7186,-1.6705,91,4.453,85,2.0449,6.6309,-10.9895,0.9976,1.2928,-1.2563,92,4972.077,96131,-1.9828,-0.8117,-4.2402,0.2611,0.4201,0.3495,61
4.493,86,-0.7796,-5.1685,-13.4089,1.1535,-1.9237,-1.8943,91,4.505,86,3.0792,7.4834,-12.8758,1.3998,1.0217,-1.6033,92,4972.129,96132,-0.8099,-0.3588,-7.8327,0.6437,0.9929,0.5707,61
4.545,87,4.4878,1.6177,-7.1952,0.5016,-0.7404,-1.6648,91,4.556,87,3.2002,8.7124,-15.1671,1.5252,0.1092,-1.8565,92,4972.181,96133,0.0586,0.365,-11.5048,1.1437,1.4133,0.6888,61
4.596,88,4.5184,-1.5334,-8.1344,-0.3113,0.142,-0.8785,91,4.608,88,3.187,11.4714,-16.7354,1.7849,-0.593,-2.0414,92,4972.232,96134,1.3008,0.2411,-10.1424,1.5086,1.7202,0.2453,61
4.648,89,3.7278,-3.0399,-8.0322,-0.9045,0.7861,-0.5458,91,4.66,89,1.6675,11.0244,-12.9418,1.9744,-0.722,-2.1762,92,4972.284,96135,0.9874,0.3806,-9.0491,1.7749,1.9441,-0.0866,61
4.7,90,2.3164,-4.4808,-8.8877,-1.3376,1.2531,0.0438,91,4.712,90,-1.2851,11.5371,-10.8135,1.5705,-0.4609,-2.2747,92,4972.336,96136,-4.5109,-4.1014,-6.2088,1.9693,2.1076,-0.3316,61
4.752,91,1.4793,-7.4744,-10.0883,-1.4836,0.9927,0.7086,91,4.764,91,-2.83,13.0192,-15.832,0.5657,-0.9568,-2.3465,92,4972.388,96137,-2.9307,-3.1289,-7.2638,1.2317,0.9216,-0.7558,61
4.804,92,1.8015,-9.3175,-12.0738,-1.5907,0.056,1.1938,91,4.815,92,2.8539,4.2412,-8.9071,-0.2672,-1.371,-1.0472,92,4972.44,96138,-2.1589,-2.3793,-7.8204,0.7026,0.049,-1.0653,61
4.856,93,3.5323,-11.998,-12.1079,-1.7632,-0.6284,1.5479,91,4.867,93,-0.9306,1.5103,-11.3052,-0.875,-0.3215,-0.9008,92,4972.491,96139,-1.5978,-1.825,-8.2252,0.3243,-0.5886,-1.2921,61
4.908,94,2.0086,-12.726,-9.9514,-1.9495,-1.1066,1.8064,91,4.919,94,-0.7141,2.561,-12.7981,-1.0729,-0.3309,-0.3901,92,4972.543,96140,-1.1758,-1.4086,-8.502,0.0547,-1.0529,-1.4592,61
4.959,95,0.2984,-11.4219,-8.1321,-1.4581,-1.477,1.995,91,4.971,95,-6.1912,2.782,-14.0381,-0.9201,0.4311,-0.0608,92,4972.595,96141,-0.7989,-1.1238,-8.6658,-0.1362,-1.3997,-1.5775,61
5.011,96,-1.1517,-9.7592,-8.6192,-0.8043,-1.7473,2.1327,91,5.023,96,-7.3399,2.4186,-15.1931,-0.8348,-0.054,0.3219,92,4972.647,96142,-1.7389,-2.1085,-8.6349,-0.2739,-1.6585,-1.6607,61
5.063,97,-0.817,-9.0685,-11.0324,0.0189,-1.9446,1.994,91,5.075,97,-7.9096,4.4991,-15.6277,-0.6129,-0.7121,0.6885,92,4972.698,96143,-1.5658,-1.5242,-8.8828,-0.473,-1.7226,-1.4014,61
5.115,98,0.3435,-5.9515,-9.6896,0.6687,-2.0886,1.4674,91,5.126,98,-8.3638,4.5665,-15.7276,-1.1274,-0.9108,0.4392,92,4972.75,96144,-1.1325,-1.1471,-8.9851,-0.6124,-1.7777,-1.1548,61
5.167,99,-0.6279,-7.526,-8.4877,-0.1893,-0.8512,1.1022,91,5.178,99,-8.4426,4.991,-15.0176,-0.5403,-1.309,0.2439,92,4972.802,96145,-0.3947,-0.8588,-8.0464,-0.758,-1.9344,-0.8948,61
5.218,100,-2.7545,-6.8555,-6.7105,-0.1677,-0.6075,0.6772,91,5.23,100,-7.6838,5.8657,-14.3614,-0.0574,-1.5809,-0.1429,92,4972.854,96146,-2.3282,-1.016,-9.2242,-0.2414,-2.0749,0.0226,61
5.27,101,-3.66,-6.3001,-5.538,-0.2618,-0.4694,0.2238,91,5.282,101,-7.645,5.1985,-13.52,0.6298,-1.7035,-0.4149,92,4972.905,96147,-4.9709,-3.3083,-9.1322,-0.5291,-1.7066,0.5704,61
5.322,102,-4.2286,-7.0165,-5.1467,-0.2405,-0.1101,-0.1797,91,5.334,102,-6.9594,5.9297,-13.2724,1.1314,-1.8841,-0.5356,92,4972.957,96148,-4.0523,-2.912,-6.1556,-0.7592,-0.9272,0.6515,61
5.373,103,-4.8618,-8.2756,-4.7647,0.2108,0.2982,-0.3398,91,5.385,103,-6.4082,5.7121,-13.3343,1.4476,-1.7309,-0.407,92,4973.009,96149,-3.5505,-3.5088,-4.5217,-0.73,-0.3,0.6239,61
5.425,104,-5.7369,-8.787,-5.1085,0.8282,0.5069,-0.2807,91,5.437,104,-4.8698,5.2712,-12.0342,1.6284,-1.7073,0.0633,92,4973.061,96150,-3.9539,-4.3113,-3.3725,-0.4229,0.182,0.5773,61
5.477,105,-6.2302,-8.0003,-5.0033,1.2788,0.5104,-0.21,91,5.489,105,-2.287,4.4484,-10.585,0.889,-1.6026,0.7115,92,4973.113,96151,-4.8913,-5.0491,-2.5938,-0.1367,0.5932,0.3589,61
5.529,106,-6.178,-7.2436,-4.7961,1.5994,0.5412,-0.2119,91,5.541,106,-0.3121,2.8267,-8.6133,-0.0312,-0.9767,1.1847,92,4973.164,96152,-5.9894,-4.915,-2.7065,0.0363,0.8987,-0.0885,61
5.581,107,-6.0259,-7.3975,-4.8121,1.8078,0.8466,-0.2197,91,5.593,107,-0.7019,3.9585,-5.9248,-0.7028,-1.3855,1.53,92,4973.216,96153,-6.2429,-4.4497,-3.3319,0.1996,0.9589,-0.4187,61
5.632,108,-5.8633,-6.5633,-5.3951,1.9938,0.9446,-0.2374,91,5.644,108,4.4071,3.8536,-12.264,-1.1929,-1.6838,1.7821,92,4973.268,96154,-5.2279,-3.8027,-3.7924,0.6647,0.3557,-0.6418,61
5.684,109,-5.1931,-4.7214,-6.6684,2.1295,0.5082,-0.4395,91,5.696,109,6.6711,1.2309,-14.1478,-0.1989,-0.5499,0.6142,92,4973.32,96155,-5.5114,-4.0554,-3.7198,1.1455,-0.4035,-1.0516,61
5.736,110,-3.9897,-2.7261,-7.0479,1.8813,-0.2305,-0.9848,91,5.748,110,4.9111,6.2252,-15.1187,0.5265,0.2778,-0.2381,92,4973.371,96156,-5.792,-3.5525,-3.8384,1.2895,-0.8465,-1.4436,61
5.788,111,-2.9785,-1.3347,-7.6001,1.4613,-0.8376,-1.3939,91,5.8,111,3.0643,6.6632,-12.8889,-0.2923,0.8372,-0.5868,92,4973.423,96157,-5.1025,-2.8921,-4.6107,1.2247,-0.8255,-1.6417,61
5.84,112,-3.2037,-2.2901,-8.2297,0.965,-1.2806,-1.6924,91,5.852,112,3.3383,6.3262,-12.7856,0.4584,1.084,-1.1147,92,4973.475,96158,-3.3943,-2.329,-6.1836,1.0996,-0.5344,-1.5181,61
5.891,113,-3.1785,-6.8692,-13.8806,1.3787,-1.604,-1.8384,91,5.904,113,0.5447,9.944,-14.8803,1.0063,1.4567,-1.4999,92,4973.526,96159,-2.4588,-2.0477,-8.6865,0.746,-0.0111,-1.1638,61
5.943,114,2.737,0.3765,-7.5395,0.6667,-0.7762,-1.0403,91,5.956,114,0.2615,9.3438,-17.7025,1.2259,0.3905,-1.776,92,4973.578,96160,-0.0462,0.4895,-12.108,-0.1326,0.6806,-1.144,61
5.995,115,5.9527,-2.6982,-6.9532,-0.1908,0.111,-0.5666,91,6.007,115,0.4204,12.1464,-20.8069,1.5664,-0.3877,-1.9826,92,4973.63,96161,2.2591,2.3214,-13.4104,-0.7186,1.1854,-1.018,61
6.047,116,5.6004,-0.414,-5.7757,-0.8166,0.7635,-0.585,91,6.059,116,0.925,12.8434,-21.9706,1.3511,-0.9556,-2.1333,92,4973.682,96162,1.5826,1.7393,-11.7079,-1.1174,1.5538,-0.928,61
6.099,117,4.6442,-1.9496,-6.2152,-1.2734,1.2396,-0.1032,91,6.111,117,1.5229,12.1435,-19.434,1.1556,-1.3701,-2.2434,92,4973.734,96163,1.0248,1.2514,-10.4696,-1.4129,1.8227,-0.8594,61
6.151,118,2.6564,-4.1902,-5.6683,-1.6067,1.5872,0.3178,91,6.163,118,5.3643,10.3252,-11.54,0.9127,-1.6726,-1.7972,92,4973.785,96164,0.2035,0.5668,-8.3714,-1.5465,1.2434,0.0439,61
6.203,119,1.2591,-7.4852,-6.8074,-1.85,1.8408,0.849,91,6.215,119,3.4779,12.7886,-10.012,0.4567,-0.9154,-1.4554,92,4973.837,96165,0.3306,0.4856,-8.6652,-1.6393,0.8415,0.7078,61
6.254,120,1.0417,-10.1704,-8.7635,-2.0276,1.725,1.2963,91,6.266,120,1.8559,8.985,-9.1489,-0.3467,-0.2594,-1.2724,92,4973.889,96166,0.4273,0.4405,-8.886,-1.7078,0.5559,1.1922,61
6.306,121,2.6754,-12.6205,-10.2217,-1.7084,1.0334,1.6227,91,6.318,121,-1.4324,7.5938,-10.7949,-0.3605,-0.5227,-0.8094,92,4973.941,96167,0.4863,0.3686,-9.0017,-1.7597,0.3568,1.5458,61
6.358,122,-0.9004,-10.0261,-10.5362,-0.6034,0.8764,1.861,91,6.37,122,-0.6669,7.9584,-10.8554,0.3334,-0.6303,-0.4283,92,4973.993,96168,0.5387,0.3208,-9.1013,-1.7978,0.2195,1.8039,61
6.41,123,-1.6361,-9.1586,-12.1101,-1.1178,0.1452,1.7674,91,6.422,123,-1.6705,7.9871,-10.8554,-0.402,-0.4063,0.1314,92,4974.044,96169,0.5728,0.3083,-9.1861,-1.8268,0.1296,1.9923,61
6.462,124,1.9342,-11.882,-11.9384,-0.2993,-0.5633,1.9666,91,6.474,124,-3.5525,8.5074,-10.7546,-0.6234,-0.212,0.4626,92,4974.096,96170,0.5901,0.2978,-9.2581,-1.8487,0.0729,2.1297,61
6.513,125,-1.9871,-6.1107,-12.1686,-0.8858,0.2695,1.8371,91,6.525,125,-5.945,8.3566,-9.9477,-0.4509,0.0525,0.3921,92,4974.148,96171,0.6052,0.3002,-9.3132,-1.8653,0.0401,2.2301,61
6.565,126,-0.5437,-7.5071,-12.1815,-0.6988,-0.3868,1.5079,91,6.577,126,-7.6439,9.0905,-9.7849,-0.3827,0.467,0.1764,92,4974.2,96172,-2.7031,-1.4329,-11.1201,-1.8002,-0.6338,1.7505,61
6.617,127,-2.8251,-7.1515,-11.5807,-0.4901,-0.2419,1.1199,91,6.629,127,-7.9443,8.4303,-9.6766,-0.1,0.3236,0.1427,92,4974.251,96173,1.0869,-0.2568,-11.8228,-1.2243,-0.3805,1.5729,61
6.668,128,-4.1023,-6.4113,-9.6633,-0.2984,-0.1902,0.5823,91,6.681,128,-8.4415,8.7436,-11.0449,-0.041,0.3908,0.0703,92,4974.303,96174,1.5793,1.3706,-10.3581,-1.3704,-0.7706,0.6022,61
6.72,129,-5.5369,-6.7802,-9.5456,-0.0426,-0.3338,0.0279,91,6.733,129,-8.1444,6.387,-11.2646,-0.7097,0.1153,0.0505,92,4974.355,96175,-0.8411,2.3424,-9.3598,-0.9765,-1.1219,0.1482,61
6.772,130,-6.6547,-8.1214,-8.7118,0.0981,-0.6174,-0.1493,91,6.784,130,-6.9542,5.9265,-11.4051,0.1512,0.6383,0.1752,92,4974.407,96176,-2.2277,3.3216,-9.0396,-0.4814,-0.9514,0.3749,61
6.824,131,-8.1748,-7.3525,-7.4631,0.1405,-0.5876,-0.1489,91,6.836,131,-7.2062,4.0325,-10.9829,-0.3419,0.6713,0.1956,92,4974.458,96177,-3.297,4.4037,-8.2482,-0.1025,-0.5165,0.5446,61
6.876,132,-8.6972,-6.9915,-6.2423,0.0416,-0.7307,-0.0295,91,6.888,132,-5.5093,4.2566,-10.0331,-0.0512,0.5787,0.7886,92,4974.51,96178,-3.8092,6.6538,-7.4142,0.1081,-0.0677,0.5301,61
6.927,133,-8.0961,-6.6001,-6.3309,-0.2335,-0.7502,0.1489,91,6.94,133,-3.4919,0.7496,-7.8512,-0.7174,0.3902,1.2409,92,4974.562,96179,-5.0813,7.2111,-6.8481,0.1067,0.0779,0.4866,61
6.979,134,-7.6651,-7.2318,-6.55,0.0717,-0.8334,0.3715,91,6.992,134,-0.5291,2.3486,-7.8417,-1.2036,-0.3879,1.5711,92,4974.614,96180,-5.8266,6.3341,-6.3828,-0.1374,0.091,0.211,61
7.031,135,-7.1979,-5.7951,-6.3125,-0.0737,-0.4957,0.5648,91,7.043,135,2.6712,5.8976,-13.6631,-1.5585,-0.9557,1.812,92,4974.665,96181,-4.5658,6.0852,-8.0503,-0.5307,0.0792,-0.0788,61
7.083,136,-6.8409,-5.3612,-6.2055,0.1321,-0.4877,0.6131,91,7.095,136,6.869,3.0324,-16.902,-0.4657,-0.0185,0.6422,92,4974.717,96182,-4.6891,6.5969,-8.4168,-0.7146,0.1638,-0.6262,61
7.135,137,-6.6604,-4.2088,-6.2555,0.1715,-0.7287,0.2634,91,7.147,137,3.4357,7.54,-15.9649,0.3318,0.6656,-0.2177,92,4974.769,96183,-6.1454,6.5235,-7.1557,-0.784,0.2322,-0.84,61
7.186,138,-5.5924,-2.0873,-7.3862,0.1692,-1.1825,-0.4532,91,7.199,138,2.1535,6.7564,-14.3932,0.3243,0.7305,-0.8398,92,4974.821,96184,-6.07,5.4615,-7.0108,-0.6355,0.3635,-0.8786,61
7.238,139,-4.0998,-1.3922,-8.5051,0.2155,-1.5323,-1.0059,91,7.251,139,1.7236,8.0775,-13.6125,0.9084,0.7825,-1.2993,92,4974.872,96185,-5.2083,3.5898,-7.0624,-0.4443,0.3829,-0.6668,61
7.29,140,-5.1492,-5.1312,-14.2039,0.8316,-1.7877,-1.4092,91,7.303,140,1.6316,10.4403,-16.2816,1.3347,0.2933,-1.6346,92,4974.924,96186,-3.0418,0.9229,-7.8235,-0.2887,0.4215,-0.0335,61
7.342,141,1.2987,1.645,-7.7755,0.6356,-0.9602,-1.1312,91,7.354,141,2.8454,11.1381,-18.849,0.9339,-0.4586,-1.8794,92,4974.976,96187,0.9607,-0.8912,-9.9231,0.4627,0.9879,0.6513,61
7.393,142,3.8467,-3.0071,-6.7487,-0.2135,-0.0184,-0.6648,91,7.406,142,4.1688,12.8035,-19.0288,1.3412,-1.0074,-2.0581,92,4975.028,96188,6.0595,-5.2937,-10.081,1.0116,1.4097,1.151,61
7.445,143,3.8325,-0.3846,-5.217,-0.7563,0.669,-0.9615,91,7.458,143,2.3097,13.3053,-15.1652,0.8422,-1.4079,-2.1884,92,4975.079,96189,4.0592,-3.8551,-9.4818,1.4122,1.6043,1.5158,61
7.497,144,2.2687,-0.7897,-6.152,-1.2294,1.1707,-0.6712,91,7.51,144,3.3972,9.9417,-9.6907,-0.0654,-1.7002,-2.0468,92,4975.131,96190,2.6089,-2.7805,-9.0878,1.7045,1.7286,1.782,61
7.549,145,1.2084,-5.7498,-9.5063,-1.5746,1.5368,0.0393,91,7.562,145,1.1264,8.7915,-11.6806,0.5489,-0.5619,-1.8213,92,4975.183,96191,1.7847,-1.9698,-7.8639,1.0539,0.9056,0.9211,61
7.601,146,2.9884,-8.7946,-10.385,-1.5975,0.7991,0.7053,91,7.613,146,-0.3348,8.2391,-11.7212,-0.1889,-1.0827,-1.2483,92,4975.235,96192,1.3328,-1.4219,-8.3198,0.5805,0.3413,0.2954,61
7.653,147,4.0986,-11.4727,-10.5799,-1.5764,0.1766,1.1914,91,7.665,147,0.7323,7.329,-11.0177,0.0245,-0.4622,-1.2157,92,4975.286,96193,0.9951,-1.0391,-8.6993,0.2381,-0.0716,-0.1619,61
7.704,148,1.9063,-11.6388,-9.1855,-1.0253,0.0334,1.5462,91,7.717,148,-3.3042,6.289,-11.4618,-0.1342,0.2851,-1.0877,92,4975.338,96194,0.7499,-0.7554,-8.982,-0.0104,-0.3737,-0.4968,61
7.756,149,1.0706,-6.3444,-6.8904,-0.0739,0.1021,1.8051,91,7.769,149,-4.1335,6.4015,-10.8158,0.0072,0.064,-0.7005,92,4975.39,96195,0.5422,-0.5436,-9.206,-0.1889,-0.5954,-0.7418,61
7.808,150,-2.6439,-6.3695,-7.6233,0.3111,0.1508,1.9941,91,7.821,150,-5.3583,6.174,-11.1273,-0.1893,0.3081,-0.5579,92,4975.442,96196,0.379,-0.3944,-9.341,-0.3169,-0.7584,-0.9217,61
7.86,151,-3.1497,-6.0546,-10.1784,0.7257,-0.5221,2.0461,91,7.872,151,-4.8028,5.3854,-11.1696,-0.2908,0.0462,-0.0669,92,4975.493,96197,0.0732,0.5872,-9.9521,-0.3315,-0.8719,-1.0445,61
7.911,152,-4.0826,-6.4768,-9.2046,-0.1301,0.2917,1.4766,91,7.924,152,-3.512,3.8254,-11.2249,-0.0838,0.2424,0.5894,92,4975.545,96198,-0.0083,0.3335,-9.7948,-0.2761,-1.2986,-1.033,61
7.963,153,-4.4926,-5.5057,-8.6157,0.3552,0.2246,1.1397,91,7.976,153,-2.1766,5.3036,-9.8988,-0.293,0.5462,1.0956,92,4975.597,96199,-1.6308,0.2341,-7.0157,-0.3439,-1.6109,-0.9303,61
8.015,154,-5.8597,-5.2511,-8.2542,0.2625,0.0536,0.8148,91,8.028,154,-0.937,5.9302,-7.7605,-0.8939,0.0461,1.465,92,4975.649,96200,-2.4074,1.7099,-7.9343,-0.5051,-1.4851,-1.0579,61
8.067,155,-6.8129,-4.7611,-8.3066,0.4658,-0.2904,0.4848,91,8.08,155,-3.0936,9.655,-13.6038,-1.3324,-0.639,1.7346,92,4975.7,96201,-3.2617,2.5729,-8.1084,-0.2724,-1.2437,-0.7211,61
8.119,156,-7.1196,-5.634,-8.277,-0.2895,-0.1256,0.1599,91,8.131,156,2.6616,1.7858,-10.9763,-0.6386,-1.139,1.9313,92,4975.752,96202,-4.4462,2.4176,-7.8355,-0.1232,-1.0415,-0.4665,61
8.17,157,-6.1281,-4.1204,-8.7926,0.1158,-0.282,-0.4582,91,8.183,157,3.6142,4.5413,-12.8633,0.2056,-0.1522,0.7232,92,4975.804,96203,-5.3819,1.8452,-8.093,-0.0885,-0.8518,-0.1275,61
8.222,158,-4.5874,-2.2427,-7.6119,-0.3847,-0.6964,-1.0095,91,8.235,158,1.6178,8.6069,-12.5709,0.8218,0.568,-0.1585,92,4975.856,96204,-5.3661,1.7981,-8.3809,-0.114,-0.6202,0.1249,61
8.274,159,-3.36,-3.0691,-7.8849,-0.092,-1.1776,-1.4119,91,8.287,159,0.8564,7.5442,-11.2841,1.2715,1.0936,-0.8021,92,4975.908,96205,-4.9579,2.0492,-8.8339,-0.1449,-0.4262,0.3042,61
8.326,160,-2.487,-2.0624,-9.637,0.6072,-1.5288,-1.7056,91,8.339,160,-0.2591,9.4,-14.4766,1.5997,1.2613,-1.2718,92,4975.959,96206,-3.8638,0.9824,-9.0597,-0.0415,-0.0001,0.3913,61
8.378,161,3.2417,-2.7181,-7.2644,1.1175,-1.7851,-1.9199,91,8.39,161,2.3993,12.1874,-17.5273,1.5467,0.2479,-1.4335,92,4976.011,96207,-1.7609,-0.046,-8.238,0.4889,0.6886,0.9132,61
8.429,162,7.4227,-0.7739,-2.7107,0.1383,-0.8859,-2.0219,91,8.442,162,3.9188,11.262,-20.732,1.2677,-0.4917,-1.5834,92,4976.063,96208,4.0732,-3.9955,-8.6771,1.0299,1.1912,1.3422,61
8.481,163,5.7389,-2.7739,-3.4404,-0.5765,0.0359,-1.4558,91,8.494,163,7.7795,13.5464,-12.4833,1.597,-0.0177,-1.842,92,4976.114,96209,2.5599,-2.9868,-9.0815,1.4171,1.558,1.6345,61
8.533,164,4.5354,-2.076,-3.9668,-1.0981,0.7086,-0.8345,91,8.546,164,4.8186,7.371,-17.0507,0.4855,-0.5733,-2.0308,92,4976.166,96210,1.6981,-2.2496,-8.9383,1.7082,1.8258,1.8637,61
8.585,165,2.5637,-4.1806,-6.6317,-1.4788,1.1872,-0.1057,91,8.598,165,1.7559,7.1592,-17.8047,1.0261,-0.4231,-1.9516,92,4976.218,96211,1.4527,-0.5378,-9.7435,1.9206,2.0212,2.0294,61
8.636,166,3.7827,-8.2489,-9.1296,-1.7476,0.51,0.5995,91,8.65,166,1.8147,5.2157,-16.3303,0.0732,-0.9815,-1.4671,92,4976.27,96212,1.2196,-0.2064,-10.2766,1.1628,1.2067,1.2218,61
8.688,167,5.2435,-11.2181,-11.8463,-1.3958,-0.2966,1.1142,91,8.701,167,2.2043,4.4051,-15.5769,0.0473,-0.2438,-1.1836,92,4976.321,96213,0.9036,-0.1304,-10.1349,0.6111,0.6133,0.6327,61
8.74,168,8.8837,-11.5202,-6.0548,-1.6907,-0.8858,1.4898,91,8.753,168,0.7748,3.0866,-15.034,-0.3918,0.0126,-0.6933,92,4976.373,96214,0.6867,-0.0719,-10.0357,0.2094,0.1795,0.2026,61
8.792,169,2.5079,-12.238,-8.7354,-0.5595,-0.5181,1.764,91,8.805,169,-0.9848,3.8188,-13.6509,-0.1534,0.3458,-0.0256,92,4976.425,96215,0.5232,-0.0283,-9.9712,-0.0827,-0.139,-0.1117,61
8.844,170,2.2721,-8.8758,-7.8244,0.0891,-0.4355,1.9641,91,8.857,170,-3.028,4.1096,-14.1413,0.478,0.6972,0.4517,92,4976.477,96216,0.3848,0.0041,-9.9207,-0.2944,-0.3725,-0.3425,61
8.895,171,0.4041,-8.2154,-10.0004,0.7394,-0.7813,2.1089,91,8.909,171,-6.0753,4.7429,-13.5243,0.0366,1.188,0.6696,92,4976.528,96217,1.1455,1.1921,-10.8363,-0.2667,-0.9102,-0.5351,61
8.947,172,0.5109,-6.0253,-9.6593,1.214,-0.6742,1.6664,91,8.96,172,-8.0962,5.8772,-13.5442,0.058,0.867,0.6853,92,4976.58,96218,0.3948,0.4427,-10.16,-0.3062,-1.3274,-0.5594,61
8.999,173,0.3328,-3.8719,-8.9777,1.1895,-0.4628,1.044,91,9.012,173,-8.201,7.4057,-13.3114,-0.1285,0.8734,0.6332,92,4976.632,96219,0.4545,-2.7285,-6.4041,-0.5041,-1.6319,-0.7247,61
9.051,174,-1.1992,-4.0978,-7.9103,1.0089,-0.384,0.2076,91,9.064,174,-7.5013,8.0824,-12.7877,-0.0092,-0.0264,0.9982,92,4976.684,96220,-0.7525,-2.3741,-7.5399,-1.0458,-1.8541,-1.0626,61
9.103,175,-3.966,-5.3806,-7.8774,0.7286,-0.168,-0.3665,91,9.116,175,-3.0623,8.7745,-12.4081,-0.2654,-0.692,1.1859,92,4976.736,96221,-1.314,-1.1997,-8.9884,-1.4411,-1.965,-1.2207,61
9.154,176,-4.7106,-1.426,-6.7192,1.1688,-0.7445,-0.9068,91,9.168,176,-2.4982,7.1465,-12.5147,0.2215,0.1741,1.2905,92,4976.788,96222,-2.003,-0.4369,-8.1271,-1.7097,-1.9187,-1.3535,61
9.206,177,-5.3656,-6.2385,-6.4737,0.1756,-0.4417,-1.1479,91,9.219,177,-4.948,9.3408,-12.6037,0.571,0.5071,1.5167,92,4976.839,96223,-2.834,-0.0489,-7.5735,-1.7784,-1.7531,-1.0527,61
9.258,178,-7.0299,-5.4834,-5.9063,0.5666,-0.3693,-0.9865,91,9.271,178,-5.9197,9.709,-16.0556,1.0885,-0.0569,1.5639,92,4976.891,96224,-5.7711,1.8611,-7.9701,-1.9304,-1.6883,-0.4574,61
9.31,179,-7.2849,-6.6956,-5.8819,0.7891,-0.3653,-0.6923,91,9.323,179,-5.3028,11.1697,-15.3998,0.1439,-0.145,1.1527,92,4976.943,96225,-8.2698,3.4536,-5.6717,-1.5195,-1.3212,-0.174,61
9.362,180,-5.3002,-6.2593,-5.2644,0.6491,-0.7511,-0.6193,91,9.375,180,-5.8636,9.5598,-14.7307,-0.575,-0.0165,0.6218,92,4976.995,96226,-8.9953,2.9089,-3.8381,-0.9688,-0.9669,-0.1821,61
9.413,181,-4.8199,-5.4265,-6.7608,0.048,-0.9155,-0.9651,91,9.427,181,-6.665,9.0319,-13.7449,-0.6564,-0.0668,0.0538,92,4977.046,96227,-8.7803,2.4515,-3.5235,-0.5666,-0.7751,-0.2384,61
9.465,182,-7.1496,-5.9988,-6.0371,-0.1964,-0.6871,-1.3795,91,9.478,182,-6.7446,8.7734,-12.3273,-0.3118,-0.057,-0.5069,92,4977.098,96228,-8.1062,3.4494,-4.9795,-0.3353,-0.5269,-0.0496,61
9.517,183,-5.0834,-6.766,-4.8022,-0.1854,-0.6572,-1.365,91,9.53,183,-6.1003,9.4449,-12.0527,-0.6238,-0.2876,-0.8482,92,4977.15,96229,-7.5176,4.0839,-6.0784,-0.0453,-0.1931,0.4355,61
9.569,184,-5.2652,-8.6435,-4.6108,-0.1743,-0.7502,-1.1247,91,9.582,184,-5.2323,9.3372,-12.0546,-0.7127,-0.3094,-0.9354,92,4977.202,96230,-8.1427,2.7186,-3.5474,0.4538,0.3829,0.987,61
9.621,185,-4.5475,-8.5185,-4.5954,0.0677,-0.696,-0.7404,91,9.634,185,-4.2371,8.4918,-11.5495,-0.9518,-0.3179,-0.791,92,4977.253,96231,-9.4914,3.0533,-5.359,0.9779,0.9658,1.0042,61
9.672,186,-4.6708,-8.944,-4.7214,0.16,-0.491,-0.3169,91,9.686,186,-3.8195,6.9158,-11.4062,-1.1624,0.0314,-0.4627,92,4977.305,96232,-8.8408,4.2276,-5.1274,0.9317,1.0244,0.8586,61
9.724,187,-4.3014,-8.6801,-4.6498,0.2947,-0.2107,0.1354,91,9.737,187,-3.233,5.1698,-10.8838,-0.6488,0.1268,0.2029,92,4977.357,96233,-8.8809,4.3709,-5.6011,0.5019,0.6431,0.5302,61
9.776,188,-4.5136,-8.3616,-4.6619,0.3673,-0.0373,0.4618,91,9.789,188,-1.3251,4.9113,-9.4744,-1.0394,0.0496,0.8135,92,4977.408,96234,-8.7134,4.4161,-5.5668,0.0713,0.177,0.2222,61
9.828,189,-4.1034,-8.0525,-4.4496,0.5704,0.0778,0.6558,91,9.841,189,-1.2879,3.5459,-7.4638,-1.4386,-0.5507,1.2591,92,4977.46,96235,-8.4356,4.7187,-4.6409,-0.1987,-0.3395,-0.1639,61
9.879,190,-3.3388,-8.0215,-4.8427,0.7622,0.3652,0.7092,91,9.893,190,3.9796,7.9148,-9.1254,-1.73,-1.0746,1.5843,92,4977.512,96236,-8.1119,4.3921,-4.24,-0.3498,-0.7839,-0.4855,61
9.931,191,-2.6057,-7.3775,-5.5706,0.9175,0.7491,0.5449,91,9.945,191,7.8239,0.5158,-5.9206,-1.9426,-1.457,1.8217,92,4977.564,96237,-8.3301,4.7243,-4.8902,-0.3863,-1.0265,-0.5768,61
9.983,192,-2.8973,-6.0768,-6.7202,1.0467,0.8614,0.0532,91,9.997,192,8.5024,-0.6602,-10.3095,-0.7461,-0.3843,0.6432,92,4977.616,96238,-8.0286,4.4603,-5.5222,-0.3529,-1.0313,-0.5481,61
10.035,193,-2.728,-5.7828,-6.7494,0.7155,0.64,-0.6303,91,10.048,193,6.724,2.4616,-15.4642,0.1272,0.3986,-0.217,92,4977.667,96239,-7.1762,4.0508,-6.2769,-0.3604,-0.9139,-0.5428,61
10.087,194,-3.9175,-3.7075,-6.9705,0.9806,-0.2022,-1.1351,91,10.101,194,6.2697,2.3631,-13.8175,-0.5872,0.4037,-0.7459,92,4977.719,96240,-5.8089,3.8629,-7.1427,-0.2404,-0.8476,-0.7362,61
10.139,195,-4.301,-3.9723,-7.6074,1.3901,-0.8169,-1.5036,91,10.152,195,6.6922,4.3047,-14.3731,0.2432,0.9737,-1.2307,92,4977.771,96241,-4.7868,3.2617,-7.8076,0.0276,-0.6142,-0.9423,61
10.19,196,1.9177,1.558,-13.5487,1.6889,-1.2656,-1.7652,91,10.204,196,4.9837,5.7377,-13.3142,0.8492,0.191,-1.5846,92,4977.823,96242,-2.0159,2.0783,-8.8182,0.6422,0.0582,-1.0283,61
10.242,197,6.4565,1.9651,-13.2523,0.5553,-0.2412,-0.9596,91,10.256,197,3.7244,5.8397,-13.3294,1.2915,0.4842,-1.8429,92,4977.874,96243,3.2558,1.2074,-12.26,1.1426,0.7311,-1.2424,61
10.294,198,5.1034,-0.5043,-10.3605,0.7521,0.5064,-0.9365,91,10.308,198,0.0259,9.5889,-12.0069,1.4468,-0.2201,-2.0314,92,4977.926,96244,3.0744,1.4416,-11.6656,1.5078,0.7084,-1.362,61
10.346,199,5.8796,1.9586,-8.0526,-0.1285,1.052,-0.7516,91,10.36,199,-0.8491,8.547,-12.3041,0.425,-0.3124,-2.169,92,4977.978,96245,2.3169,1.1083,-10.8652,1.7743,0.6566,-1.4434,61
10.397,200,4.2245,-2.3382,-10.5303,-0.7711,1.4502,0.1281,91,10.411,200,-2.4667,8.5193,-14.1739,-0.2898,-0.8481,-2.2694,92,4978.03,96246,-3.5405,6.14,-5.3665,1.3342,0.6647,-1.6041,61
10.449,201,3.0687,-5.3177,-11.4622,-0.0652,0.6841,0.7701,91,10.463,201,-1.9373,5.2734,-15.2099,-0.8915,-1.2914,-1.8005,92,4978.081,96247,-2.7513,4.651,-5.106,0.2959,-0.0837,-1.6961,61
10.501,202,0.8889,-5.2762,-11.4887,-0.4271,-0.1425,1.2387,91,10.515,202,-2.6004,3.8522,-14.3977,-0.6819,-0.6737,-1.3625,92,4978.133,96248,-2.1453,3.3156,-6.0023,-0.4619,-0.6507,-1.7641,61
10.553,203,-0.2735,-9.0485,-9.8612,-0.9891,-0.7734,1.5807,91,10.567,203,-5.3537,3.0816,-14.5538,-0.9183,-0.2499,-0.9951,92,4978.185,96249,-1.678,2.3357,-6.6763,-1.015,-1.0701,-1.8139,61
10.605,204,-1.0065,-9.0781,-9.7768,-0.1975,-1.1039,1.8303,91,10.619,204,-7.5203,3.8556,-14.6756,-0.4945,-0.6523,-0.6317,92,4978.237,96250,-1.3413,1.6218,-7.1615,-1.4187,-1.3838,-1.851,61
10.656,205,-2.0998,-8.3495,-9.4867,-0.0889,-0.6471,1.9893,91,10.67,205,-8.2478,4.871,-14.2676,-0.4196,-0.9936,-0.5515,92,4978.289,96251,-0.3727,-0.5809,-8.1513,-1.7133,-1.6608,-2.0238,61
10.708,206,-1.7783,-6.3567,-9.1755,0.6095,-1.1416,1.8506,91,10.722,206,-8.0898,4.7486,-13.2792,-0.1002,-1.214,-0.6277,92,4978.34,96252,-0.2306,-0.762,-7.9829,-1.9283,-1.8752,-1.8561,61
10.76,207,-1.5632,-7.0366,-9.4202,0.1609,-1.1117,1.6676,91,10.774,207,-7.6758,4.3585,-12.7507,0.0776,-1.1149,-0.6644,92,4978.392,96253,0.129,-1.01,-6.993,-1.703,-2.0317,-1.3608,61
10.812,208,-1.9918,-6.0272,-8.3349,0.1397,-0.7704,1.4211,91,10.826,208,-6.3238,3.8269,-12.2518,0.4912,-1.2619,-0.202,92,4978.444,96254,-1.6805,-1.1215,-7.0506,-1.2925,-2.1459,-0.9975,61
10.864,209,-3.5977,-6.55,-6.8276,0.4777,-0.1839,0.9343,91,10.878,209,-3.5931,2.5352,-11.7232,0.4763,-1.5937,0.5179,92,4978.496,96255,-2.3402,-2.1343,-7.0268,-0.7834,-2.0317,-0.8077,61
10.915,210,-4.0726,-6.953,-5.4439,0.7667,-0.0484,0.6751,91,10.929,210,-0.8406,4.411,-10.3226,0.4962,-1.2835,1.0434,92,4978.547,96256,-2.3662,-3.8424,-8.3628,-0.6381,-1.6501,-0.6903,61
10.967,211,-4.7684,-7.1011,-5.3009,1.03,0.3837,0.5924,91,10.981,211,-1.209,5.639,-10.6004,-0.3179,-1.6072,1.4269,92,4978.599,96257,-1.6068,-5.5802,-7.4559,-0.4814,-1.1798,-0.6772,61
11.019,212,-5.5016,-5.7805,-5.9206,1.4261,0.6671,0.4356,91,11.033,212,2.1851,4.7994,-15.2637,-0.912,-1.8457,1.7068,92,4978.651,96258,-1.4148,-7.2123,-6.8202,-0.2868,-0.7633,-0.6936,61
11.07,213,-5.5015,-5.1713,-6.8145,1.5216,0.5686,0.1343,91,11.085,213,6.5142,1.6921,-12.8625,0.0061,-0.9754,0.7258,92,4978.703,96259,-1.4074,-7.6729,-6.3796,-0.1438,-0.4176,-0.8233,61
11.122,214,-4.6966,-4.5962,-7.2197,1.7849,0.3117,-0.4899,91,11.137,214,5.6764,3.5594,-11.2676,0.6762,-0.0328,-0.1566,92,4978.755,96260,-0.7936,-7.4478,-5.9488,0.0303,-0.2479,-1.0282,61
11.174,215,-4.2296,-1.4232,-8.2434,1.9771,-0.398,-1.0327,91,11.188,215,3.3334,7.9126,-11.5619,1.1645,0.6551,-0.8005,92,4978.806,96261,-0.8019,-6.7726,-6.2859,0.0788,-0.0662,-1.1652,61
11.226,216,-2.2818,-0.5182,-8.8511,1.5001,-0.9598,-1.4288,91,11.24,216,2.3047,6.8857,-10.9509,1.4824,1.1572,-1.2706,92,4978.858,96262,-0.5506,-5.9356,-7.6349,-0.1514,0.3246,-1.133,61
11.278,217,-1.6279,-1.0914,-9.8841,1.7692,-1.3699,-1.7179,91,11.292,217,0.6102,8.552,-13.8511,1.7536,1.2443,-1.6137,92,4978.91,96263,0.3461,-3.9184,-9.6494,-0.6537,0.7745,-0.9085,61
11.329,218,3.8687,1.3495,-15.0686,1.9656,-1.6691,-1.9282,91,11.344,218,0.6428,9.4812,-17.1325,1.3936,0.2355,-1.8286,92,4978.961,96264,0.9983,0.8434,-9.8578,-1.1511,1.2539,-0.0176,61
11.381,219,7.8803,1.0604,-11.6622,0.7572,-0.5377,-0.9483,91,11.396,219,1.7281,10.4235,-20.4439,1.6888,-0.5008,-2.021,92,4979.013,96265,-0.7609,5.9466,-8.9876,-1.3593,1.6038,0.6629,61
11.433,220,5.3646,-0.5719,-8.2184,-0.1247,0.29,-0.8415,91,11.447,220,4.4127,12.6784,-22.8607,0.5825,-1.0382,-2.1607,92,4979.065,96266,-0.7156,3.9357,-8.5274,-0.5221,1.8592,1.1595,61
11.485,221,4.3509,0.4229,-6.8011,-0.7684,0.8941,-0.2692,91,11.499,221,8.14,13.5545,-14.0369,0.8288,-0.7878,-2.2633,92,4979.117,96267,-0.732,2.4672,-8.2175,0.11,2.0456,1.5219,61
11.537,222,1.6494,-2.4308,-8.7282,-1.2382,1.335,0.4801,91,11.551,222,0.3192,12.3379,-13.5989,0.3108,0.1041,-1.7945,92,4979.168,96268,-5.7658,-3.4572,-13.7657,0.5491,2.1816,1.6124,61
11.588,223,0.1313,-5.9534,-8.7704,-0.6679,0.912,1.0271,91,11.603,223,-0.6985,9.7312,-13.4685,-0.0231,-0.5967,-1.0166,92,4979.22,96269,-3.9558,-2.4153,-12.7874,-0.2494,1.4352,1.8353,61
11.64,224,0.1497,-6.1396,-7.4897,-1.1617,1.2413,1.4262,91,11.655,224,-0.5744,10.1889,-13.3475,-0.163,-0.3127,-1.1073,92,4979.272,96270,-2.6935,-1.6818,-11.8401,-0.8514,0.9007,2.0152,61
11.692,225,2.4329,-9.6786,-10.4931,-1.5252,0.5923,1.7176,91,11.706,225,-1.7376,7.396,-13.3241,-0.6134,-0.0761,-1.0135,92,4979.324,96271,-1.7726,-1.1441,-11.1002,-1.2929,0.5185,2.1463,61
11.744,226,5.8499,-8.4942,-10.542,-0.4388,-0.237,1.9302,91,11.758,226,-2.0268,6.8453,-12.4463,-0.3632,-0.1431,-0.7411,92,4979.375,96272,-1.1019,-0.7616,-10.543,-1.6157,0.2486,2.2421,61
11.796,227,1.1448,-9.7851,-9.4132,-0.9976,0.3935,2.0171,91,11.81,227,-2.7317,5.9024,-12.1449,-0.6308,0.144,-0.4597,92,4979.427,96273,-0.6191,-0.4825,-10.1385,-1.8514,0.0615,2.3121,61
11.847,228,-0.8762,-5.7324,-10.1932,-0.0537,-0.31,1.6939,91,11.862,228,-2.2288,5.9687,-10.984,-0.0374,0.1256,-0.0473,92,4979.479,96274,-0.2944,-0.2685,-9.8541,-2.025,-0.0671,2.3632,61
11.899,229,-2.3348,-7.3003,-10.4334,-0.1309,-0.216,1.4419,91,11.914,229,-1.1234,4.767,-10.9524,0.1748,0.3406,0.6249,92,4979.531,96275,-0.2342,0.4562,-9.9631,-1.4022,-0.1223,1.9729,61
11.951,230,-3.1569,-6.4253,-9.2715,0.5788,-0.1705,1.4051,91,11.965,230,1.1737,2.1897,-9.8418,0.1781,0.5925,1.1214,92,4979.582,96276,-1.7842,1.9682,-9.4298,-0.9435,-0.3554,1.3852,61
12.003,231,-4.22,-6.163,-9.1173,0.7942,0.0981,1.3513,91,12.017,231,4.2118,5.9971,-10.7901,0.4538,1.1115,1.4839,92,4979.634,96277,-3.2639,2.1307,-9.0599,-0.4963,-0.3777,0.5999,61
12.055,232,-4.1599,-4.7211,-9.0382,0.7671,0.0068,1.1264,91,12.069,232,3.4202,9.7038,-12.7272,-0.3488,0.1531,1.7484,92,4979.686,96278,-3.3975,2.4849,-9.3576,-0.0996,-0.2656,0.2132,61
12.106,233,-3.5449,-4.1579,-8.5934,0.675,-0.3542,0.7272,91,12.121,233,7.4158,5.7692,-12.6558,0.4171,0.5729,0.7125,92,4979.738,96279,-3.9147,2.2384,-9.4344,-0.1395,-0.2916,0.0708,61
12.158,234,-3.0728,-3.1063,-7.9216,0.0868,-0.4632,0.0274,91,12.173,234,1.5218,9.5375,-14.6867,0.9762,1.0972,-0.1664,92,4979.79,96280,-4.1355,2.3982,-9.3174,-0.1954,-0.3098,-0.1163,61
12.21,235,-2.6321,-2.1825,-9.0935,-0.291,-1.0074,-0.6551,91,12.225,235,0.2556,8.2845,-13.6989,1.2446,1.1839,-0.8078,92,4979.841,96281,-3.9682,2.1216,-9.437,-0.2405,-0.3125,-0.2178,61
12.262,236,-1.4879,-1.6307,-10.9159,-0.8299,-1.4046,-1.1532,91,12.276,236,-0.6601,9.613,-14.9394,1.5801,1.4666,-1.2759,92,4979.893,96282,-2.754,1.9029,-9.4465,-0.2649,-0.2745,-0.0029,61
12.314,237,2.113,-6.3879,-14.3746,0.0687,-1.6945,-1.5168,91,12.328,237,-1.0423,10.9443,-18.51,1.8249,0.3977,-1.6176,92,4979.945,96283,-0.6756,1.0775,-9.4495,-0.1865,-0.3007,0.4513,61
12.365,238,6.599,0.7278,-7.9001,-0.2894,-1.2796,-1.6661,91,12.38,238,4.1302,10.7648,-21.4492,1.6839,-0.3824,-1.867,92,4979.996,96284,1.3282,-3.0994,-9.4662,-0.2546,-0.2156,0.9934,61
12.417,239,5.9068,-4.6666,-9.7887,-0.8886,-0.2515,-0.7506,91,12.432,239,7.0973,12.2872,-22.4237,1.532,-0.9518,-2.0465,92,4980.048,96285,3.0353,-2.4879,-9.401,-0.426,-0.0875,0.5396,61
12.469,240,4.8396,-5.1249,-8.5238,0.0259,0.4094,-0.2962,91,12.484,240,5.9093,10.1886,-16.5332,1.0681,-1.3673,-2.18,92,4980.1,96286,2.1067,-1.7682,-9.507,-0.5631,0.0507,-0.0745,61
12.521,241,2.176,-4.6138,-8.4179,-0.6585,0.9812,0.2682,91,12.535,241,1.1505,12.7629,-12.8055,0.4203,-0.3188,-2.2774,92,4980.152,96287,1.3906,-1.2618,-9.5477,-0.6632,0.1499,-0.5245,61
12.572,242,0.464,-6.2393,-9.1323,-1.158,1.1695,0.8659,91,12.587,242,-0.8415,7.1268,-14.3021,-0.3139,-0.6092,-2.1479,92,4980.203,96288,-4.1011,-0.6293,-14.9659,-0.6157,0.0269,-0.6564,61
12.624,243,5.3757,-9.7515,-10.7357,-1.5225,0.4875,1.3086,91,12.639,243,0.4992,6.5295,-11.6246,-0.6672,-1.1173,-1.5238,92,4980.255,96289,-3.0812,-0.3566,-13.2977,-0.7013,-0.0356,-0.7073,61
12.676,244,6.3425,-12.1976,-11.8715,-1.7513,-0.1314,1.6317,91,12.691,244,1.01,6.1087,-10.4484,-0.1647,-0.7821,-0.7308,92,4980.307,96290,-2.239,-0.229,-12.3272,-0.7648,-0.0827,-0.7465,61
12.728,245,3.9565,-11.8936,-8.7592,-1.9556,0.079,1.8675,91,12.743,245,-2.5099,3.1656,-9.0352,-0.6146,0.1083,-0.6922,92,4980.359,96291,-1.6257,-0.1583,-11.6188,-0.8116,-0.1169,-0.7756,61
12.78,246,1.9396,-9.8727,-5.9002,-0.7529,-0.1077,2.0397,91,12.794,246,-5.3067,3.7787,-9.3082,-0.3842,-0.219,0.1602,92,4980.41,96292,-1.1924,-0.1075,-11.1172,-0.8456,-0.143,-0.7974,61
12.831,247,0.2576,-8.3029,-7.1839,0.1249,-0.4653,2.0713,91,12.846,247,-7.6519,4.9713,-9.6719,-0.3044,0.3514,0.41,92,4980.462,96293,0.804,2.6756,-8.3697,-0.7249,-0.2903,-0.7463,61
12.883,248,-0.2468,-7.4675,-8.8132,0.7655,-0.3944,1.9349,91,12.898,248,-7.1885,5.7388,-11.0544,-0.2453,-0.1435,0.6221,92,4980.514,96294,-0.5147,1.2408,-8.583,0.1133,-0.4787,-0.4215,61
12.935,249,-2.2522,-7.8447,-14.4288,1.2331,-0.8897,1.8628,91,12.95,249,-7.2839,8.183,-10.219,-0.7621,0.186,0.7533,92,4980.566,96295,4.043,-4.3523,-11.5444,0.1508,-0.5592,-0.9837,61
12.987,250,-3.6587,-3.3993,-12.2282,0.3386,0.0106,0.9937,91,13.002,250,-7.9842,7.1902,-10.2376,-0.763,-0.3015,0.8052,92,4980.618,96296,2.0878,-2.9668,-11.0342,0.1754,-0.6179,-1.394,61
13.039,251,-4.6895,-3.8841,-10.9956,0.5489,-0.3751,0.2216,91,13.054,251,-8.3283,7.7385,-10.7541,-0.6972,-0.2719,0.6847,92,4980.669,96297,-2.5641,-0.6921,-14.8234,-0.1017,-1.107,-1.5959,61
13.09,252,-5.8591,-3.5624,-9.2318,0.3431,-0.673,-0.3443,91,13.106,252,-7.8316,8.0534,-10.4643,-0.6461,-0.5376,0.5317,92,4980.721,96298,-2.0905,-0.5432,-13.7326,-0.3395,-0.8312,-1.2151,61
13.142,253,-6.2412,-4.2777,-8.0601,0.1048,-0.6958,-0.5674,91,13.157,253,-6.7218,9.1305,-9.9092,-1.1516,-0.6146,0.3037,92,4980.773,96299,-2.2767,-2.1139,-11.5662,-0.2279,-0.5502,-0.5157,61
13.194,254,-6.3672,-5.0307,-6.9075,-0.0658,-0.428,-0.7055,91,13.209,254,-6.8825,8.369,-9.4284,-1.2746,-0.5034,0.1053,92,4980.825,96300,-3.1168,-3.1832,-9.8479,0.4154,-0.2543,0.0993,61
13.246,255,-5.7577,-5.8418,-6.0653,-0.0501,-0.5519,-0.8394,91,13.261,255,-7.9067,7.067,-9.323,-0.9624,-0.798,0.0646,92,4980.876,96301,-4.8791,-3.7633,-8.3078,0.8665,-0.1591,0.6368,61
13.298,256,-5.6297,-6.6273,-6.3088,-0.4469,-0.6102,-0.8605,91,13.313,256,-6.2372,7.4803,-10.5118,-0.5926,-1.1071,-0.0581,92,4980.928,96302,-6.2134,-3.3519,-7.3081,0.974,-0.1752,0.8771,61
13.349,257,-5.442,-6.8147,-6.841,-0.6394,-0.5035,-0.7783,91,13.365,257,-6.1442,6.6435,-9.5644,-0.7916,-0.4342,-0.2142,92,4980.98,96303,-6.6337,-2.1457,-6.5668,1.0431,-0.25,0.9616,61
13.401,258,-4.9951,-7.4216,-6.7146,-1.0621,-0.3239,-0.6999,91,13.416,258,-6.5026,7.1296,-9.3592,-0.3466,-0.2041,-0.3995,92,4981.031,96304,-7.415,-1.2671,-5.7412,1.1758,-0.3855,1.1883,61
13.453,259,-4.9017,-8.7885,-6.3246,-0.8639,-0.0963,-0.5776,91,13.468,259,-6.4595,6.9757,-8.8633,-0.3291,-0.0143,-0.53,92,4981.083,96305,-7.9298,-1.2739,-5.2436,1.2239,-0.5346,1.3096,61
13.505,260,-5.706,-9.0706,-6.1035,-0.194,-0.1667,-0.2425,91,13.52,260,-6.516,7.1224,-8.4294,-0.2164,0.0497,-0.5693,92,4981.135,96306,-7.5957,-0.8925,-4.879,0.9803,-0.79,1.0282,61
13.557,261,-5.1281,-8.4829,-5.6817,0.4844,-0.1003,0.0799,91,13.572,261,-6.3873,6.7206,-8.4226,-0.2647,0.1383,-0.5981,92,4981.187,96307,-7.9606,0.3083,-4.0446,0.7727,-0.8706,0.5974,61
13.608,262,-5.1252,-8.6089,-5.4572,0.8502,0.0267,0.3795,91,13.624,262,-6.6708,6.2784,-7.8871,-0.1902,0.1088,-0.4283,92,4981.239,96308,-8.2037,0.1251,-2.9811,0.7711,-0.7011,0.0548,61
13.66,263,-5.1727,-8.0359,-5.2876,1.0936,0.2403,0.5841,91,13.675,263,-6.3053,5.9694,-8.3294,0.1183,0.1144,-0.1317,92,4981.291,96309,-8.5597,-0.2818,-2.9717,0.4372,-0.3605,-0.5394,61
13.712,264,-5.1675,-7.7005,-5.0978,1.073,0.2693,0.7479,91,13.727,264,-6.5882,6.1683,-7.6841,0.3016,0.2898,0.1233,92,4981.342,96310,-8.3853,-0.1537,-2.6959,-0.0218,-0.1153,-1.0679,61
13.764,265,-5.0842,-6.8843,-5.0073,1.0812,0.2237,0.7985,91,13.779,265,-6.8289,6.5675,-7.7634,0.2305,0.2152,0.4427,92,4981.394,96311,-8.2344,-0.4207,-2.9097,-0.3416,-0.0669,-1.4528,61
13.816,266,-4.8999,-6.2203,-4.9629,0.9876,0.1964,0.7318,91,13.831,266,-6.5495,7.0792,-8.5934,0.6116,0.1365,0.7377,92,4981.446,96312,-7.6572,-0.7139,-3.1563,-0.5107,-0.0735,-1.4701,61
13.867,267,-4.797,-5.6083,-4.9899,0.7218,0.1611,0.5342,91,13.883,267,-6.4662,7.513,-8.4793,0.601,0.1581,0.8608,92,4981.498,96313,-7.2256,-1.1016,-3.6174,-0.5296,-0.1126,-1.33,61
13.919,268,-4.8673,-5.2659,-5.1168,0.3119,0.1345,0.2458,91,13.934,268,-6.8213,8.5803,-8.9897,0.8734,0.3866,0.8136,92,4981.549,96314,-6.7357,-1.474,-4.1821,-0.5103,-0.1102,-1.2045,61
13.971,269,-5.1159,-5.3838,-4.838,0.0855,0.0106,-0.0615,91,13.986,269,-6.8869,9.5189,-9.176,1.0361,0.3996,0.6825,92,4981.601,96315,-6.2218,-1.716,-4.5963,-0.4443,-0.0891,-1.0303,61
14.023,270,-5.4995,-5.5626,-4.6685,0.1272,-0.1475,-0.3405,91,14.038,270,-6.7494,9.5087,-9.7612,0.9386,0.5566,0.4723,92,4981.653,96316,-5.7397,-1.9942,-4.872,-0.337,-0.0419,-0.7634,61
14.074,271,-5.4638,-5.6131,-4.4144,-0.0679,-0.381,-0.525,91,14.09,271,-6.8926,9.9359,-9.9875,0.6639,0.4114,0.3226,92,4981.705,96317,-5.5272,-2.3358,-4.9265,-0.2054,0.079,-0.4485,61
14.126,272,-5.3888,-5.0801,-4.2712,-0.5065,-0.4822,-0.6742,91,14.142,272,-6.9013,9.9501,-10.2597,0.3666,0.2374,0.1419,92,4981.756,96318,-5.8895,-2.7456,-4.765,-0.0985,0.2602,-0.1868,61
14.178,273,-5.2143,-5.722,-4.0321,-0.6259,-0.5688,-0.8053,91,14.193,273,-6.709,9.5238,-10.543,0.1234,0.0551,-0.0704,92,4981.808,96319,-6.0958,-2.9298,-4.6074,0.0048,0.4598,-0.0033,61
14.23,274,-5.1961,-6.5134,-4.409,-1.1342,-0.4313,-0.8104,91,14.245,274,-6.5409,9.0978,-10.6426,-0.0022,0.023,-0.2781,92,4981.86,96320,-6.3279,-3.1478,-4.8398,0.0453,0.5668,0.1238,61
14.282,275,-4.9337,-7.7255,-4.5831,-1.1958,-0.3392,-0.645,91,14.297,275,-6.3744,8.8201,-10.5479,-0.1098,-0.0138,-0.4128,92,4981.912,96321,-6.7644,-3.5118,-4.8031,-0.0359,0.5599,0.1078,61
14.333,276,-4.6876,-8.5073,-4.7197,-0.6007,-0.2819,-0.4146,91,14.349,276,-6.0676,7.9033,-10.3431,-0.2344,0.0034,-0.3731,92,4981.963,96322,-7.4252,-3.754,-4.5691,-0.0914,0.4452,-0.0309,61
14.385,277,-4.599,-8.6149,-4.7741,-0.0281,-0.2239,-0.1342,91,14.401,277,-5.223,5.8867,-9.9383,-0.169,0.0139,0.0491,92,4982.015,96323,-7.9146,-4.3743,-4.1598,-0.1491,0.243,-0.2509,61
14.437,278,-4.528,-8.3716,-5.0081,0.5986,-0.1431,0.1399,91,14.452,278,-3.6229,3.3714,-9.4591,-0.4548,-0.1541,0.7012,92,4982.067,96324,-7.9269,-5.0967,-4.0498,-0.2171,0.1572,-0.3682,61
14.489,279,-4.3425,-8.2626,-4.9396,1.0506,-0.0117,0.3723,91,14.505,279,-2.4284,1.9131,-7.5685,-1.012,-0.7133,1.1772,92,4982.119,96325,-7.7747,-5.4479,-4.1696,-0.2669,0.1996,-0.2463,61
14.54,280,-4.3116,-7.3338,-5.0089,1.2363,0.0975,0.5418,91,14.556,280,3.0926,6.7231,-11.2291,-1.4186,-1.1933,1.5245,92,4982.17,96326,-7.8799,-5.5165,-4.36,-0.2665,0.2138,-0.0809,61
14.592,281,-4.1327,-6.6505,-4.492,1.2128,0.153,0.5783,91,14.608,281,7.1765,-0.354,-13.1223,-1.7154,-1.5436,1.778,92,4982.222,96327,-7.7974,-5.2359,-4.8343,-0.2563,0.1868,-0.0953,61
14.644,282,-4.2602,-5.5958,-4.4093,1.1612,0.0797,0.3696,91,14.66,282,7.6672,0.2687,-16.3556,-0.5802,-0.4475,0.6113,92,4982.274,96328,-7.6666,-5.0402,-5.3228,-0.2735,0.1044,-0.3038,61
14.696,283,-4.5716,-2.832,-5.74,1.2094,-0.4051,-0.2303,91,14.712,283,6.1677,5.523,-14.254,0.248,0.3521,-0.2402,92,4982.326,96329,-7.3787,-4.7935,-5.7878,-0.2618,-0.0237,-0.5941,61
14.748,284,-3.6475,-1.6539,-7.0534,0.5273,-0.965,-0.8432,91,14.764,284,6.9406,4.6598,-14.0533,0.718,0.832,-0.8617,92,4982.377,96330,-6.21,-4.5242,-6.1513,-0.1908,-0.0779,-0.7417,61
14.799,285,-3.5518,-2.1146,-7.759,0.8715,-1.3736,-1.2905,91,14.815,285,3.6926,7.6856,-13.2438,1.1957,1.19,-1.3153,92,4982.429,96331,-3.6678,-3.9817,-7.0478,-0.1845,0.0019,-0.6558,61
14.851,286,2.2673,-6.741,-13.3077,1.3104,-1.6719,-1.617,91,14.867,286,1.7273,7.7479,-13.5596,1.2308,1.1334,-1.6463,92,4982.481,96332,0.2361,-1.8542,-8.9688,-0.274,0.4737,-0.1044,61
14.903,287,6.7114,0.457,-10.5414,0.2799,-0.5987,-0.9915,91,14.919,287,-0.5831,8.9536,-13.4905,1.4582,0.1776,-1.8879,92,4982.533,96333,3.3863,2.4015,-9.9377,-0.1853,1.0344,0.5995,61
14.955,288,7.3989,-2.5265,-7.3281,-0.4731,0.2454,-0.6743,91,14.971,288,-0.1159,10.2663,-13.6413,1.0026,-0.543,-2.0643,92,4982.584,96334,2.8453,3.9166,-9.4512,-0.2467,1.4436,1.1132,61
15.007,289,7.4198,-2.0952,-6.8475,-1.0226,0.8615,-0.3418,91,15.023,289,0.3132,6.99,-8.9589,0.305,-1.0625,-2.193,92,4982.636,96335,2.0184,2.6066,-9.2867,-0.2013,1.7423,1.4882,61
15.058,290,5.3948,-4.6537,-8.227,-1.4237,1.3112,0.4272,91,15.074,290,-1.1315,7.2777,-10.0243,-0.3184,-0.0964,-2.2869,92,4982.688,96336,-3.7585,3.6534,-10.1869,-0.248,1.9364,1.7434,61
15.11,291,2.7316,-4.895,-8.6708,-0.9475,1.5352,0.9884,91,15.126,291,-2.8996,5.8503,-11.7569,0.1865,-0.6909,-1.4453,92,4982.74,96337,-1.8695,2.3793,-11.2073,0.0119,1.0023,0.6821,61
15.162,292,1.1752,-5.5239,-8.9867,-1.3682,1.106,1.398,91,15.178,292,-1.4416,6.5773,-10.6459,0.0094,-0.8708,-0.9249,92,4982.792,96338,-1.2923,1.703,-10.7946,0.2085,0.3247,-0.1044,61
15.214,293,2.4034,-6.3536,-3.9678,-1.6336,0.6712,1.697,91,15.23,293,-3.399,6.6881,-10.8769,-0.1677,-0.0628,-0.7423,92,4982.843,96339,-0.8811,1.1992,-10.4771,0.355,-0.1669,-0.6792,61
15.266,294,0.8705,-8.5722,-3.2825,-1.4468,0.6009,1.9152,91,15.282,294,-4.2688,6.9814,-10.7499,0.0892,-0.1856,-0.4579,92,4982.895,96340,-0.5898,0.8147,-10.224,0.4657,-0.5224,-1.0984,61
15.317,295,-1.3377,-6.0735,-3.9185,-0.3816,0.9792,2.0744,91,15.333,295,-5.2593,7.3159,-10.2287,0.2237,0.1041,-0.4066,92,4982.947,96341,-0.3613,0.5178,-10.0625,0.5515,-0.7788,-1.4051,61
15.369,296,-3.8035,-5.2484,-6.9359,0.2017,0.6648,2.0001,91,15.385,296,-5.794,7.3947,-10.3218,0.2393,0.1746,-0.3055,92,4982.999,96342,-1.7666,0.4858,-8.5128,0.9374,-1.1837,-1.534,61
15.421,297,-3.3423,-5.7488,-5.9525,-0.0335,-0.1776,1.7519,91,15.437,297,-6.276,7.3869,-10.4311,0.1801,0.1191,-0.1439,92,4983.05,96343,-1.7411,-1.1588,-8.0105,1.3545,-1.361,-1.4885,61
15.473,298,-3.4767,-5.2676,-5.9144,0.1363,-0.2541,1.1716,91,15.489,298,-6.6413,7.2108,-10.713,0.1458,0.122,-0.0078,92,4983.102,96344,-1.2631,-2.9448,-7.4593,1.4145,-1.3919,-1.5033,61
15.524,299,-4.3377,-5.8448,-6.3339,-0.1281,-0.0391,0.6031,91,15.541,299,-6.7987,7.3762,-10.6442,0.2075,0.179,0.1049,92,4983.154,96345,-1.3231,-3.9673,-6.8867,1.0033,-0.9479,-1.3639,61
15.576,300,-5.1941,-6.5457,-6.2236,-0.1726,0.0461,0.1874,91,15.592,300,-6.9929,7.5668,-10.8637,0.28,0.1571,0.1531,92,4983.206,96346,-2.2772,-3.6184,-7.7678,0.6931,-0.643,-0.7324,61
15.628,301,-5.702,-6.8177,-5.9142,-0.0892,0.0001,-0.008,91,15.644,301,-7.16,7.626,-10.9881,0.1922,-0.0034,-0.0935,92,4983.257,96347,-3.4335,-3.5746,-7.5459,0.5845,-0.6186,-0.5296,61
15.68,302,-6.1498,-6.3966,-5.8711,-0.0632,-0.0675,-0.1326,91,15.696,302,-7.3262,7.8856,-11.7188,0.0873,-0.1377,-0.3279,92,4983.309,96348,-4.4353,-4.0188,-6.765,0.591,-0.6821,-0.6592,61
15.731,303,-6.1988,-6.6137,-6.0639,-0.1486,-0.1401,-0.2554,91,15.748,303,-7.7205,8.6179,-12.2086,0.0964,-0.0247,-0.3954,92,4983.361,96349,-4.992,-5.1905,-5.8501,0.5936,-0.6183,-0.7361,61
