right_hand_timestamp,right_hand_index,right_hand_accel_x,right_hand_accel_y,right_hand_accel_z,right_hand_gyro_x,right_hand_gyro_y,right_hand_gyro_z,right_hand_battery_percentage,left_hand_timestamp,left_hand_index,left_hand_accel_x,left_hand_accel_y,left_hand_accel_z,left_hand_gyro_x,left_hand_gyro_y,left_hand_gyro_z,left_hand_battery_percentage,ball_timestamp,ball_index,ball_accel_x,ball_accel_y,ball_accel_z,ball_gyro_x,ball_gyro_y,ball_gyro_z,ball_battery_percentage
0.82,15,2.3911,-5.4471,-25.345,-0.1636,-1.6125,0.4864,92,0.083,1,-1.2031,8.3533,-7.8222,0.4345,0.7381,1.846,87,7198.343,139175,0.0496,-0.2748,-8.89,1.2126,-0.9422,0.3626,60
0.872,16,1.7607,1.4144,-26.4944,0.4169,-0.6665,-0.1417,92,0.134,2,-2.4384,6.4277,-9.1843,0.9888,1.2178,1.6098,87,7198.395,139176,0.9776,-1.165,-9.6987,0.5711,-1.234,0.4524,60
0.924,17,2.0907,0.5395,-23.6142,-0.3731,-0.2,-0.2101,92,0.186,3,-0.9699,6.9302,-11.1336,0.9477,0.5277,1.8377,87,7198.446,139177,0.1289,-0.2435,-11.9425,1.0907,-0.213,0.6949,60
0.976,18,-1.0297,0.1636,-18.7311,-0.7745,0.2129,-0.5571,92,0.238,4,4.0488,5.9249,-16.0656,1.2678,-0.2875,1.166,87,7198.498,139178,0.3431,1.5696,-14.5907,1.4699,0.0528,0.5651,60
1.027,19,-2.9263,-1.579,-16.1186,-0.7688,0.4185,-0.7345,92,0.29,5,4.824,9.6511,-19.6652,1.5971,-0.8567,0.1646,87,7198.55,139179,4.7355,-3.797,-14.143,1.6051,-0.4872,0.7248,60
1.079,20,-4.043,-3.5107,-14.9613,-1.0001,0.0647,-0.9607,92,0.342,6,6.1954,12.2338,-22.2924,1.5753,-1.2979,-0.5644,87,7198.602,139180,-1.2518,-3.5275,-12.0207,1.5512,-0.1435,0.7981,60
1.131,21,-3.6818,-3.6992,-13.5033,-1.3916,0.15,-1.3762,92,0.393,7,2.0207,13.9566,-18.8525,0.7193,-1.5794,-1.0983,87,7198.653,139181,0.6602,-2.8779,-12.2973,1.5477,0.2603,0.7351,60
1.183,22,-3.0174,-4.8837,-13.8279,-1.6848,-0.0658,-1.6795,92,0.445,8,0.2887,11.4193,-17.9044,0.5379,-1.8254,-1.488,87,7198.705,139182,1.32,-4.63,-11.6459,1.7196,-0.0728,1.0772,60
1.235,23,-3.5881,-6.2447,-13.1938,-1.907,0.6246,-1.9009,92,0.497,9,0.805,8.9949,-18.1437,0.6435,-0.7533,-0.9196,87,7198.757,139183,0.2121,-5.3131,-10.7616,1.5446,-0.3054,1.0019,60
1.286,24,-1.7583,-7.9651,-13.3862,-1.3311,0.3947,-1.9251,92,0.549,10,-2.3549,8.2805,-21.1819,-0.2103,-1.1339,-0.9305,87,7198.808,139184,-1.161,-4.1679,-10.8335,1.2343,-0.3679,1.0328,60
1.338,25,1.7477,-8.0955,-12.6624,-1.3563,0.0018,-1.6368,92,0.601,11,3.2006,2.3999,-14.2458,-0.7214,-0.8475,-0.2342,87,7198.86,139185,-2.4772,-3.9022,-9.4017,1.2772,-0.5913,1.4295,60
1.39,26,1.627,-7.038,-12.7187,-1.1916,0.1202,-1.3668,92,0.652,12,0.3989,3.9742,-13.4403,-0.0049,0.0605,-0.0909,87,7198.912,139186,-4.3101,-7.0606,-9.003,1.606,-0.7651,1.719,60
1.442,27,1.7964,-4.886,-14.3589,-1.4012,0.1679,-1.076,92,0.704,13,-0.061,4.5204,-13.9623,-0.4664,-0.6285,0.0466,87,7198.964,139187,-7.0109,-10.2448,-7.9734,1.4873,-0.5306,1.9303,60
1.493,28,2.3553,-5.9733,-14.6523,-0.9638,0.3301,-1.0495,92,0.756,14,-1.0295,4.4173,-13.1762,-0.6372,-0.6892,-0.0706,87,7199.016,139188,-7.8255,-9.0639,-7.9958,1.2916,-0.4344,1.8425,60
1.545,29,-0.6971,-9.5573,-12.8366,-1.0427,0.4314,-0.5585,92,0.808,15,-0.9837,4.7759,-12.226,-0.619,-0.2346,0.32,87,7199.067,139189,-9.0069,-7.657,-7.2343,1.121,-0.3561,1.8437,60
1.597,30,-1.6232,-11.397,-13.2734,-1.0756,0.3966,-0.0176,92,0.86,16,-2.1288,5.9551,-12.4028,-0.4178,-0.2051,0.8989,87,7199.119,139190,-9.4631,-8.1191,-7.8529,0.8588,-0.1669,1.4835,60
1.649,31,-1.6811,-12.5724,-14.5663,-0.5139,-0.2455,0.5993,92,0.911,17,-1.7469,6.7754,-12.3181,-0.2672,-0.0136,1.3214,87,7199.171,139191,-8.7352,-6.8915,-7.7133,0.5171,-0.312,1.1337,60
1.701,32,-2.1493,-12.7023,-15.2216,0.214,-0.8485,1.114,92,0.963,18,-5.688,8.2827,-13.3118,-0.1692,0.6691,1.6298,87,7199.223,139192,-8.6968,-8.4863,-7.7896,0.7025,-0.2536,0.8981,60
1.752,33,-1.5648,-12.5281,-14.9642,0.8081,-1.2886,1.4897,92,1.015,19,-2.6681,9.3636,-13.4589,-0.0912,-0.1843,1.7324,87,7199.274,139193,-9.4078,-8.1318,-6.9193,0.322,-0.3423,0.5306,60
1.804,34,-0.732,-10.766,-14.8324,1.2642,-1.6098,1.7639,92,1.067,20,-2.1942,9.5066,-13.7223,-0.1545,0.4546,1.715,87,7199.326,139194,-11.3708,-9.7937,-6.509,-0.1647,-0.2843,-0.2071,60
1.856,35,0.1742,-7.9893,-13.4381,1.5937,-1.6948,1.964,92,1.119,21,-1.5524,8.4772,-13.8094,-0.1853,0.4408,1.5535,87,7199.378,139195,-12.1878,-10.9973,-6.3942,-0.7269,-0.1977,-0.8272,60
1.908,36,1.2172,-6.2762,-12.2094,1.6769,-1.4683,1.4507,92,1.171,22,-0.4573,10.1074,-13.9405,0.3777,0.5409,1.1364,87,7199.43,139196,-12.9205,-9.6469,-5.9435,-1.2084,-0.0101,-1.2798,60
1.96,37,1.8204,-4.7525,-10.9423,1.5744,-1.1819,0.3836,92,1.222,23,0.0003,9.8012,-13.9415,0.0816,0.3034,0.7295,87,7199.482,139197,-12.5128,-7.0805,-5.7146,-1.5598,0.3526,-1.6101,60
2.011,38,1.6996,-3.7836,-10.7737,0.7831,-1.2736,-0.3951,92,1.274,24,0.0741,10.0748,-13.7056,0.2465,0.4231,0.5902,87,7199.533,139198,-10.543,-3.7377,-6.4941,-1.8163,0.8783,-1.8512,60
2.063,39,1.3092,-7.102,-10.0349,-0.1009,-1.04,-0.9635,92,1.326,25,-0.1461,11.3062,-12.8755,0.0105,-0.3573,-0.0383,87,7199.585,139199,-7.5775,-0.114,-7.1196,-1.8736,1.0976,-2.0271,60
2.115,40,3.1657,-10.381,-6.4644,-0.1619,-1.0307,-1.3783,92,1.378,26,-1.3845,12.1848,-12.7182,-0.3238,-0.207,-0.7143,87,7199.637,139200,-5.5465,2.4361,-6.8781,-1.5558,0.8759,-2.1556,60
2.167,41,1.269,-12.3631,-5.8347,-0.4108,-0.1002,-1.2914,92,1.43,27,-1.6661,12.6524,-12.8498,-0.7665,-0.6936,-1.2077,87,7199.689,139201,-5.0894,2.6372,-6.92,-0.9174,0.6075,-2.2493,60
2.219,42,-0.4606,-11.1485,-5.9371,-0.207,0.5505,-0.7277,92,1.481,28,-1.2767,12.6585,-12.6035,-1.0026,-0.7161,-1.5678,87,7199.74,139202,-3.8827,1.7692,-8.1895,-0.4556,0.2293,-2.3177,60
2.27,43,-0.9879,-9.7045,-7.7956,-0.8285,1.0036,-0.3744,92,1.533,29,-0.7559,11.5509,-12.2517,-1.4053,-0.6894,-1.8306,87,7199.792,139203,-2.6186,1.2653,-8.6097,-0.1112,-0.0296,-2.3676,60
2.322,44,1.296,-8.407,-9.9977,-1.282,0.7008,-0.7308,92,1.585,30,-0.0893,9.5832,-11.9983,-1.7057,-0.6377,-1.8966,87,7199.844,139204,-1.67,0.9084,-8.9484,0.143,-0.2101,-2.404,60
2.374,45,4.1853,-9.7265,-14.4884,-1.6131,-0.0246,-0.636,92,1.637,31,-0.6389,6.7281,-11.5576,-1.6781,-0.3181,-1.138,87,7199.896,139205,-0.9045,0.6404,-9.2457,0.3338,-0.3311,-2.4306,60
2.426,46,5.0129,-11.2018,-18.5708,-1.8547,-0.6873,0.2125,92,1.689,32,-0.5353,4.5906,-11.5727,-1.5931,-0.8682,-0.1652,87,7199.947,139206,-1.651,0.7666,-11.1799,0.2129,-0.0096,-1.4025,60
2.478,47,3.7746,-11.4904,-21.5503,-2.031,-1.1709,0.645,92,1.74,33,-0.8147,5.5126,-10.8965,-0.7843,-0.3865,0.5448,87,7199.999,139207,-1.123,0.5515,-10.7523,0.1198,0.212,-0.6584,60
2.529,48,3.0175,-13.0217,-22.3433,-1.2571,-1.5239,1.0446,92,1.792,34,-0.5698,4.4573,-10.5994,-0.5522,-0.9414,1.063,87,7200.051,139208,-0.7334,0.38,-10.5085,0.0539,0.3745,-0.1156,60
2.581,49,3.503,-14.6669,-21.3659,-0.9928,-0.4298,1.2308,92,1.844,35,1.9751,8.58,-8.3904,0.1485,-0.6394,1.4412,87,7200.103,139209,-0.4439,0.2635,-10.3318,0.0073,0.4952,0.2808,60
2.633,50,0.278,-13.4468,-22.4763,-0.8953,-0.9694,1.0666,92,1.896,36,0.8176,9.0271,-7.5607,0.7759,0.2124,1.4638,87,7200.155,139210,-0.2372,0.1755,-10.2064,-0.0246,0.5842,0.5703,60
2.685,51,-0.0672,-8.1384,-23.8336,-1.2966,-0.2965,0.1488,92,1.948,37,-0.7139,10.0511,-7.2422,1.0732,0.8321,0.8675,87,7200.206,139211,-0.0735,0.1104,-10.1197,-0.0466,0.6503,0.7815,60
2.736,52,-1.3173,-8.629,-22.3586,-1.0747,-0.4452,0.2933,92,2.0,38,-0.9331,9.1052,-8.8533,1.455,1.1962,0.445,87,7200.258,139212,2.0323,-0.5301,-10.4189,-0.2655,0.3566,0.099,60
2.788,53,-2.3562,-7.1337,-20.0724,-0.7899,-0.6991,0.2999,92,2.051,39,-0.0936,8.2197,-10.5908,1.7336,1.0484,0.5285,87,7200.31,139213,1.5703,-0.4248,-11.1441,-0.0061,0.386,-0.245,60
2.84,54,-2.3409,-4.7404,-17.1203,-0.643,-0.9494,0.0931,92,2.103,40,2.2638,9.9232,-15.5242,1.937,0.1582,0.5937,87,7200.361,139214,2.0307,-0.0509,-8.8682,0.3365,0.1928,-0.3065,60
2.892,55,-2.3461,-3.902,-16.624,-0.5221,-0.9776,-0.054,92,2.155,41,2.1989,11.4066,-19.27,2.0855,-0.2291,-0.251,87,7200.413,139215,5.2827,-1.0162,-9.9069,0.2375,0.061,-0.1487,60
2.944,56,-3.2081,-3.3894,-15.6411,-0.5009,-0.7543,0.1112,92,2.207,42,2.1988,13.5598,-21.4648,1.7518,-0.8399,-0.7625,87,7200.465,139216,4.7749,-0.7694,-9.8944,0.3562,-0.3302,0.2533,60
2.995,57,-4.7065,-4.0392,-16.4464,-0.7583,-0.3511,0.1037,92,2.259,43,3.2604,8.8993,-18.3726,1.8834,-1.2856,-1.1821,87,7200.517,139217,4.2313,-1.225,-10.1297,0.4613,-0.359,0.5083,60
3.047,58,-6.9516,-4.9321,-16.2319,-0.5314,-0.2224,0.1649,92,2.31,44,0.9298,11.5348,-19.1528,1.3525,-0.2594,-1.2095,87,7200.568,139218,3.8795,-1.5792,-10.5122,0.3451,-0.1789,0.304,60
3.099,59,-8.2536,-4.9336,-15.2846,0.1091,-0.468,0.2653,92,2.362,45,-0.6243,9.7461,-21.1393,0.3071,-0.0211,-1.5691,87,7200.62,139219,4.6025,-1.5389,-10.8848,0.1269,0.0253,0.12,60
3.151,60,-8.637,-4.4001,-15.057,0.6016,-0.9728,0.2341,92,2.414,46,-2.2318,5.5768,-20.8728,-0.4559,0.1775,-1.4691,87,7200.672,139220,5.3772,-0.9776,-10.9662,0.0673,0.0434,0.1678,60
3.203,61,-7.3809,-4.9787,-13.8384,0.8539,-1.2946,0.1429,92,2.466,47,-1.9627,5.9341,-18.8376,0.2119,-0.0522,-1.2938,87,7200.724,139221,7.0848,-1.2847,-11.719,0.2164,-0.0505,0.3473,60
3.254,62,-5.4885,-5.0264,-13.5602,1.1296,-0.9591,-0.1416,92,2.518,48,-2.9144,5.4026,-17.2588,-0.27,-0.251,-1.252,87,7200.775,139222,8.9388,-1.6855,-11.5409,0.0422,-0.3219,0.0745,60
3.306,63,-3.5889,-5.0005,-12.9198,1.146,-0.2034,-0.7693,92,2.569,49,-3.9136,4.3231,-15.7991,0.1991,-0.4349,-1.1156,87,7200.827,139223,9.115,-2.0332,-11.6458,-0.3315,-0.4821,-0.6217,60
3.358,64,-2.212,-5.2229,-12.6294,1.127,0.534,-1.2366,92,2.621,50,-4.4383,5.39,-15.3268,-0.0413,-0.7045,-0.7825,87,7200.879,139224,8.2406,-1.2549,-11.9358,-0.89,-0.3456,-1.1298,60
3.41,65,-1.6991,-5.7046,-13.7297,1.2723,1.0721,-1.5776,92,2.673,51,-4.5772,5.4802,-15.0395,-0.7102,-0.7913,-0.582,87,7200.931,139225,5.6107,-0.7882,-11.8539,-1.1103,-0.0923,-1.5004,60
3.462,66,-1.443,-8.0675,-13.9668,1.1704,1.4649,-1.8265,92,2.725,52,-5.5477,5.4713,-15.6105,-0.5322,-0.4304,-0.5675,87,7200.983,139226,3.3715,-0.5752,-11.2873,-1.3034,0.2664,-1.5031,60
3.513,67,-1.257,-11.0857,-13.8831,0.6319,1.7516,-2.0082,92,2.777,53,-6.1891,5.2908,-13.8587,0.0878,-0.1206,-0.3914,87,7201.034,139227,2.0074,-0.1789,-10.8889,-1.3645,0.4517,-1.103,60
3.565,68,-2.023,-11.4646,-13.8602,0.6236,1.9066,-1.8731,92,2.828,54,-10.0832,5.268,-15.3815,-0.4825,-0.4474,-0.6831,87,7201.086,139228,1.4512,-0.3453,-10.7594,-1.2319,0.5072,-0.6994,60
3.617,69,-2.9404,-10.0149,-12.9841,0.6403,1.8294,-1.4621,92,2.88,55,-8.5546,3.9726,-14.4106,-1.0322,-0.9992,-0.7176,87,7201.138,139229,1.1749,-0.1863,-10.4947,-1.0671,0.527,-0.4113,60
3.669,70,-3.4136,-8.0059,-12.8776,0.2738,1.4976,-1.2475,92,2.932,56,-7.626,4.4712,-13.5764,-0.4813,-0.5101,-0.669,87,7201.19,139230,0.9809,-0.0937,-10.2988,-0.9473,0.5433,-0.2017,60
3.72,71,-1.6403,-6.842,-14.4865,0.0379,0.8253,-1.4214,92,2.984,57,-6.0926,4.7747,-13.0842,-0.9877,-0.5583,-0.4,87,7201.241,139231,0.8696,-0.0268,-10.1244,-0.8613,0.5574,-0.047,60
3.772,72,3.8593,-6.671,-18.0889,-0.6497,-0.067,-1.1446,92,3.036,58,-5.3457,3.6875,-12.295,-0.8992,-0.3443,0.2124,87,7201.293,139232,0.8073,0.0426,-9.977,-0.7996,0.5717,0.0653,60
3.824,73,7.8732,-7.3148,-21.1986,-1.1516,-0.7182,-0.8008,92,3.087,59,-4.6934,4.4326,-11.8703,-1.1629,-0.2165,0.8204,87,7201.345,139233,5.9413,-3.4962,-6.498,-0.5064,0.8692,0.031,60
3.876,74,8.4556,-10.5364,-23.4682,-1.5178,-1.1935,0.0922,92,3.139,60,-4.6307,4.5847,-11.7531,-1.1142,-0.1678,1.2642,87,7201.397,139234,4.4117,-2.5326,-7.147,-0.3596,1.1792,-0.027,60
3.928,75,9.357,-12.8876,-14.537,-1.7852,-1.5144,0.7439,92,3.191,61,-3.437,6.1624,-11.8175,-0.3616,-0.2709,1.588,87,7201.448,139235,3.302,-1.8108,-7.7424,-0.2537,1.4062,-0.0687,60
3.979,76,7.1862,-14.0574,-16.096,-0.6457,-1.7746,0.6518,92,3.243,62,-3.0065,8.9147,-11.1896,-0.0003,0.4321,1.8244,87,7201.5,139236,2.4865,-1.2806,-8.1693,-0.1776,1.5733,-0.0994,60
4.031,77,3.1097,-9.4133,-15.7478,0.2031,-1.2524,0.855,92,3.295,63,-3.7456,8.5543,-10.9425,-0.1791,0.8288,1.9969,87,7201.552,139237,1.9053,-0.8919,-8.4943,-0.1231,1.6952,-0.1207,60
4.083,78,0.7637,-6.6805,-17.6104,0.8226,-0.8288,1.196,92,3.346,64,-3.7515,8.045,-10.5869,0.002,0.9102,1.9947,87,7201.604,139238,3.5311,0.5197,-7.44,-0.0133,1.7608,-0.1942,60
4.135,79,0.4523,-8.1188,-16.397,1.2713,-1.0064,1.1145,92,3.398,65,-3.4125,7.571,-10.7361,0.6732,1.2702,1.6564,87,7201.655,139239,4.9991,1.3789,-5.2509,-0.1627,1.3623,-0.0138,60
4.187,80,1.1765,-7.2799,-16.0575,1.125,-0.2651,1.4901,92,3.45,66,-1.8708,8.2916,-13.3431,1.163,0.7862,1.5656,87,7201.707,139240,8.2933,0.8741,-5.3021,-0.2006,0.7126,-0.6417,60
4.238,81,-1.12,-0.6111,-19.716,1.4954,-0.8261,1.7642,92,3.502,67,3.2387,8.7523,-17.6782,0.8514,-0.0989,1.7859,87,7201.759,139241,9.3752,1.9692,-3.7433,-0.0826,-0.143,-1.1444,60
4.29,82,4.239,-1.0768,-11.7985,1.7615,-1.2723,0.799,92,3.554,68,6.6126,9.0415,-20.8422,1.2931,-0.7448,0.6171,87,7201.811,139242,8.337,1.22,-3.1854,-0.1799,-0.7674,-1.4925,60
4.342,83,-2.3483,0.0809,-11.4026,1.96,-1.2641,1.1802,92,3.606,69,6.5899,11.5366,-23.1514,1.6155,-1.2163,-0.0365,87,7201.862,139243,6.5951,0.4362,-4.8148,-0.5122,-1.2232,-1.6264,60
4.393,84,-3.4093,0.4293,-11.6326,1.7334,-0.4521,1.0974,92,3.657,70,5.4517,13.7468,-18.3735,1.8508,-1.5547,-0.713,87,7201.914,139244,5.0435,0.3855,-6.2199,-1.0517,-1.5503,-1.8563,60
4.445,85,-3.917,0.4301,-10.2798,1.481,-0.1537,0.5732,92,3.709,71,-0.1488,10.8209,-21.3496,0.6708,-1.1285,-0.3413,87,7201.966,139245,6.1722,5.6124,-1.9762,-1.3214,-1.5244,-1.9018,60
4.497,86,-4.2812,-0.0813,-9.8827,1.0119,0.1873,0.2189,92,3.761,72,-3.017,8.0014,-22.1669,0.4788,-1.4963,-0.5218,87,7202.018,139246,5.2382,4.6479,-3.4833,-0.8604,-1.6705,-2.0641,60
4.549,87,-4.8244,-0.6093,-10.098,0.4496,0.7869,-0.1889,92,3.813,73,-0.1728,5.0559,-21.9871,-0.3306,-1.7648,0.1533,87,7202.069,139247,3.7641,4.3626,-3.8855,-0.7277,-1.5253,-2.1825,60
4.601,88,-4.6614,-1.4795,-10.8794,-0.3045,1.2451,-0.6132,92,3.865,74,-1.352,4.6167,-19.2016,0.4305,-0.6089,-0.2049,87,7202.121,139248,1.1913,5.9788,-4.5387,-0.5945,-1.3316,-1.953,60
4.652,89,-4.7012,-2.0331,-12.5606,-0.4833,1.5912,-0.7872,92,3.916,75,-5.1244,3.8637,-18.7748,-0.3608,-1.106,-0.4135,87,7202.173,139249,1.2596,5.9677,-5.0494,-0.6834,-1.3929,-0.9446,60
4.704,90,-4.7368,-3.9486,-13.9184,-0.708,1.8437,-1.0401,92,3.968,76,-1.6662,3.0314,-14.6182,0.3661,-1.4799,-0.5491,87,7202.225,139250,1.1479,5.5135,-5.4742,-0.7615,-1.2188,-0.1145,60
4.756,91,-4.5959,-5.0245,-15.447,-0.5387,2.0204,-1.4342,92,4.02,77,-2.3998,2.8287,-14.6525,0.9114,-0.6702,-0.8084,87,7202.276,139251,2.2358,4.5123,-5.7779,-0.7975,-0.9345,0.5921,60
4.808,92,-4.2261,-4.8771,-17.3639,-0.3626,1.92,-1.6276,92,4.072,78,-4.8526,2.702,-14.1696,1.3228,-0.2065,-0.8739,87,7202.328,139252,2.9515,4.1174,-6.1721,-0.7343,-0.8358,1.1078,60
4.859,93,-3.5666,-7.7697,-19.08,-0.423,1.6752,-1.8202,92,4.124,79,-4.2803,5.4113,-13.4,1.6372,-0.7761,-0.7017,87,7202.38,139253,3.4168,3.5755,-5.7973,-0.3805,-0.9833,1.4229,60
4.911,94,-2.634,-8.8702,-19.4435,-0.4876,1.1704,-1.9506,92,4.175,80,-5.3603,4.7336,-13.8747,0.9361,0.0834,-0.2397,87,7202.432,139254,5.2164,3.178,-5.5837,-0.0782,-1.0369,1.6456,60
4.963,95,-2.5004,-9.3318,-19.5231,-0.2632,0.4575,-1.8033,92,4.227,81,-4.9823,5.243,-13.2958,1.1728,-0.1425,0.2885,87,7202.484,139255,6.4547,2.7905,-5.4058,0.1673,-1.0427,1.8651,60
5.015,96,-1.8233,-6.0542,-18.1621,0.481,-0.3346,-1.5149,92,4.279,82,-5.5491,5.562,-12.6266,0.4687,-0.0136,0.73,87,7202.535,139256,9.3737,2.1288,-5.2724,0.4397,-0.9365,2.0369,60
5.067,97,-1.6034,-7.4637,-18.4277,0.4786,-0.8556,-1.0422,92,4.331,83,-4.3347,5.8953,-12.0407,-0.0142,0.1403,1.1522,87,7202.587,139257,11.4385,1.6485,-5.6667,0.6157,-0.7561,2.1623,60
5.118,98,-1.6801,-8.1813,-18.0592,0.5948,-1.2882,-0.4167,92,4.383,84,-4.0745,6.6391,-12.9991,-0.4079,0.7157,1.4544,87,7202.639,139258,11.827,1.5179,-6.075,0.6149,-0.4748,2.0701,60
5.17,99,-1.9401,-7.7784,-17.3806,1.0055,-1.6096,0.2438,92,4.434,85,-4.5998,5.7417,-15.4593,-0.0128,1.2014,1.7268,87,7202.69,139259,12.3481,1.0512,-6.5045,0.8019,-0.0486,1.7041,60
5.222,100,-2.1761,-7.6828,-16.074,1.0656,-1.8438,0.8182,92,4.486,86,-3.7766,7.7038,-14.9733,0.4299,1.128,1.8736,87,7202.742,139260,12.0749,0.2169,-6.5616,1.0068,0.066,0.9809,60
5.274,101,-2.6417,-7.2547,-14.7013,1.2531,-2.0044,1.1833,92,4.538,87,-4.0031,8.0943,-15.4494,-0.3563,1.5023,1.8974,87,7202.794,139261,12.1997,0.3355,-6.8045,1.1571,0.193,0.1307,60
5.325,102,-2.525,-6.2088,-13.0516,1.5743,-2.0073,1.1915,92,4.59,88,-2.9926,9.9141,-16.6762,0.3505,1.7756,1.4476,87,7202.846,139262,11.89,0.6698,-6.9161,1.288,0.3283,-0.5807,60
5.377,103,-1.52,-4.9869,-11.9171,1.4066,-1.7232,0.4859,92,4.642,89,-3.4724,10.112,-16.7693,-0.0561,1.6145,0.6674,87,7202.898,139263,10.9789,1.0557,-7.3495,1.3162,0.5846,-1.0999,60
5.429,104,-1.1654,-5.3776,-10.1856,1.0189,-1.0145,-0.3205,92,4.694,90,-3.1934,10.017,-16.418,-0.338,1.5583,-0.0173,87,7202.949,139264,9.4561,1.9256,-7.916,1.2085,0.8338,-1.4788,60
5.481,105,-0.303,-4.5476,-9.1253,1.418,-0.8223,-0.909,92,4.746,91,-2.5477,9.8445,-16.3253,-0.5511,1.1562,-0.4272,87,7203.001,139265,7.6008,2.6518,-8.5081,1.1104,1.0209,-1.7553,60
5.533,106,0.8499,-4.4342,-10.4733,0.8554,-0.6603,-1.3385,92,4.797,92,-2.6299,9.9559,-16.2454,-0.4242,0.7708,-0.7645,87,7203.053,139266,5.5253,2.2354,-9.2226,0.9166,1.145,-1.9572,60
5.584,107,4.2008,-8.434,-9.4465,-0.0531,0.1272,-1.652,92,4.849,93,-2.8726,9.7218,-16.097,-0.4965,0.3666,-1.082,87,7203.104,139267,3.841,0.1552,-9.82,0.6096,1.1248,-1.9537,60
5.636,108,3.3658,-9.5664,-9.9123,-0.2138,0.7274,-1.8333,92,4.901,94,-3.2738,8.6841,-15.8477,-0.7514,0.099,-1.3977,87,7203.156,139268,2.2095,-0.7094,-9.8509,0.1556,1.0614,-1.5929,60
5.688,109,0.9836,-9.19,-10.6419,-0.3207,0.9333,-1.5433,92,4.953,95,-3.7656,8.6578,-15.4462,-0.8052,0.0482,-1.7015,87,7203.208,139269,1.6883,-0.5035,-10.0337,-0.173,0.9682,-1.1095,60
5.74,110,0.0445,-8.2906,-11.4551,-0.7408,0.6793,-1.349,92,5.005,96,-4.2535,7.9201,-14.8738,-1.222,-0.057,-1.9282,87,7203.26,139270,1.2927,-0.2898,-9.9028,-0.383,0.9174,-0.7442,60
5.792,111,1.5882,-7.3701,-12.9824,-1.218,0.1319,-1.0571,92,5.056,97,-4.3463,6.9255,-13.9912,-1.5719,0.0988,-1.7778,87,7203.311,139271,1.0038,-0.1385,-9.8199,-0.5371,0.8812,-0.4785,60
5.843,112,4.499,-8.4984,-17.4716,-1.1955,-0.5731,-0.8083,92,5.108,98,-4.3208,5.8145,-13.4796,-1.3851,0.3048,-1.1992,87,7203.363,139272,0.769,0.0069,-9.7384,-0.651,0.8548,-0.286,60
5.895,113,8.34,-7.0046,-20.7481,-1.5325,-1.0876,-0.1344,92,5.16,99,-3.5724,5.7774,-12.905,-1.6746,0.4275,-0.2311,87,7203.415,139273,5.9196,2.4047,-15.1331,-0.7685,0.1761,-0.5965,60
5.947,114,10.9551,-9.9584,-23.1394,-1.7959,-1.4631,0.3838,92,5.212,100,-3.7856,4.8862,-11.9575,-1.9022,0.4886,0.4967,87,7203.467,139274,4.4525,1.7566,-13.3363,-0.0705,-0.005,-0.5494,60
5.999,115,4.5418,-8.1733,-24.8846,-0.7904,-1.0707,0.7476,92,5.264,101,-2.7819,4.1768,-11.3132,-1.6499,0.107,1.0279,87,7203.518,139275,3.3093,1.3216,-12.2911,0.4379,-0.1351,-0.5175,60
6.051,116,-0.1069,-8.68,-23.0419,-0.2317,-0.7266,0.5179,92,5.315,102,1.5416,8.2856,-10.6068,-0.5324,-0.2256,1.4156,87,7203.57,139276,2.4798,1.0136,-11.5037,0.8088,-0.2304,-0.4956,60
6.102,117,-2.4681,-4.5924,-23.3891,0.2954,-1.1996,0.4618,92,5.367,103,-0.7143,8.7206,-9.5812,-0.126,0.5145,1.6985,87,7203.622,139277,1.8739,0.8123,-10.9387,1.079,-0.2988,-0.4803,60
6.154,118,-0.5739,-4.8425,-19.7766,-0.4094,-1.2977,0.226,92,5.419,104,-0.8369,8.3895,-8.8676,0.2326,0.6227,1.8566,87,7203.674,139278,2.344,3.2793,-13.9744,0.8945,-0.352,0.0575,60
6.206,119,-0.53,-2.7395,-18.9283,-0.2272,-1.4226,0.1696,92,5.471,105,-1.1491,7.9131,-10.7838,0.8415,1.1336,1.5805,87,7203.725,139279,-3.5208,-2.8644,-10.2952,0.6475,-0.1641,0.2758,60
6.258,120,-1.1343,-2.8101,-17.8646,-0.1542,-1.3268,0.2826,92,5.523,106,0.5457,9.4832,-13.4925,1.2859,0.6544,1.3421,87,7203.777,139280,-2.1677,0.2561,-9.174,-0.0469,0.3029,0.4217,60
6.309,121,-1.7403,-2.9253,-16.8893,0.1988,-1.2036,0.4189,92,5.575,107,3.4941,9.4101,-17.5151,0.2585,-0.1951,1.152,87,7203.829,139281,-0.2654,2.8986,-8.8242,-0.3564,0.5003,0.0731,60
6.361,122,-2.9626,-3.1466,-17.7263,0.7758,-0.9222,0.6535,92,5.626,108,7.4694,9.7242,-20.7231,0.8119,-0.815,0.2515,87,7203.881,139282,0.7145,4.1126,-8.3119,-0.6713,0.4757,-0.2061,60
6.413,123,-4.346,-2.6531,-15.536,1.2406,-1.1673,0.6573,92,5.678,109,10.3707,5.2475,-12.4768,1.2643,-1.2675,-0.5028,87,7203.932,139283,0.5208,4.7689,-8.2433,-0.7474,0.4474,-0.4344,60
6.465,124,-5.5666,-2.9665,-14.9021,1.1575,-0.8221,0.6433,92,5.73,110,5.6176,9.1567,-8.3385,1.3774,-0.3198,-0.5246,87,7203.984,139284,-0.1594,5.0668,-7.9468,-0.5555,0.7445,-0.5841,60
6.517,125,-4.7791,-3.1538,-12.2004,1.2691,-0.6203,0.3044,92,5.782,111,-0.3459,4.6981,-9.956,0.3252,0.4457,-0.6456,87,7204.036,139285,-0.4146,5.3796,-7.2523,0.0042,0.8994,-0.5852,60
6.568,126,-2.8898,-3.4173,-11.8078,1.5738,-0.056,-0.423,92,5.834,112,-0.0509,4.3605,-12.5212,0.8696,-0.3474,-1.0871,87,7204.088,139286,-0.4559,6.754,-7.1209,0.3649,0.7865,-0.2986,60
6.62,127,-1.6063,-5.8865,-12.3046,1.7882,0.6415,-0.9839,92,5.885,113,-0.6435,4.2551,-14.4082,0.3807,-0.2874,-1.4572,87,7204.14,139287,-1.2632,6.3801,-6.9531,0.3474,0.6342,-0.1574,60
6.672,128,-1.3245,-5.8795,-14.4348,1.9795,1.1506,-1.3932,92,5.937,114,-1.0423,5.2932,-15.3726,0.3013,-0.8824,-1.6072,87,7204.192,139288,-1.9493,5.5559,-7.7157,0.1492,0.3802,-0.3007,60
6.724,129,0.824,-5.8402,-11.3698,2.0204,1.117,-1.6919,92,5.989,115,-0.6697,5.6317,-14.916,-0.4601,-1.3167,-1.6977,87,7204.243,139289,-1.7578,3.1899,-8.9522,0.1562,0.1773,-0.3957,60
6.776,130,1.9754,-9.3236,-11.4807,1.0006,1.4976,-1.9099,92,6.041,116,-1.0643,4.0113,-16.1619,-0.5456,-1.1212,-1.8693,87,7204.295,139290,0.3572,1.5975,-9.121,0.1251,0.0666,-0.3931,60
6.827,131,0.7551,-9.6955,-11.8307,0.0529,1.7557,-1.0359,92,6.093,117,-2.9413,4.2739,-14.854,-1.0782,-1.4348,-1.7032,87,7204.347,139291,0.3396,1.165,-9.2755,0.0169,-0.2506,-0.4803,60
6.879,132,-0.5722,-9.3832,-14.6444,-0.6388,1.1325,-0.3625,92,6.144,118,-3.4921,1.1975,-12.5266,-1.467,-1.0891,-1.1428,87,7204.399,139292,0.2662,0.9037,-9.3766,-0.0638,-0.4853,-0.5459,60
6.931,133,0.5735,-8.5746,-17.4239,-0.7105,0.1853,-0.049,92,6.196,119,-6.7905,3.3221,-11.9254,-1.2184,-1.1142,-0.9461,87,7204.45,139293,0.2071,0.7194,-9.4268,-0.123,-0.6561,-0.5954,60
6.982,134,2.9285,-8.8598,-18.0076,-0.7708,-0.5341,-0.1801,92,6.248,120,-5.4633,3.6175,-10.833,-1.4957,-0.4625,-0.4312,87,7204.502,139294,0.1593,0.5888,-9.4546,-0.1669,-0.7809,-0.6329,60
7.034,135,3.8986,-10.6681,-17.9342,-1.2399,-1.0591,-0.4161,92,6.3,121,-5.3503,6.1,-11.7063,-1.6587,0.1303,-0.1138,87,7204.554,139295,0.0946,0.5438,-9.4264,-0.1996,-0.871,-0.6627,60
7.086,136,2.4843,-12.9838,-21.0857,-1.0189,-0.2759,0.3729,92,6.352,122,-5.3038,4.0644,-11.357,-1.8906,0.0766,0.5823,87,7204.606,139296,-1.9004,1.4285,-13.4071,-0.3494,-0.6008,-0.4364,60
7.138,137,6.383,-14.6739,-23.3858,-1.2331,-0.4,0.9488,92,6.404,123,-4.2623,4.0058,-11.2048,-1.8756,-0.4608,1.0904,87,7204.657,139297,-1.354,1.0706,-12.4373,-0.4588,-0.381,-0.2664,60
7.19,138,5.0748,-9.7369,-20.1666,-0.5756,-0.9613,1.3678,92,6.455,124,-3.1772,7.9308,-10.0532,-1.7861,-0.2183,1.4612,87,7204.709,139298,-0.9568,0.817,-11.6993,-0.5389,-0.2199,-0.1441,60
7.241,139,2.4932,-6.9777,-18.0831,-0.2331,-1.3678,0.978,92,6.507,125,-4.3142,7.4729,-10.5277,-1.4821,0.3751,1.4946,87,7204.761,139299,-1.4728,-2.2843,-5.9752,-0.4142,0.1462,-0.734,60
7.293,140,-0.1301,-5.4841,-15.2496,0.4058,-0.4714,0.1383,92,6.559,126,-5.5114,6.3598,-10.9852,-0.7566,0.3793,1.3759,87,7204.813,139300,-0.831,3.6639,-3.8689,-0.4108,0.444,-0.9174,60
7.345,141,-1.0372,-3.5733,-14.4506,-0.1802,-0.5095,0.0597,92,6.611,127,-4.7956,4.6965,-11.4452,0.0529,0.6852,1.561,87,7204.864,139301,-0.6044,5.0398,-4.3527,0.2909,0.6887,-1.0924,60
7.397,142,-3.3645,-4.227,-14.6502,-0.8068,-0.4764,0.0033,92,6.663,128,-1.2478,6.5627,-15.0136,0.7103,-0.1726,1.8046,87,7204.916,139302,0.0818,2.4871,-5.2949,0.8862,0.7444,-1.3272,60
7.449,143,-4.0361,-4.5808,-15.0217,-0.4402,-0.946,0.226,92,6.714,129,1.2218,6.925,-15.6051,-0.1616,-0.3694,1.9825,87,7204.968,139303,-1.7537,-0.4023,-7.0907,0.4416,0.6113,-0.9922,60
7.5,144,-3.9439,-4.0214,-14.7064,0.0889,-1.0077,0.4066,92,6.766,130,5.8109,10.381,-13.0377,0.5538,-0.9423,0.9003,87,7205.019,139304,-2.9258,0.8302,-6.8339,0.0328,0.2216,-0.4307,60
7.553,145,-3.4222,-3.5998,-13.0101,0.5836,-0.6217,0.1424,92,6.818,131,2.401,12.9034,-13.5374,-0.1349,-0.8256,0.0086,87,7205.071,139305,-4.1962,1.8263,-6.8516,-0.2504,0.0322,-0.4344,60
7.604,146,-2.453,-5.7006,-12.3338,0.9509,0.065,-0.3235,92,6.87,132,6.2467,7.5983,-14.5188,-0.5751,-1.2753,-0.4157,87,7205.123,139306,-5.2615,2.5384,-6.5852,-0.6426,0.0637,-0.975,60
7.656,147,-1.9409,-2.7556,-13.4055,1.3684,0.7299,-0.9112,92,6.922,133,2.5654,8.4114,-14.9654,0.2518,-0.7642,-0.7513,87,7205.175,139307,-4.965,2.7049,-6.5658,-0.9272,0.1876,-1.3346,60
7.708,148,-2.2179,-3.6305,-12.8601,1.6731,1.2151,-1.3402,92,6.973,134,2.0745,5.4278,-15.1486,0.0961,-1.2304,-0.7511,87,7205.226,139308,-3.7353,2.6058,-7.099,-0.9408,0.1161,-1.0405,60
7.759,149,2.018,-5.4519,-11.7634,1.0721,0.6996,-1.6532,92,7.025,135,0.0831,6.8618,-15.4857,0.7407,-0.2189,-0.7497,87,7205.278,139309,-2.2295,2.3578,-8.3827,-0.6541,-0.175,-0.3217,60
7.811,150,2.5982,-9.1768,-10.8054,1.0042,1.1921,-1.8593,92,7.077,136,-2.4446,6.0206,-16.0864,-0.1388,-0.1104,-0.899,87,7205.33,139310,-1.4587,2.3965,-9.3555,-0.2274,-0.3502,0.4409,60
7.863,151,1.6618,-9.2784,-10.6615,0.2191,1.2747,-1.3848,92,7.129,137,-4.2763,5.57,-16.0341,-0.039,-0.7058,-1.3425,87,7205.382,139311,-0.9082,1.8568,-9.3173,0.4256,-0.368,0.9975,60
7.915,152,1.6856,-7.9753,-11.5405,0.0541,0.9839,-0.9877,92,7.181,138,-3.0496,4.5391,-15.1178,-0.4981,-1.1878,-1.3552,87,7205.434,139312,-0.8404,1.5312,-9.3104,0.899,-0.387,1.4037,60
7.967,153,2.5295,-7.4228,-13.8353,-0.6379,0.2216,-0.7719,92,7.232,139,-2.9911,4.6572,-14.655,-0.8828,-1.2399,-1.3712,87,7205.485,139313,-0.7765,1.3014,-9.3056,1.2412,-0.4106,1.7002,60
8.018,154,4.4453,-7.6536,-16.8624,-1.1429,-0.5076,-0.778,92,7.284,140,-2.3538,5.1542,-13.0356,-1.3243,-0.7369,-0.761,87,7205.537,139314,-0.712,1.1621,-9.3276,1.4863,-0.4332,1.9166,60
8.07,155,7.5596,-7.4874,-18.8929,-1.0506,-1.0398,-0.9847,92,7.336,141,-3.2272,4.5899,-12.4641,-1.6466,0.0294,0.091,87,7205.589,139315,-0.6429,1.0944,-9.3583,1.6594,-0.4571,2.0745,60
8.122,156,9.9133,-10.6624,-11.1977,-1.3632,-1.1876,-0.4128,92,7.388,142,-3.9683,5.7579,-13.1246,-1.8818,0.7005,0.7318,87,7205.641,139316,-3.4988,-1.7806,-4.2667,0.7597,-0.1906,1.6285,60
8.174,157,5.4339,-10.1088,-14.7372,-1.0859,-1.2136,0.179,92,7.44,143,-4.3071,7.6059,-12.3217,-2.0534,0.1651,1.1995,87,7205.692,139317,-2.4894,-1.2549,-5.5527,0.0591,-0.0819,1.2238,60
8.226,158,1.1705,-8.9292,-15.0616,-1.0634,-0.9371,0.6387,92,7.491,144,-2.8981,5.2517,-10.4044,-1.3241,0.2487,1.5408,87,7205.744,139318,-1.7486,-0.867,-6.609,-0.4516,-0.002,0.928,60
8.277,159,-0.8256,-4.9472,-13.976,-0.1024,-0.7395,0.6871,92,7.543,145,-4.3922,8.6024,-10.3815,-0.9671,0.6773,1.3363,87,7205.796,139319,4.0821,4.6983,-12.8491,-1.0075,0.3606,0.6763,60
8.329,160,0.1394,-4.6735,-14.7059,-0.3893,-0.8936,0.5777,92,7.595,146,-4.7666,5.6569,-11.3134,-1.3858,0.9332,1.0812,87,7205.848,139320,5.1706,7.0214,-9.7733,-0.9632,0.1262,0.1341,60
8.381,161,-0.4349,-4.3519,-14.9202,-0.2985,-0.8429,0.626,92,7.647,147,-4.9863,3.4102,-12.0243,-0.3397,0.8156,1.4298,87,7205.899,139321,2.3161,6.4425,-8.7639,-0.8975,0.5163,-0.5782,60
8.433,162,-1.1726,-4.2168,-15.3023,-0.16,-0.8335,0.6639,92,7.699,148,-3.0188,6.8919,-13.8851,0.4238,0.1028,1.7089,87,7205.951,139322,-1.8561,4.7734,-9.3125,-0.9023,0.9213,-0.881,60
8.484,163,-1.7378,-3.604,-15.0276,0.2918,-0.8589,0.7198,92,7.751,149,1.5083,8.381,-18.0738,0.981,-0.5977,1.9126,87,7206.003,139323,-0.8843,5.2173,-8.0486,-0.7791,0.7579,-0.7555,60
8.536,164,-1.5571,-3.6759,-13.1582,0.8728,-0.9534,0.4804,92,7.802,150,4.4531,9.2796,-21.1309,1.2402,-1.1089,2.0175,87,7206.055,139324,-0.5728,5.1886,-7.41,-0.5903,0.6617,-0.8475,60
8.588,165,0.4623,-3.7272,-12.1367,1.3114,-0.6231,-0.2988,92,7.854,151,0.5593,12.0995,-23.3621,1.5554,-0.1303,1.1954,87,7206.106,139325,-1.5459,5.7421,-6.9076,-0.3674,0.6657,-1.0371,60
8.64,166,1.0152,-2.582,-12.3038,1.6315,-0.0166,-0.8932,92,7.906,152,-0.2944,7.4904,-24.9722,0.4552,-0.7678,0.262,87,7206.158,139326,-1.6869,5.6026,-6.4931,-0.0035,0.7952,-1.2818,60
8.692,167,2.3259,-3.6166,-12.0782,1.5254,0.5092,-1.327,92,7.958,153,-0.3535,5.8094,-22.4579,0.9705,-0.4363,-0.418,87,7206.21,139327,-1.3589,4.5826,-6.9445,0.3664,0.9334,-1.5157,60
8.743,168,4.3409,-7.5118,-12.2028,1.215,0.8508,-1.6436,92,8.01,154,-4.2982,4.5121,-20.3863,0.1594,-0.7026,-0.8786,87,7206.262,139328,-0.2521,2.9562,-8.0768,0.6381,0.9476,-1.6302,60
8.795,169,4.9729,-9.376,-12.2533,0.4895,1.2137,-1.3028,92,8.061,155,-1.5067,4.6572,-18.9433,0.5048,-1.1769,-0.8439,87,7206.313,139329,0.1055,1.9647,-8.4075,0.8291,1.0616,-1.5126,60
8.847,170,3.641,-8.6453,-12.7078,-0.2864,1.3331,-0.61,92,8.114,156,-3.7199,5.3022,-18.4523,0.1535,-1.1341,-0.7704,87,7206.365,139330,0.1176,1.5358,-8.7107,0.9458,1.1517,-1.3956,60
8.899,171,3.2019,-6.7886,-13.3006,-0.8864,0.8182,-0.3294,92,8.165,157,-3.4946,5.5957,-17.5114,-0.1792,-1.2858,-0.946,87,7206.417,139331,0.1068,1.2273,-8.9115,1.0286,1.2188,-1.311,60
8.951,172,4.8879,-5.9875,-16.0972,-1.0528,-0.0722,-0.6584,92,8.217,158,-3.2777,4.6613,-16.6307,-0.5885,-1.5939,-1.0327,87,7206.469,139332,0.0797,0.9906,-9.0598,1.0856,1.2683,-1.251,60
9.002,173,6.2183,-5.0866,-17.3172,-1.1901,-0.722,-0.8082,92,8.269,159,-1.1633,3.9514,-15.0033,-1.0416,-1.0829,-0.4762,87,7206.52,139333,0.0476,0.8213,-9.1932,1.1246,1.3048,-1.2088,60
9.054,174,5.194,-8.9101,-20.6179,-0.972,-0.0364,0.0868,92,8.321,160,-1.4754,4.0302,-13.5087,-1.3474,-0.1112,0.2911,87,7206.572,139334,-5.1194,3.1145,-14.2374,1.1535,1.3383,-1.1783,60
9.106,175,7.4967,-9.4859,-22.039,-0.2359,-0.1954,0.7365,92,8.373,161,-0.8029,4.4902,-12.7982,-1.6634,0.5979,0.8778,87,7206.624,139335,-3.8417,2.3835,-12.2638,0.8603,0.8332,-0.9449,60
9.158,176,7.1758,-8.6214,-21.5887,-0.2207,-0.812,0.9281,92,8.424,162,-1.2543,7.0125,-12.2102,-1.8941,1.1155,1.306,87,7206.676,139336,-2.7763,1.7631,-11.6229,0.6485,0.4648,-0.8035,60
9.21,177,4.3982,-6.8947,-19.8568,-0.2299,-1.2619,0.8018,92,8.476,163,0.2528,7.8877,-12.794,-1.7093,1.2709,1.6186,87,7206.727,139337,-1.4625,-0.6593,-8.7294,-0.1993,-0.3238,-1.2374,60
9.261,178,2.5038,-5.5788,-17.8536,-0.1444,-1.5904,0.706,92,8.528,164,0.4211,9.8173,-13.501,-0.6167,1.6066,1.2463,87,7206.779,139338,-6.299,2.8223,-5.0788,-0.4166,-0.5278,-1.3836,60
9.313,179,1.9097,-6.065,-16.3586,-0.3742,-1.4513,0.7081,92,8.58,165,-0.5233,8.5818,-13.3634,-0.6473,1.4373,0.8699,87,7206.831,139339,-8.0886,4.2106,-4.5041,-0.4223,-0.4414,-1.3715,60
9.365,180,0.8909,-5.156,-16.596,-0.4568,-1.3865,0.7279,92,8.632,166,-0.7216,6.7392,-14.4814,0.1427,1.1853,0.8224,87,7206.883,139340,-7.5411,3.3363,-4.8989,-0.4179,-0.1177,-1.6687,60
9.417,181,-0.6224,-4.2648,-16.5786,-0.0635,-1.4868,0.8055,92,8.683,167,0.7751,6.5721,-15.4397,0.7609,0.487,1.2577,87,7206.935,139341,-4.1728,-1.3223,-8.1313,-0.3993,0.2419,-1.8939,60
9.469,182,-1.8818,-3.8272,-14.9316,0.3333,-1.3375,0.7435,92,8.735,168,3.8358,7.3551,-17.7904,0.9842,-0.3172,1.5833,87,7206.986,139342,-4.6558,-0.0484,-8.0796,-0.3022,0.4085,-1.7691,60
9.52,183,-0.5364,-3.0877,-12.9745,0.9141,-0.6751,0.5911,92,8.787,169,6.9291,9.8983,-20.9241,1.3252,-0.9042,1.5181,87,7207.038,139343,-5.4806,0.044,-7.6955,-0.2523,0.5349,-1.652,60
9.572,184,0.1028,-3.6785,-10.9991,1.3415,0.1897,-0.1662,92,8.839,170,7.0416,12.5511,-12.6235,1.6383,-0.3335,0.5223,87,7207.09,139344,-6.0716,-0.6004,-7.9442,-0.3621,0.7159,-1.694,60
9.624,185,-0.4663,-2.3554,-11.8401,1.6535,0.8209,-0.7964,92,8.891,171,5.1773,8.5584,-14.8543,0.5156,-0.9161,-0.2067,87,7207.142,139345,-5.767,-0.308,-8.0764,-0.4627,0.7586,-1.3113,60
9.676,186,4.2845,-1.5474,-10.1273,1.5154,0.2892,-1.2564,92,8.942,172,2.7841,6.9836,-14.9001,0.8933,-0.5327,-0.8231,87,7207.193,139346,-3.9662,-0.6588,-9.2122,-0.4246,0.6728,-1.082,60
9.727,187,7.1876,-6.327,-10.9346,1.1063,0.7892,-1.5921,92,8.994,173,1.4413,6.0817,-15.6362,0.4795,-1.0615,-1.1537,87,7207.245,139347,-0.4731,-0.9423,-9.628,-0.334,0.4969,-0.7525,60
9.779,188,6.3242,-8.0229,-10.3678,0.7499,1.087,-1.0918,92,9.046,174,2.2917,4.8232,-12.8487,0.0093,-1.4036,-0.9488,87,7207.297,139348,1.7618,-0.195,-9.4794,-0.1862,0.0551,0.0254,60
9.831,189,4.706,-8.1111,-10.197,0.409,1.1201,-0.808,92,9.098,175,0.712,5.5145,-14.0763,-0.1656,-1.2603,-1.0792,87,7207.349,139349,1.314,-0.093,-9.3582,-0.1972,-0.1862,0.6942,60
9.883,190,3.6468,-8.3886,-10.2713,0.1185,1.1108,-0.4945,92,9.15,176,-1.0871,3.4648,-13.874,-0.8009,-1.338,-1.2738,87,7207.4,139350,0.9542,0.0027,-9.4675,-0.2413,-0.341,1.1824,60
9.935,191,2.3785,-7.6779,-10.8131,-0.1343,0.9668,-0.2096,92,9.202,177,-1.5639,2.4311,-12.4947,-1.2645,-1.55,-0.7032,87,7207.452,139351,0.6697,0.0929,-9.5444,-0.2758,-0.4527,1.5386,60
9.986,192,2.0358,-7.0037,-13.1694,-0.7754,0.325,-0.1316,92,9.253,178,-2.3652,3.257,-11.7889,-0.721,-0.7073,0.0321,87,7207.504,139352,0.4119,0.1825,-9.5913,-0.3049,-0.5318,1.7987,60
10.038,193,4.6287,-7.8405,-17.6082,-1.2433,-0.4322,0.5616,92,9.305,179,-3.1933,3.1934,-11.4784,-1.2063,0.0004,0.6888,87,7207.556,139353,-1.4172,1.786,-12.9125,-0.2132,-0.6249,1.5304,60
10.09,194,6.1175,-7.7114,-20.8477,-1.0319,-0.9847,0.2669,92,9.357,180,-4.2675,4.0128,-11.0505,-1.5604,0.1655,1.1681,87,7207.607,139354,-1.0445,1.351,-12.0524,-0.1504,-0.7533,1.3297,60
10.142,195,9.0311,-0.2382,-23.0241,-1.4305,-1.388,0.7409,92,9.409,181,-0.3738,6.6535,-10.8069,-1.5036,-0.5519,1.5179,87,7207.659,139355,-0.7521,1.0368,-11.4072,-0.106,-0.8469,1.1821,60
10.194,196,5.4564,5.2161,-19.7302,-0.5185,-1.6824,0.8659,92,9.461,182,2.0563,9.5308,-11.3516,-0.4257,0.2763,0.7532,87,7207.711,139356,-0.5348,0.8097,-10.9384,-0.0754,-0.9144,1.0738,60
10.245,197,2.2894,4.969,-17.5319,0.2959,-1.2212,0.9173,92,9.512,183,-0.315,9.9371,-10.725,-0.5433,0.8462,0.2228,87,7207.763,139357,-0.3912,0.6427,-10.5866,-0.0549,-0.9639,0.9935,60
10.297,198,0.7622,5.294,-19.4534,0.609,-1.5606,0.8495,92,9.564,184,-1.4641,8.5781,-10.342,-0.1859,1.0232,0.0395,87,7207.814,139358,-2.3274,-0.1861,-5.1632,0.1082,-0.8913,0.7738,60
10.349,199,-1.1614,4.0748,-18.6362,0.3824,-1.5774,0.7186,92,9.616,185,-2.0801,8.0052,-10.2899,-0.0232,1.1325,0.0368,87,7207.866,139359,-2.1204,3.5715,-3.3432,-0.057,-0.783,0.9229,60
10.401,200,-1.7178,2.4752,-18.6983,0.2908,-1.4526,0.5654,92,9.668,186,-2.6657,5.4274,-11.7002,0.5888,1.4727,0.0992,87,7207.918,139360,-2.5443,3.85,-3.9955,0.1302,-0.736,0.8095,60
10.453,201,-1.7747,1.5012,-17.9451,0.2854,-1.3183,0.5021,92,9.72,187,-2.6742,4.3109,-14.6569,1.1014,1.2845,0.319,87,7207.97,139361,-4.5086,3.0405,-4.6677,0.4309,-0.3531,0.5727,60
10.504,202,-2.4446,0.8855,-17.3194,0.2736,-1.1539,0.4229,92,9.771,188,2.9675,7.6124,-18.637,1.4756,0.2648,0.8564,87,7208.021,139362,-4.2028,4.0481,-4.8997,0.5235,-0.0024,0.1162,60
10.556,203,-2.8279,0.5058,-16.7391,0.1918,-0.9503,0.3328,92,9.823,189,1.5496,5.9845,-21.542,1.2415,-0.4794,1.0073,87,7208.073,139363,-4.2257,3.9365,-5.4609,0.3567,0.184,-0.2921,60
10.608,204,-2.6311,-0.8727,-15.222,0.1257,-0.6227,0.1166,92,9.875,190,0.897,9.6946,-19.7263,1.4656,0.3292,0.8988,87,7208.125,139364,-4.0453,4.1306,-6.068,0.1745,0.2593,-0.3927,60
10.66,205,-2.3267,-2.714,-13.0242,0.3739,-0.094,-0.1953,92,9.927,191,-0.2109,7.6927,-20.0946,0.3896,-0.4324,0.4573,87,7208.177,139365,-4.0391,3.8214,-6.4648,0.1279,0.1634,-0.3803,60
10.712,206,-1.2495,-2.9427,-12.9488,0.9472,0.6065,-0.8177,92,9.979,192,-1.7595,5.4678,-20.2141,-0.0867,-0.1788,-0.0473,87,7208.228,139366,-4.1111,3.4583,-6.6678,0.0947,0.031,-0.3591,60
10.763,207,1.0501,-0.7473,-11.7839,1.3657,1.1251,-1.2719,92,10.03,193,-2.0327,3.507,-19.4828,0.2252,-0.8031,-0.2941,87,7208.28,139367,-3.5114,2.9333,-6.9178,0.011,-0.065,-0.2652,60
10.815,208,5.8229,-5.7431,-15.2072,0.3194,1.5035,-1.6034,92,10.082,194,-1.8455,4.5613,-20.3051,0.5719,-0.4458,-0.4467,87,7208.332,139368,-2.8297,2.0437,-7.6213,-0.1022,-0.0784,-0.1878,60
10.867,209,6.8086,-9.3893,-17.4399,0.2365,1.7798,-1.6946,92,10.134,195,-2.2718,4.8346,-18.89,0.4348,-0.9627,-0.5441,87,7208.384,139369,-2.071,1.5125,-8.2067,-0.1949,-0.0675,-0.1315,60
10.919,210,5.9187,-9.9893,-17.7337,0.5213,1.9436,-1.6152,92,10.186,196,-3.2667,4.4805,-17.4754,0.3101,-0.5716,-0.5671,87,7208.436,139370,-1.5242,1.437,-8.2916,-0.2579,-0.0626,-0.093,60
10.971,211,4.4851,-9.5857,-17.9243,0.3203,1.8665,-1.2406,92,10.238,197,-3.7137,4.4626,-16.6408,0.0038,-0.8371,-0.5289,87,7208.487,139371,-1.1261,1.0709,-8.6663,-0.3174,-0.0621,-0.0675,60
11.022,212,3.2974,-8.7098,-17.9119,0.4117,1.326,-0.8505,92,10.29,198,-3.3507,4.5509,-15.346,-0.118,-0.7682,-0.4453,87,7208.539,139372,-0.8558,0.8145,-8.9654,-0.3613,-0.0626,-0.0501,60
11.074,213,2.4429,-7.4365,-18.3331,0.1546,0.4706,-0.775,92,10.341,199,-3.2966,5.1514,-13.548,-0.1881,-0.3541,-0.3759,87,7208.591,139373,-0.6677,0.6293,-9.1815,-0.3939,-0.0628,-0.0395,60
11.126,214,3.1864,-6.0024,-18.1404,-0.2342,-0.3258,-0.8562,92,10.393,200,-2.7284,5.8371,-13.4092,-0.6065,0.2009,-0.2248,87,7208.642,139374,-0.5483,0.4961,-9.3263,-0.4185,-0.0635,-0.0328,60
11.178,215,7.3773,-7.668,-21.2362,-0.3344,-0.9071,-0.5248,92,10.445,201,-1.1451,4.6979,-13.6735,-1.1227,0.7072,0.501,87,7208.694,139375,-0.5403,0.4355,-9.4186,-0.4367,-0.0644,-0.0298,60
11.23,216,3.8436,-10.7942,-15.6918,-0.2952,-0.0419,0.0651,92,10.497,202,0.2755,5.2495,-12.9001,-1.4994,1.0759,1.031,87,7208.746,139376,0.0309,0.6468,-10.4728,-0.7249,0.1323,-0.6978,60
11.281,217,3.6623,-8.9963,-15.8838,0.0696,0.3111,0.6565,92,10.549,203,3.7184,7.9962,-13.5202,-0.9198,1.1046,1.4178,87,7208.798,139377,-0.0915,0.5746,-10.203,-0.9401,0.2839,-1.1854,60
11.333,218,1.6768,-6.1396,-14.1096,0.1907,-0.3571,1.0873,92,10.601,204,4.292,11.1628,-16.4391,0.0004,1.4852,1.6373,87,7208.85,139378,-0.1882,0.526,-10.0329,-1.1014,0.3898,-1.5412,60
11.385,219,1.731,-3.9031,-14.485,-0.1267,-0.9299,0.7181,92,10.652,205,3.0249,12.7629,-17.1839,0.0668,1.6804,1.2175,87,7208.901,139379,1.078,-2.9717,-9.2991,-1.4806,0.0538,-1.8009,60
11.437,220,0.1666,-3.6129,-15.4033,-0.2582,-0.8996,0.801,92,10.704,206,0.5918,10.6932,-17.708,-0.3175,1.9055,0.6333,87,7208.953,139380,-2.7492,-4.6189,-7.0336,-0.9737,0.7279,-1.7681,60
11.488,221,-0.5927,-3.4594,-15.9559,-0.3739,-0.9144,0.6433,92,10.756,207,-0.2622,9.3163,-18.1776,0.2347,0.9272,0.3486,87,7209.005,139381,-3.3433,-5.0732,-7.4134,-1.1749,0.8635,-1.2687,60
11.54,222,-0.5086,-4.5081,-16.4562,-0.4911,-0.7325,0.4237,92,10.808,208,0.1057,7.9749,-18.2289,0.3295,0.0157,0.3072,87,7209.057,139382,-0.8456,-2.7478,-7.5623,-1.0504,0.7735,-1.1694,60
11.592,223,-0.8836,-4.8403,-16.6243,-0.5572,-0.5847,0.1711,92,10.86,209,1.4355,7.3244,-19.1544,0.2003,-0.6612,0.7034,87,7209.108,139383,-3.0215,-4.1092,-7.6707,-1.0256,0.7976,-1.1131,60
11.644,224,-1.4476,-5.1958,-16.7611,-0.1855,-0.4049,-0.0266,92,10.911,210,5.9669,8.2487,-21.9196,-0.3057,-1.1553,0.8583,87,7209.16,139384,-3.1979,-4.3707,-8.5284,-0.9603,0.8685,-1.1132,60
11.696,225,-1.7383,-4.389,-16.0779,0.4565,-0.0903,-0.3007,92,10.963,211,9.2742,11.3471,-13.3501,0.4104,-0.5534,0.0265,87,7209.212,139385,-3.439,-4.9932,-8.8256,-0.829,0.7311,-1.1695,60
11.747,226,-2.7995,-1.926,-15.02,1.0075,0.3801,-0.8946,92,11.015,212,4.381,9.6079,-15.4052,-0.3805,-0.3812,-0.4081,87,7209.264,139386,-3.4513,-5.3926,-9.1696,-0.7213,0.5887,-0.9609,60
11.799,227,-1.1755,-1.2586,-13.3256,1.4097,0.6166,-1.328,92,11.067,213,3.4849,5.3269,-10.4821,-0.4608,-0.0581,-0.9763,87,7209.315,139387,-2.6371,-4.8522,-10.5866,-0.5552,0.1854,-0.1104,60
11.851,228,3.417,0.1085,-10.8287,1.7032,0.9326,-1.6443,92,11.119,214,-0.0481,6.2726,-12.1858,0.3354,-0.7151,-1.0861,87,7209.367,139388,-2.4799,-4.0471,-10.7652,-0.2962,-0.2431,0.5952,60
11.903,229,7.5504,-5.1185,-12.9313,0.5657,1.3631,-1.8752,92,11.17,215,1.2817,6.9568,-12.9472,-0.392,-0.3413,-0.8391,87,7209.419,139389,-1.4049,-3.2733,-9.8827,0.0336,-0.5475,1.1101,60
11.955,230,6.7093,-8.2933,-13.333,0.5705,1.6633,-1.3128,92,11.222,216,-1.617,6.1156,-14.6516,-0.4163,-0.6248,-0.753,87,7209.471,139390,0.6693,-1.576,-10.1147,0.2236,-0.8711,1.4859,60
12.006,231,4.495,-8.0701,-14.7143,0.3822,1.7303,-0.6573,92,11.274,217,0.7279,7.3972,-15.2241,-0.413,-0.9658,-0.5879,87,7209.522,139391,0.4418,-1.0034,-9.9235,0.3293,-1.0991,1.7601,60
12.058,232,2.7473,-8.1316,-15.9898,0.0892,0.8027,-0.1331,92,11.326,218,-0.3592,7.5895,-15.5742,-0.4346,-0.2394,-0.8039,87,7209.574,139392,0.2522,-0.5566,-9.7909,0.4017,-1.2649,1.9603,60
12.11,233,3.6232,-6.2057,-17.5993,0.5763,-0.0835,0.2265,92,11.378,219,-0.8953,6.7268,-15.874,-0.7835,0.1006,-0.8788,87,7209.626,139393,0.1103,-0.2145,-9.6715,0.4473,-1.3864,2.1064,60
12.162,234,7.2333,-5.0312,-20.8412,-0.2568,-0.7303,0.6424,92,11.429,220,-2.6941,2.7982,-15.786,-1.2519,0.7525,-0.1429,87,7209.677,139394,-0.0329,0.0766,-9.5638,0.4712,-1.4757,2.2131,60
