right_hand_timestamp,right_hand_index,right_hand_accel_x,right_hand_accel_y,right_hand_accel_z,right_hand_gyro_x,right_hand_gyro_y,right_hand_gyro_z,right_hand_battery_percentage,left_hand_timestamp,left_hand_index,left_hand_accel_x,left_hand_accel_y,left_hand_accel_z,left_hand_gyro_x,left_hand_gyro_y,left_hand_gyro_z,left_hand_battery_percentage,ball_timestamp,ball_index,ball_accel_x,ball_accel_y,ball_accel_z,ball_gyro_x,ball_gyro_y,ball_gyro_z,ball_battery_percentage
0.538,10,-4.2377,-5.3083,-21.4864,0.3303,-0.4624,0.5354,84,0.382,7,-6.3572,10.5708,-5.1801,-0.7934,0.2168,-1.8492,91,6130.006,118520,-3.0111,-5.9696,-8.1808,0.3272,0.6242,-0.4353,60
0.59,11,-4.6016,-5.0896,-21.4446,0.6,-1.0068,0.7067,84,0.434,8,-6.8117,9.2638,-5.3033,-1.2102,0.1491,-1.9955,91,6130.058,118521,-2.2921,-5.6925,-8.0268,0.6325,0.3577,-0.6935,60
0.642,12,-5.2827,-5.4088,-20.4795,0.6955,-1.4042,0.7663,84,0.485,9,-7.3499,8.5581,-5.6029,-0.9207,0.0668,-1.9759,91,6130.109,118522,-1.8121,-6.6604,-7.4062,0.9701,0.0329,-0.8368,60
0.693,13,-5.4809,-4.9273,-19.61,0.9181,-1.6942,0.6062,84,0.537,10,-6.6377,7.7323,-5.2772,-1.3252,0.0321,-1.8876,91,6130.161,118523,-2.7904,-9.8356,-5.575,1.1016,-0.4125,-0.9189,60
0.745,14,-5.9948,-4.5642,-18.1842,1.0852,-1.8679,0.489,84,0.589,11,-6.7941,5.758,-5.236,-1.636,0.2047,-1.6071,91,6130.213,118524,-4.1398,-12.4363,-4.9718,0.81,-0.4156,-0.649,60
0.797,15,-6.3185,-5.0278,-17.8797,0.9601,-1.8768,0.5424,84,0.641,12,-6.8055,4.0188,-6.5287,-1.7792,0.489,-1.0769,91,6130.265,118525,-4.9714,-13.2298,-4.6725,0.4035,-0.098,-0.1659,60
0.849,16,-6.2736,-5.0607,-16.8893,1.3331,-1.8816,0.6153,84,0.693,13,-5.5529,1.5832,-7.3581,-1.9493,0.4261,-0.4175,91,6130.316,118526,-5.368,-13.596,-4.6532,0.0135,0.2647,0.2857,60
0.901,17,-6.5373,-5.0666,-14.9774,1.199,-1.7759,0.7584,84,0.745,14,-4.1579,0.0209,-8.8192,-1.7027,-0.0707,0.3606,91,6130.368,118527,-4.9375,-13.3123,-4.8815,-0.4185,0.6975,0.7413,60
0.952,18,-6.2655,-3.64,-13.2637,1.2667,-1.3486,0.5662,84,0.796,15,-2.9903,-1.0775,-9.7872,-1.3398,-0.7243,0.9286,91,6130.42,118528,-4.4378,-12.1304,-5.5207,-0.6744,0.9776,0.9362,60
1.004,19,-5.1457,-3.0298,-11.4007,1.2825,-0.6583,0.2006,84,0.848,16,-2.2784,-0.1441,-10.2016,-1.2468,-1.2013,1.29,91,6130.472,118529,-4.1117,-11.6369,-5.8083,-0.8059,1.0886,0.8385,60
1.056,20,-3.8625,-1.3776,-10.0494,1.0829,0.1913,-0.4022,84,0.9,17,-1.6895,0.5838,-7.0929,-1.5344,-1.5494,1.6069,91,6130.524,118530,-4.4438,-10.6838,-6.5025,-1.0503,1.1567,0.8305,60
1.108,21,-3.0837,-1.1556,-9.8126,1.11,0.8217,-0.9687,84,0.952,18,-0.2948,1.3903,-3.4027,-1.102,-1.8035,1.8382,91,6130.575,118531,-4.0101,-10.0509,-6.7634,-1.1331,1.1757,0.7764,60
1.159,22,-2.6807,-0.7197,-9.6206,1.005,1.2822,-1.3821,84,1.004,19,-0.8885,3.3321,-0.9706,-0.6043,-1.7482,1.934,91,6130.627,118532,-3.8163,-9.2473,-7.4556,-1.1735,1.1521,0.714,60
1.211,23,-1.4112,-3.3213,-10.6674,0.4598,1.6182,-1.5365,84,1.056,20,-0.5313,4.6686,0.2559,0.2204,-1.3941,2.0757,91,6130.679,118533,-3.4692,-7.1521,-8.8186,-1.1968,1.1264,0.6493,60
1.263,24,-1.3703,-4.8041,-11.8184,0.0237,1.7635,-1.0526,84,1.108,21,-1.939,6.8533,0.4641,0.4393,-1.0299,1.9525,91,6130.73,118534,-2.2942,-4.5375,-10.3,-0.9001,0.8949,0.2838,60
1.315,25,-0.7597,-6.758,-13.5738,-0.4478,1.8078,-1.0887,84,1.159,22,-2.2226,6.968,0.596,0.2923,-0.6083,1.718,91,6130.782,118535,-1.8827,-1.0182,-11.5569,-0.4983,0.5298,-0.1516,60
1.367,26,-2.0391,-7.8164,-14.5632,-0.7165,1.9288,-0.9211,84,1.211,23,-3.3275,8.184,0.1795,0.6491,-0.036,1.382,91,6130.834,118536,-1.173,2.3285,-11.2429,0.0239,0.3893,-0.4957,60
1.418,27,-1.7531,-7.7443,-15.9911,-1.1372,1.7564,-1.1972,84,1.263,24,-4.651,8.5611,0.1246,0.6541,0.505,0.8824,91,6130.886,118537,-0.0449,3.2234,-10.222,0.4472,0.4055,-0.542,60
1.47,28,-2.6686,-7.8119,-17.6862,-1.5074,1.9643,-0.6531,84,1.315,25,-6.6753,7.2493,-2.2854,1.1491,1.0476,0.6825,91,6130.938,118538,-0.0502,2.3045,-10.1186,0.6182,0.3139,-0.2811,60
1.522,29,-3.8017,-8.5192,-19.0232,-1.7067,1.3504,-0.131,84,1.367,26,-6.4426,8.0934,-3.7388,1.51,1.1647,0.5412,91,6130.989,118539,-0.0501,1.6355,-10.0308,0.7443,0.2447,-0.0875,60
1.574,30,-4.186,-6.529,-19.148,-1.923,0.7689,0.581,84,1.419,27,-6.4946,9.2284,-8.1552,1.7738,0.6991,0.4682,91,6131.041,118540,-0.0306,1.1086,-9.9384,0.839,0.1921,0.0558,60
1.625,31,-5.3387,-5.9469,-20.1354,-2.0809,0.6069,0.8569,84,1.47,28,-5.0531,8.3356,-10.0645,1.3287,0.0598,0.5578,91,6131.093,118541,-0.0352,0.6889,-9.8937,0.9104,0.1527,0.162,60
1.677,32,-5.4745,-2.8624,-20.3548,-1.8417,0.3124,1.0786,84,1.522,29,0.5895,11.4105,-10.4293,1.6415,-0.629,0.4704,91,6131.145,118542,-0.0604,0.3615,-9.8477,0.9658,0.1221,0.2417,60
1.729,33,-6.0427,1.3613,-22.2232,-2.0095,-0.2089,1.0313,84,1.574,30,1.744,13.5413,-11.04,1.8698,-1.1318,-0.3431,91,6131.196,118543,-5.2756,5.5949,-4.6239,1.371,-0.3323,-0.2341,60
1.781,34,-3.5621,3.4595,-23.9167,-2.144,-0.8177,0.0781,84,1.626,31,1.2986,4.6222,-5.7602,1.6985,-0.1469,0.4132,91,6131.248,118544,-3.7978,4.0321,-4.78,1.6745,-0.9056,-0.5418,60
1.833,35,-0.6227,3.3756,-25.0917,-2.2422,-0.9211,-0.6181,84,1.678,32,2.2206,1.3252,-8.938,0.5596,-0.7554,-0.0268,91,6131.3,118545,-2.5069,2.8574,-5.0846,1.896,-1.324,-0.7661,60
1.884,36,0.193,5.5196,-24.7266,-1.1746,-0.4841,-1.1263,84,1.729,33,-3.8319,5.0639,-11.3491,1.0801,-0.3552,0.6453,91,6131.352,118546,-1.5632,1.9994,-5.3065,2.0577,-1.6294,-0.9287,60
1.936,37,5.1971,-1.1693,-15.4554,-0.4473,-0.9846,-1.4971,84,1.781,34,-1.1879,5.2982,-9.1967,0.1084,-0.9319,0.2912,91,6131.403,118547,-0.8763,1.3915,-5.4668,2.1756,-1.8523,-1.0457,60
1.988,38,2.6318,-1.1493,-15.2879,0.3479,-0.0362,-0.7916,84,1.833,35,-2.3618,6.5728,-10.2588,0.1794,-0.6772,-0.3874,91,6131.455,118548,-0.3376,0.9484,-5.5813,2.2618,-2.015,-1.1293,60
2.04,39,-3.6115,4.5469,-13.922,-0.4235,0.1668,-0.1512,84,1.885,36,-5.9282,5.9874,-10.5,0.0247,0.0408,-0.5155,91,6131.507,118549,0.073,0.6469,-5.6617,2.3246,-2.1337,-1.1893,60
2.091,40,-1.334,2.6095,-18.1574,-0.8399,-0.1465,-0.7855,84,1.937,37,-4.5806,6.4259,-11.2014,0.3768,-0.1343,-0.5877,91,6131.559,118550,0.3728,0.4506,-5.7224,2.3705,-2.2204,-1.2323,60
2.143,41,-3.7288,4.188,-18.4174,-0.4117,0.046,-0.3337,84,1.988,38,-5.1124,6.0567,-10.6306,0.4792,-0.7459,-0.1139,91,6131.61,118551,0.5929,0.3086,-5.7974,2.404,-2.2836,-1.2621,60
2.195,42,-4.1667,2.9896,-17.6177,-0.7749,-0.4354,-0.8092,84,2.04,39,-3.9402,8.8536,-9.3977,0.9714,-0.929,0.3607,91,6131.662,118552,0.7576,0.229,-5.8679,2.4284,-2.3298,-1.283,60
2.247,43,-4.1202,4.2015,-17.8738,0.1088,-0.7967,-0.6384,84,2.092,40,-5.1489,10.2204,-11.1704,0.3291,-0.4996,0.6769,91,6131.714,118553,1.2869,1.7468,-9.0146,1.7049,-1.9167,-0.4524,60
2.298,44,-3.6843,1.7899,-16.8829,0.7521,0.0206,-0.0029,84,2.144,41,-5.0044,8.6568,-10.1703,-0.3893,-0.9311,0.984,91,6131.765,118554,0.3287,2.6996,-9.5306,1.7422,-1.518,-0.311,60
2.35,45,-4.3729,2.3535,-18.8174,1.2233,0.6905,0.5815,84,2.196,42,-4.3921,6.6613,-9.3679,-0.9642,-1.0505,0.6864,91,6131.817,118555,0.3704,2.1855,-9.8062,1.4185,-0.6168,-0.1727,60
2.402,46,-3.5898,4.0813,-17.3456,1.5672,0.6827,1.0848,84,2.247,43,-6.6877,8.0225,-10.956,-1.0833,-0.6528,0.539,91,6131.869,118556,3.7897,1.1728,-10.8259,1.2189,0.2385,-0.1785,60
2.454,47,-4.0796,1.9719,-13.0558,1.751,1.1621,0.7879,84,2.299,44,-7.3511,7.8746,-7.5068,-0.3018,-0.6159,0.3279,91,6131.921,118557,4.6473,0.7617,-11.2157,0.5406,0.6656,-0.5002,60
2.506,48,-4.6582,4.2065,-12.4961,1.7913,1.4371,0.0948,84,2.351,45,-9.0267,9.4673,-5.5444,-0.468,-0.615,-0.3917,91,6131.972,118558,3.4877,1.0696,-9.386,-0.2833,1.1679,-0.5262,60
2.557,49,-5.2029,1.282,-13.3373,1.41,1.4597,0.0649,84,2.403,46,-9.5211,11.662,-2.7418,-0.7241,-0.7216,-0.9723,91,6132.024,118559,4.5194,2.0654,-8.9073,-0.8846,1.5407,-0.7346,60
2.609,50,-7.7063,1.8225,-16.6849,0.9343,1.3252,0.3543,84,2.455,47,-8.7503,12.8971,-2.7472,-1.2085,-0.1139,-1.396,91,6132.076,118560,4.5886,4.2083,-7.2633,-0.0026,0.5003,-0.8427,60
2.661,51,-9.3093,-0.4804,-19.7535,0.4727,0.4005,-0.2182,84,2.507,48,-7.6408,12.2349,-3.1832,-0.8847,0.3418,-1.6437,91,6132.128,118561,4.9567,3.8306,-7.5544,0.5121,-0.298,-0.9235,60
2.713,52,-10.7857,-0.8264,-22.4135,1.0194,-0.377,-0.634,84,2.558,49,-6.7364,9.9184,-3.7353,-0.8339,0.8072,-1.4953,91,6132.18,118562,4.7258,4.908,-7.1701,1.0386,-0.8805,-0.6073,60
2.765,53,-9.2436,-1.7387,-23.4777,1.4183,-0.9445,-0.3698,84,2.61,50,-6.5812,7.5416,-5.6074,-1.2886,1.2127,-0.9611,91,6132.231,118563,4.344,5.1458,-8.207,1.4319,-1.2865,-0.1407,60
2.816,54,-7.4457,-2.1713,-22.0526,1.6531,-1.3587,-0.3176,84,2.662,51,-4.455,5.7022,-6.0029,-1.2821,0.961,-0.4306,91,6132.283,118564,4.0742,4.1067,-7.897,1.3718,-1.6021,0.1981,60
2.868,55,-6.81,-1.8562,-20.4858,1.8809,-1.6275,-0.3916,84,2.714,52,-2.6843,4.5177,-7.516,-1.2458,0.8569,-0.0099,91,6132.335,118565,3.8889,5.5789,-9.4462,1.2423,-1.7122,0.2088,60
2.92,56,-5.5718,-1.1901,-18.9197,1.7247,-1.4772,-0.5014,84,2.766,53,-2.1779,2.8847,-8.5039,-1.0314,0.2222,0.3833,91,6132.387,118566,6.9533,6.7689,-10.7059,1.3011,-1.3905,0.3121,60
2.972,57,-4.5324,-0.8252,-16.8501,1.8673,-1.4568,-0.6481,84,2.818,54,-2.3077,1.5954,-9.0096,-1.3255,-0.3606,0.9335,91,6132.438,118567,9.8307,7.5448,-12.5128,0.9982,-1.2238,0.2739,60
3.023,58,-2.369,0.1109,-14.9573,1.5083,-0.9195,-0.4453,84,2.869,55,-2.1395,2.9219,-8.5503,-1.6247,-0.9358,1.345,91,6132.49,118568,10.0645,7.9094,-15.3734,0.4617,-1.1394,0.3533,60
3.075,59,-2.593,0.5562,-13.0473,1.1705,-0.3955,-0.9673,84,2.921,56,-0.1624,2.638,-5.0322,-1.6129,-1.3557,1.647,91,6132.542,118569,9.514,6.749,-17.187,-0.0297,-0.8811,0.3001,60
3.127,60,-1.5696,0.5311,-12.5919,0.389,0.1019,-1.3811,84,2.973,57,1.7256,6.5577,-2.1927,-0.5054,-1.6073,1.8674,91,6132.594,118570,8.0022,5.4119,-16.7625,-0.3898,-0.47,0.3245,60
3.179,61,-1.8952,-0.4161,-12.2913,0.0921,0.7407,-1.6831,84,3.025,58,1.0608,7.6014,-0.1684,-0.0953,-1.5173,2.0283,91,6132.645,118571,7.2141,4.8558,-15.8712,-0.3967,-0.1422,0.3962,60
3.231,62,0.7343,-3.8535,-13.2522,-0.2288,1.223,-1.7888,84,3.077,59,0.8756,9.4375,0.4196,0.0459,-1.1301,2.1457,91,6132.697,118572,6.1241,3.913,-14.3068,-0.1091,0.0015,0.6499,60
3.282,63,0.6953,-5.4996,-15.3182,-0.8443,1.575,-1.3762,84,3.128,60,-0.3254,10.6714,0.175,0.0916,-0.6823,1.9048,91,6132.749,118573,4.2465,3.1267,-12.7473,0.2351,-0.1634,0.7879,60
3.334,64,1.1223,-7.459,-17.9977,-1.2935,1.8291,-1.6796,84,3.18,61,-0.5975,9.947,-0.6347,-0.2164,-0.21,1.3265,91,6132.801,118574,2.009,1.7778,-11.3332,0.662,-0.4736,0.7463,60
3.386,65,0.904,-9.9506,-19.8592,-0.5484,2.0173,-0.8206,84,3.232,62,-0.5789,9.6477,-1.7999,0.2793,0.4307,0.539,91,6132.853,118575,1.1274,1.2782,-9.8527,1.0417,-0.8491,0.7512,60
3.438,66,-0.6371,-8.6539,-20.4323,-1.0283,1.8357,-0.3973,84,3.284,63,-2.3219,9.4852,-2.6747,0.166,0.9934,-0.2598,91,6132.904,118576,0.8289,1.0445,-9.0977,1.3982,-1.2302,0.8837,60
3.49,67,-1.6718,-9.384,-20.3452,-0.8076,1.342,0.0967,84,3.336,64,-4.2441,8.5137,-4.0506,0.7929,1.4041,-0.6868,91,6132.956,118577,0.5423,0.5413,-8.7489,1.5552,-1.561,1.0736,60
3.541,68,-3.1484,-7.252,-20.1998,-0.7546,0.5522,0.7215,84,3.387,65,-4.3883,8.4518,-5.8583,1.2504,0.69,-0.386,91,6133.008,118578,0.4093,0.523,-8.8236,1.6221,-1.8024,1.1825,60
3.593,69,-3.5954,-6.7317,-21.4468,-1.2281,-0.2663,0.9572,84,3.439,66,-3.2836,8.8723,-7.9576,1.2232,0.4247,0.1222,91,6133.059,118579,0.3075,0.4896,-8.9005,1.6659,-1.9785,1.263,60
3.645,70,-4.7975,-3.9158,-21.1374,-0.772,-0.5868,1.0725,84,3.491,67,2.0992,11.8023,-11.5302,1.5645,-0.3627,-0.4797,91,6133.111,118580,0.1986,0.4352,-8.974,1.6928,-2.1071,1.3241,60
3.697,71,-4.6737,-1.9914,-23.0612,-1.2408,-1.0976,0.8213,84,3.543,68,-1.3038,7.527,-11.4483,1.0742,-0.9361,-0.6888,91,6133.163,118581,0.0047,0.2699,-9.3895,1.7087,-2.2009,1.3706,60
3.748,72,-2.718,0.2369,-20.9066,-1.1469,-0.969,0.3591,84,3.595,69,3.9675,0.2328,-16.2953,1.0349,-0.396,0.1627,91,6133.215,118582,-0.2299,0.709,-8.9465,1.5641,-2.2694,1.6277,60
3.8,73,-0.9395,0.3886,-23.2551,-1.2207,-1.3765,-0.4131,84,3.646,70,5.1028,1.0926,-16.4576,0.39,-0.9496,-0.2548,91,6133.266,118583,-0.1617,0.9689,-7.9028,1.4373,-2.3194,1.8456,60
3.852,74,-1.8289,5.6652,-22.3703,-0.231,-0.3222,-0.9766,84,3.698,71,0.5921,3.954,-16.0381,0.9563,-0.2974,-0.3099,91,6133.318,118584,-0.1062,1.151,-7.1257,1.3187,-2.3559,2.0123,60
3.904,75,0.3134,-1.063,-24.3233,-0.5413,-0.5972,-0.0361,84,3.75,72,1.562,8.2127,-14.5582,1.3697,-0.1312,-0.875,91,6133.37,118585,-0.0755,1.2998,-6.559,1.2063,-2.3825,2.1365,60
3.956,76,-5.3036,2.7548,-24.58,0.2793,0.1077,0.6503,84,3.802,73,-0.7684,8.7388,-15.2734,0.3197,0.1271,-1.2948,91,6133.422,118586,-0.0374,1.4074,-6.1301,1.1027,-2.402,2.2285,60
4.007,77,-3.8716,3.8895,-21.6318,0.71,-0.5907,0.0829,84,3.854,74,-1.2951,8.8647,-14.4571,-0.398,-0.2352,-1.4508,91,6133.473,118587,-0.0043,1.493,-5.8146,1.0004,-2.4161,2.2981,60
4.059,78,-4.5383,-0.9672,-23.0737,-0.1592,-0.5015,-0.2015,84,3.906,75,-1.6823,8.1319,-13.535,-0.7636,-0.2832,-1.2274,91,6133.525,118588,0.0439,1.566,-5.5643,0.9037,-2.4265,2.3494,60
4.111,79,-3.6412,-0.6718,-21.1409,0.5582,-1.0353,-0.1286,84,3.957,76,-2.628,7.3249,-12.1217,-1.0083,-0.4117,-0.7493,91,6133.577,118589,0.1035,1.623,-5.3708,0.806,-2.434,2.389,60
4.163,80,-3.9533,-0.3842,-19.5891,-0.0772,-0.5951,-0.1951,84,4.009,77,-3.8057,8.0624,-11.4631,-1.1089,-0.5072,-0.4623,91,6133.629,118590,-0.462,-3.0146,-7.6883,0.7093,-2.4396,2.4181,60
4.215,81,-3.4838,-2.8774,-18.956,-0.1792,-0.4453,0.3205,84,4.061,78,-4.888,7.7547,-10.7537,-1.4893,-0.452,-0.9132,91,6133.68,118591,5.0211,-0.6013,-6.8326,0.7985,-2.4436,1.7,60
4.266,82,-3.184,-0.7767,-17.6254,0.0834,0.0805,0.4352,84,4.113,79,-6.9058,6.7699,-10.4145,-0.8275,-0.3713,-0.9722,91,6133.732,118592,5.3364,1.8386,-6.4744,1.0261,-2.2874,0.9843,60
4.318,83,-5.0729,-2.6242,-18.3463,-0.4928,0.7412,0.0385,84,4.165,80,-8.671,7.2656,-8.0171,-1.0913,-0.168,-0.9257,91,6133.784,118593,5.5125,2.081,-4.2444,1.1119,-0.9811,0.1813,60
4.37,84,-7.3677,-2.2732,-17.0794,0.3127,0.4065,0.3304,84,4.217,81,-8.7093,8.0623,-6.7585,-1.3265,0.023,-1.1782,91,6133.836,118594,8.341,4.3426,-3.3895,0.9428,-0.0434,-0.1334,60
4.422,85,-8.7774,-0.5976,-17.3966,-0.0599,-0.039,0.5385,84,4.268,82,-7.811,7.1623,-6.699,-1.6481,0.2552,-1.4717,91,6133.888,118595,5.9909,4.6702,-3.6429,0.4782,0.5595,-0.2655,60
4.474,86,-8.961,-2.3931,-18.8168,-0.2778,-0.2408,0.5887,84,4.32,83,-5.4246,5.3454,-8.1162,-1.3349,0.4581,-1.4628,91,6133.939,118596,5.6498,5.1092,-4.3961,-0.0975,0.6478,0.0044,60
4.525,87,-8.6704,-1.7549,-18.9003,0.0532,-0.5016,0.0697,84,4.372,84,-3.9888,3.2619,-8.9623,-0.9232,0.4405,-0.9081,91,6133.991,118597,5.7029,4.6893,-4.8225,-0.6132,0.2983,0.3422,60
4.577,88,-8.0098,-1.8612,-17.8457,0.495,-0.7667,-0.2133,84,4.424,85,-4.5165,3.2927,-8.753,-0.1207,0.0764,-0.0449,91,6134.043,118598,4.7443,4.0347,-4.3777,-0.875,-0.0678,0.466,60
4.629,89,-6.7123,-0.6966,-15.9155,0.5852,-1.2258,-0.3292,84,4.476,86,-6.3001,5.0434,-7.9263,0.5836,-0.3767,0.6326,91,6134.095,118599,4.5642,3.5919,-3.1901,-0.8927,-0.3464,0.5469,60
4.681,90,-4.6294,-0.8651,-14.8682,0.4577,-1.1369,-0.1791,84,4.527,87,-7.9539,8.0588,-7.1834,0.9782,-0.6571,1.1109,91,6134.146,118600,4.5929,4.4297,-2.3089,-0.5818,-0.7282,0.7521,60
4.733,91,-3.3276,-0.2294,-14.6747,0.427,-0.4734,0.1216,84,4.579,88,-7.4475,10.3407,-5.9239,0.898,-1.1518,1.2072,91,6134.198,118601,3.2863,3.662,0.6631,-0.257,-0.8596,0.9249,60
4.784,92,-3.737,-0.4249,-14.7265,-0.0131,0.3369,0.0388,84,4.631,89,-6.8216,10.7302,-6.613,0.5396,-1.5133,0.983,91,6134.25,118602,4.121,2.6067,1.4753,-0.084,-0.5008,0.7349,60
4.836,93,-5.593,-2.0266,-17.1608,-0.5923,0.9283,-0.0186,84,4.683,90,-5.9129,10.683,-7.0841,0.4062,-1.7771,0.4459,91,6134.302,118603,5.1418,1.6934,1.0117,-0.03,-0.1304,0.627,60
4.888,94,-5.1072,-2.1445,-20.5212,-0.8462,1.2216,0.1012,84,4.735,91,-5.0791,9.8614,-7.0873,0.2628,-1.9697,-0.1221,91,6134.353,118604,4.655,1.4859,-0.705,-0.0892,0.0875,0.6375,60
4.94,95,-4.176,-3.9,-21.5048,-0.6682,1.2445,0.3335,84,4.787,92,-4.189,8.9107,-7.3857,0.1018,-2.1102,-0.521,91,6134.405,118605,3.2545,1.8378,-3.473,-0.001,0.2859,0.521,60
4.991,96,-3.819,-2.2211,-21.2032,0.1636,1.0979,0.92,84,4.838,93,-3.5053,8.7898,-7.6587,0.1927,-2.2128,-0.8263,91,6134.457,118606,2.7682,1.813,-5.4614,0.3227,0.3469,0.1361,60
5.043,97,-2.9866,-2.594,-21.0505,-0.1777,0.8036,1.3456,84,4.89,94,-2.8697,8.3035,-7.7483,0.2851,-2.2391,-1.216,91,6134.509,118607,3.2662,0.9121,-6.2133,0.5075,-0.0495,-0.1911,60
5.095,98,-2.9684,-1.7352,-20.4563,0.5058,0.7103,1.6587,84,4.942,95,-2.9441,7.9333,-7.0707,0.4754,-2.1902,-1.5266,91,6134.56,118608,4.5903,0.9384,-5.0797,0.3388,-0.6992,0.0067,60
5.147,99,-2.93,-1.0286,-19.6645,0.4948,0.3876,1.8872,84,4.994,96,-2.6672,8.8793,-5.7184,0.7455,-2.2275,-1.6615,91,6134.612,118609,6.8147,1.7516,-3.257,-0.1193,-1.1734,0.5883,60
5.199,100,-2.4868,-1.7088,-19.0478,0.5834,0.2068,2.054,84,5.046,97,-2.6405,8.948,-5.4232,0.7955,-2.2984,-1.6379,91,6134.664,118610,10.2798,1.6958,-2.8353,-0.7105,-1.5107,0.831,60
5.251,101,-2.3166,-0.1922,-19.2666,1.0422,0.1181,2.1758,84,5.097,98,-2.2948,8.5786,-5.3482,0.7797,-2.3501,-1.5236,91,6134.716,118611,10.3656,2.3761,-3.7469,-1.162,-1.0188,0.4612,60
5.302,102,-2.293,0.5855,-19.7134,0.978,0.4318,2.2646,84,5.149,99,-1.7391,8.8427,-5.1735,0.6307,-2.3275,-1.4266,91,6134.767,118612,10.5375,2.0341,-4.5911,-1.4619,-0.3269,0.0315,60
5.354,103,-3.904,1.0729,-20.1105,1.1021,0.5807,2.3295,84,5.201,100,-1.6416,8.9381,-4.9866,0.5601,-1.911,-1.3025,91,6134.819,118613,10.0789,0.9303,-4.9375,-1.7443,0.107,-0.3812,60
5.406,104,-3.6941,1.5143,-19.2306,1.1517,0.5433,2.3768,84,5.253,101,-1.9439,8.75,-5.0128,0.4451,-1.3445,-1.0555,91,6134.871,118614,9.4533,0.835,-5.2539,-1.9425,0.233,-0.8641,60
5.458,105,-4.472,1.6198,-19.0053,0.9285,0.5373,2.3724,84,5.305,102,-2.5495,8.3977,-5.4082,0.4131,-0.8911,-0.7382,91,6134.923,118615,9.2142,0.7377,-5.7481,-2.0338,0.1776,-1.2719,60
5.51,106,-4.9358,1.8401,-19.0226,0.6439,0.534,2.0781,84,5.357,103,-3.0519,8.4188,-5.4561,0.4746,-0.673,-0.5218,91,6134.974,118616,8.4865,0.3963,-5.9429,-2.1072,0.1132,-1.4779,60
5.561,107,-5.3487,1.0215,-19.3323,0.3035,0.5443,1.5449,84,5.408,104,-3.5508,8.5118,-5.3866,0.4651,-0.5094,-0.4302,91,6135.026,118617,8.2673,-0.4436,-5.7268,-2.1897,0.2437,-1.752,60
5.613,108,-5.3504,-0.2851,-19.6864,0.2069,0.4015,1.1783,84,5.46,105,-3.8957,8.6343,-5.3304,0.3883,-0.333,-0.4271,91,6135.078,118618,9.0048,-1.089,-4.8643,-2.276,0.134,-1.9547,60
5.665,109,-5.1263,-0.5181,-19.6319,0.4112,0.2559,0.8917,84,5.512,106,-4.186,8.5726,-5.3621,0.2692,-0.2214,-0.4223,91,6135.13,118619,8.6528,-1.4137,-4.3875,-2.339,-0.1988,-1.9778,60
5.717,110,-5.1535,-0.644,-19.1355,0.4823,0.1616,0.7304,84,5.564,107,-4.5529,8.4506,-5.6894,0.1811,-0.2577,-0.4198,91,6135.181,118620,7.8325,-1.442,-4.239,-2.3344,-0.2697,-1.9516,60
5.768,111,-5.1436,-0.5543,-18.8691,0.4586,0.0101,0.5606,84,5.615,108,-4.7315,8.3307,-5.934,0.1609,-0.3995,-0.4278,91,6135.233,118621,7.8268,-1.6485,-3.8432,-2.2057,-0.2381,-1.7412,60
5.82,112,-4.7151,-0.7351,-18.882,0.3244,-0.0998,0.3952,84,5.667,109,-5.0415,8.1171,-6.0917,0.185,-0.6062,-0.4574,91,6135.285,118622,7.7574,-1.5993,-3.4054,-1.9644,-0.2112,-1.2966,60
5.872,113,-4.3656,-1.3667,-18.9029,0.2691,-0.1523,0.4368,84,5.719,110,-5.2687,8.0659,-6.2798,0.1461,-0.8323,-0.5237,91,6135.337,118623,7.9209,-0.7502,-3.2592,-1.638,-0.2134,-0.91,60
5.924,114,-4.1598,-1.7387,-18.7934,0.2814,-0.117,0.4667,84,5.771,111,-5.4141,8.364,-6.2729,0.2437,-1.0537,-0.5595,91,6135.388,118624,8.2393,0.0208,-3.4014,-1.1585,-0.3133,-0.7379,60
5.976,115,-4.0334,-1.9463,-18.4875,0.3606,-0.1164,0.573,84,5.823,112,-5.5167,8.5589,-6.2331,0.222,-1.2831,-0.5708,91,6135.44,118625,8.2281,0.3868,-3.474,-0.7043,-0.3955,-0.6818,60
6.027,116,-3.9439,-2.2388,-18.3307,0.4137,0.0062,0.7131,84,5.875,113,-5.417,8.3568,-6.2346,0.1389,-1.4693,-0.5704,91,6135.492,118626,7.9188,0.577,-3.4289,-0.382,-0.3201,-0.6088,60
6.079,117,-3.7855,-2.0915,-18.2807,0.5558,0.0616,0.9049,84,5.926,114,-5.0657,8.3015,-6.1256,0.0985,-1.6136,-0.5695,91,6135.544,118627,7.8738,0.5246,-3.5085,-0.1907,-0.1671,-0.4677,60
6.131,118,-3.9693,-2.3708,-18.6163,0.4588,0.3004,1.1058,84,5.978,115,-4.5042,9.1627,-5.4265,0.1645,-1.5511,-0.5094,91,6135.595,118628,8.0257,0.8799,-3.8704,-0.1601,-0.0381,-0.3642,60
6.183,119,-4.0663,-2.3923,-18.6396,0.6031,0.3629,1.3244,84,6.03,116,-3.3617,9.2132,-4.6539,0.0532,-1.5453,-0.624,91,6135.647,118629,8.1225,1.2997,-4.2644,-0.2131,0.0139,-0.3634,60
6.235,120,-4.3052,-1.9964,-18.5219,0.624,0.4254,1.4473,84,6.082,117,-2.5894,8.5616,-4.4592,-0.0485,-1.4653,-0.661,91,6135.699,118630,8.1056,1.6326,-4.522,-0.3173,0.0086,-0.4199,60
6.286,121,-4.4015,-1.5324,-19.0837,0.5529,0.4212,1.5121,84,6.134,118,-2.1174,8.1006,-4.1977,-0.0882,-1.3013,-0.6086,91,6135.751,118631,7.8131,1.9409,-4.7836,-0.495,-0.0138,-0.5117,60
6.338,122,-4.2135,-0.8704,-19.9194,0.3995,0.4759,1.5182,84,6.185,119,-2.1242,7.4391,-4.3201,-0.1568,-1.1734,-0.6174,91,6135.802,118632,7.7844,2.1001,-4.941,-0.7103,-0.0399,-0.6123,60
6.39,123,-4.2812,-0.5185,-19.9244,0.3569,0.4758,1.372,84,6.237,120,-2.5704,6.6161,-4.4898,-0.1561,-1.0223,-0.6068,91,6135.854,118633,7.9076,2.2356,-4.9251,-0.967,-0.1063,-0.6961,60
6.442,124,-4.2133,-0.1764,-19.5341,0.3763,0.333,1.3077,84,6.289,121,-3.5619,6.3767,-4.2491,0.078,-1.0016,-0.5536,91,6135.906,118634,8.2873,2.2837,-4.769,-1.2427,-0.2502,-0.7098,60
6.493,125,-4.3984,-0.0369,-18.7716,0.3397,0.2736,1.2568,84,6.341,122,-3.8435,6.681,-4.2487,0.3583,-1.15,-0.5656,91,6135.958,118635,8.1708,2.1366,-4.7264,-1.4635,-0.3908,-0.714,60
6.545,126,-4.4097,-0.1482,-18.1628,0.2503,0.1711,1.0977,84,6.393,123,-3.9626,7.7607,-4.4151,0.5388,-1.3765,-0.6891,91,6136.009,118636,7.9598,1.7741,-4.5052,-1.5713,-0.3621,-0.7637,60
6.597,127,-4.3997,-0.3451,-18.3484,0.2212,0.2123,1.042,84,6.444,124,-3.8963,8.4223,-5.0128,0.4124,-1.6773,-0.9702,91,6136.061,118637,8.6573,1.0672,-4.2671,-1.6412,-0.2843,-0.6971,60
6.649,128,-3.883,-0.7877,-18.8848,0.2397,0.3178,1.1252,84,6.496,125,-3.6821,10.1606,-5.6801,0.388,-1.8969,-1.2321,91,6136.113,118638,9.4625,0.0758,-4.2214,-1.7113,-0.2918,-0.5526,60
6.701,129,-2.9741,-0.6522,-19.2726,0.3946,0.4802,1.3916,84,6.548,126,-2.4743,11.6739,-6.2635,0.2761,-2.0571,-1.2202,91,6136.165,118639,8.9074,-0.3649,-4.3332,-1.6714,-0.1852,-0.5549,60
6.753,130,-2.5471,-1.0447,-19.2723,0.5272,0.4929,1.6923,84,6.6,127,-0.91,9.7114,-6.7312,-0.1056,-2.1428,-1.243,91,6136.216,118640,8.596,-0.6748,-4.4812,-1.5352,-0.0179,-0.6253,60
6.804,131,-1.7941,-0.4766,-20.5218,0.56,0.3759,1.9117,84,6.652,128,-0.1551,7.9617,-7.0844,0.1428,-2.123,-1.1898,91,6136.268,118641,7.7687,-0.8001,-4.5856,-1.3498,0.0764,-0.6023,60
6.856,132,-0.8763,-1.2878,-21.4488,0.2796,0.5191,2.0719,84,6.704,129,0.1171,6.9937,-7.4959,0.1656,-1.737,-0.958,91,6136.32,118642,7.1757,-0.5966,-4.5576,-1.1771,0.0941,-0.532,60
6.908,133,-1.2423,-0.7648,-20.6116,0.7193,0.7891,2.1888,84,6.756,130,0.1481,7.7118,-6.9258,0.5285,-1.533,-0.7314,91,6136.372,118643,7.4868,-0.3382,-4.4533,-1.1377,-0.0762,-0.5298,60
6.96,134,-1.6565,0.5225,-19.4118,0.6277,0.938,2.2741,84,6.807,131,0.9921,10.173,-5.4491,0.5105,-1.5361,-0.6059,91,6136.423,118644,8.0136,-0.2376,-4.8856,-1.3167,-0.4446,-0.5992,60
7.012,135,-2.6482,0.8163,-17.8296,0.5304,0.8926,2.0381,84,6.859,132,2.2607,11.7666,-5.0369,0.2991,-1.4768,-0.7039,91,6136.475,118645,8.6968,-0.3653,-5.3627,-1.6196,-0.6569,-0.6868,60
7.063,136,-2.585,0.8305,-16.94,0.2192,0.5422,1.6905,84,6.911,133,0.5182,12.3873,-4.8564,0.1233,-1.1029,-1.1742,91,6136.527,118646,8.6154,-0.0978,-5.9942,-1.86,-0.487,-0.729,60
7.115,137,-1.2426,0.1817,-20.3601,-0.1387,0.2204,1.55,84,6.963,134,-0.6641,11.8947,-4.4319,-0.2776,-0.5557,-1.5434,91,6136.579,118647,10.3395,-0.5525,-6.7253,-2.0354,-0.1891,-0.8886,60
7.167,138,-1.1192,-0.082,-21.7742,0.1466,0.7169,1.3606,84,7.015,135,-0.8464,10.6993,-3.9442,-0.8207,-0.1893,-1.8128,91,6136.63,118648,11.2718,-0.3602,-7.4821,-2.1634,-0.2532,-0.8919,60
7.219,139,-2.2906,-0.2508,-22.555,0.3626,0.4244,1.3695,84,7.066,136,-2.5538,9.6564,-3.7208,-1.2596,0.2272,-2.0094,91,6136.682,118649,9.8184,-0.6033,-8.0047,-2.2568,-0.1808,-0.8316,60
7.271,140,-2.8521,-1.2437,-22.7525,0.5939,-0.3547,1.6759,84,7.118,137,-3.5203,8.9748,-4.3923,-1.5993,0.4951,-2.1529,91,6136.734,118650,8.4205,-1.5708,-7.8358,-2.279,-0.0673,-0.921,60
7.322,141,-2.745,-1.5729,-21.8553,1.0537,-0.9208,1.7961,84,7.17,138,-3.1593,6.4843,-6.5109,-1.3593,0.0362,-1.8109,91,6136.786,118651,7.147,-1.7036,-7.7438,-2.1481,-0.145,-0.893,60
7.374,142,-2.5764,-1.842,-21.0529,1.3165,-1.3374,1.7133,84,7.222,139,-3.2287,4.5248,-7.0288,-0.9297,-0.4859,-1.0921,91,6136.838,118652,7.2401,-1.1712,-8.1669,-1.8499,-0.2165,-0.5369,60
7.426,143,-2.5969,-2.3139,-19.4019,1.635,-1.4141,1.6195,84,7.274,140,-3.0468,2.8079,-6.4963,-0.5129,-0.5272,-0.3388,91,6136.889,118653,10.6425,-3.0741,-8.9552,-1.7447,-0.7662,-0.1514,60
7.478,144,-2.2361,-2.5273,-17.2215,1.8389,-0.9147,1.3637,84,7.325,141,-3.662,3.15,-6.1432,0.0171,-0.3716,0.4181,91,6136.941,118654,10.9985,-3.133,-9.0653,-1.7976,-0.7829,-0.013,60
7.53,145,-2.034,-2.9729,-16.0096,1.5533,-0.0449,1.026,84,7.377,142,-4.4552,4.2359,-5.7706,-0.1919,-0.2647,0.9705,91,6136.993,118655,12.5563,-2.6608,-8.4249,-1.7029,-0.2435,0.0219,60
7.581,146,-2.3008,-3.262,-15.8504,1.5786,0.6496,0.8679,84,7.429,143,-5.0577,3.9561,-5.9105,-0.4003,-0.5753,1.3737,91,6137.045,118656,12.5892,-2.9731,-8.3846,-1.6168,0.1387,0.0617,60
7.633,147,-3.1611,-3.8823,-15.8625,1.8132,1.1067,1.0531,84,7.481,144,-4.6453,4.7738,-4.9068,-0.1134,-1.0702,1.668,91,6137.096,118657,10.9159,-2.8216,-8.562,-1.5426,0.7366,-0.0437,60
7.685,148,-3.938,-3.9531,-15.5976,1.9975,1.239,1.2787,84,7.533,145,-4.4621,5.0617,-3.8904,0.0222,-1.2536,1.8827,91,6137.148,118658,10.2245,-2.5605,-8.8928,-1.4929,1.2093,-0.3556,60
7.736,149,-4.4717,-3.2519,-15.4046,1.7688,1.425,1.1035,84,7.584,146,-3.5591,4.9395,-2.7763,0.3053,-1.2077,2.0076,91,6137.2,118659,8.9133,-1.4288,-9.4292,-1.3798,1.1939,-0.6055,60
7.788,150,-4.6989,-2.8211,-15.7539,0.8389,1.7205,0.4435,84,7.636,147,-2.9132,6.0659,-3.2199,0.8945,-1.2578,1.9511,91,6137.252,118660,7.2512,-0.5357,-9.2718,-1.1137,0.6899,-0.6323,60
7.84,151,-4.4991,-3.7987,-17.3275,-0.0326,1.4866,-0.1431,84,7.688,148,-1.4091,7.6971,-3.1393,0.5233,-1.3043,1.9158,91,6137.303,118661,4.8684,-0.2928,-9.5326,-0.9424,-0.1121,-0.6813,60
7.892,152,-4.4355,-3.2247,-17.3621,-0.6523,1.2225,-0.4908,84,7.74,149,2.3735,8.1873,-3.9322,1.0393,-1.0493,1.1558,91,6137.355,118662,3.6427,-0.2623,-9.4665,-0.7976,-0.6966,-0.769,60
7.944,153,-3.6751,-3.5063,-18.3314,-0.8698,0.91,-0.6331,84,7.792,150,4.0761,4.6825,-6.0767,0.2721,-1.4385,0.9589,91,6137.407,118663,2.7558,-0.2401,-9.4402,-0.6885,-1.1214,-0.8321,60
7.995,154,-2.5618,-3.9066,-17.9713,-1.2554,0.7573,-0.6875,84,7.844,151,2.0247,8.7443,-8.8519,-0.1159,-0.6463,0.4722,91,6137.459,118664,2.1117,-0.2135,-9.4177,-0.6062,-1.4307,-0.8783,60
8.047,155,-1.6142,-2.6219,-20.9156,-1.1246,0.4653,-0.1803,84,7.896,152,5.6754,11.7089,-4.9596,-0.1275,-0.116,-0.2555,91,6137.51,118665,1.637,-0.1806,-9.4111,-0.5426,-1.6541,-0.9111,60
8.099,156,1.6511,0.3778,-19.5839,-0.3196,-0.1115,-0.8067,84,7.947,153,-0.1279,6.9687,-8.4528,-0.3582,-0.2546,-0.6847,91,6137.562,118666,1.31,-0.1443,-9.4135,-0.4935,-1.8167,-0.9354,60
8.151,157,1.1073,2.2909,-22.2897,-0.9106,0.5151,-1.1341,84,7.999,154,1.9342,8.4563,-8.0932,-0.0924,-0.4035,-0.8033,91,6137.614,118667,1.1559,-0.1065,-9.4327,-0.4548,-1.9334,-0.9535,60
8.203,158,4.8711,-3.5257,-24.2645,-0.3456,0.3033,-0.3116,84,8.051,155,1.3476,7.9993,-8.2006,-0.2985,-0.2926,-0.4297,91,6137.665,118668,1.7375,-0.1636,-10.1682,-0.2334,-0.9142,-0.7933,60
8.254,159,2.766,0.9582,-18.3898,0.233,0.1429,-0.6493,84,8.103,156,1.8926,7.4185,-7.977,0.0714,-0.6223,-0.0203,91,6137.717,118669,1.3325,-0.0707,-9.9787,-0.0771,-0.1725,-0.6773,60
8.306,160,1.0923,0.1099,-19.4882,-0.0058,-0.513,-0.8459,84,8.155,157,1.6363,7.4627,-8.3175,-0.2175,-0.4565,0.4324,91,6137.769,118670,1.059,-0.0088,-9.8584,0.0359,0.3696,-0.5922,60
8.358,161,2.9192,-1.7109,-19.4442,0.6155,-0.2171,-0.1973,84,8.206,158,1.7577,10.2298,-8.4438,-0.6373,-0.285,0.6602,91,6137.821,118671,0.8522,0.025,-9.764,0.1173,0.7661,-0.5291,60
8.41,162,3.1682,-0.6001,-19.4302,0.8295,0.0417,0.0173,84,8.258,159,0.6893,9.625,-8.0525,-0.4392,-0.4892,0.6583,91,6137.872,118672,0.7185,0.0479,-9.6821,0.1751,1.0567,-0.4828,60
8.462,163,3.3988,-0.1681,-19.7757,0.1817,-0.0677,-0.0783,84,8.31,160,-1.6777,9.7865,-8.164,-0.3207,-0.2807,0.1069,91,6137.924,118673,2.2399,4.7262,-11.8989,0.6477,1.0418,-0.6729,60
8.513,164,1.2007,2.0532,-19.3307,-0.0465,0.633,0.3381,84,8.362,161,-1.2053,12.4695,-7.0771,-0.6023,-0.0459,-0.6084,91,6137.976,118674,2.7331,3.3213,-10.5305,0.222,1.3606,-0.1701,60
8.565,165,-2.8888,0.7006,-20.3715,-0.1508,0.3994,-0.3358,84,8.414,162,-1.9085,12.1514,-5.8732,-0.9364,-0.0175,-1.1304,91,6138.028,118675,3.9555,5.3409,-9.2736,0.003,1.2382,-0.1925,60
8.617,166,-1.5763,0.9266,-21.8486,0.515,-0.3509,-0.5255,84,8.465,163,0.1406,11.7678,-5.3185,-0.5295,0.0048,-1.5114,91,6138.08,118676,5.1475,4.3582,-9.5562,0.0786,1.0627,-0.0971,60
8.669,167,-2.6622,-0.3419,-22.9999,0.8204,-0.6957,-0.3893,84,8.517,164,0.4244,10.2804,-6.3252,-1.0665,0.0083,-1.7895,91,6138.131,118677,6.1523,3.3601,-9.0878,0.129,0.8278,-0.0116,60
8.72,168,-3.0026,-2.0936,-23.9684,0.7672,-1.1771,-0.2388,84,8.569,165,0.8919,7.2562,-7.7983,-1.4584,-0.0509,-1.2749,91,6138.183,118678,6.889,2.749,-8.85,0.3251,0.1422,0.4417,60
8.772,169,1.0304,-1.2562,-22.3037,1.2343,-1.524,-0.662,84,8.621,166,0.3312,4.7324,-7.8442,-1.3475,-0.7098,-0.3342,91,6138.235,118679,7.4793,2.6907,-8.6826,0.7268,-0.4436,0.998,60
8.824,170,1.6353,0.0578,-20.6503,1.4828,-1.7801,-0.5899,84,8.673,167,-1.269,2.6804,-6.7574,-1.4999,-1.1907,0.4214,91,6138.287,118680,9.2283,0.2359,-9.606,1.0674,-0.9778,1.4041,60
8.876,171,2.7116,0.2181,-17.1779,1.5508,-1.1137,-0.555,84,8.725,168,0.8729,7.2831,-2.5754,-0.4238,-0.7679,0.973,91,6138.339,118681,8.9202,1.2396,-9.0647,1.2295,-0.884,1.4141,60
8.928,172,2.5092,0.8028,-14.6666,1.2654,-0.1304,-0.8734,84,8.776,169,-1.2856,5.8822,-1.7894,-0.567,-0.3836,1.3755,91,6138.39,118682,9.7431,-0.0203,-8.6469,1.1366,-0.2645,0.637,60
8.979,173,1.1754,-3.6736,-18.4003,1.5907,0.5872,-0.9251,84,8.828,170,-1.9926,6.9384,-1.5406,0.0923,0.1674,1.5385,91,6138.442,118683,12.4693,0.9278,-8.1131,0.7765,0.2697,-0.1147,60
9.031,174,-0.0865,-3.6089,-18.1507,1.7744,1.0395,-0.387,84,8.88,171,-3.4451,6.5881,-3.0692,0.2599,0.2842,1.3163,91,6138.494,118684,13.6367,-0.7271,-8.8316,0.3598,0.1765,-0.3652,60
9.083,175,-2.1656,-4.0083,-18.0559,0.7277,1.2532,-0.2453,84,8.932,172,-3.6799,7.2167,-4.3429,-0.1493,0.0273,0.9595,91,6138.546,118685,10.6502,-3.0609,-10.6215,-0.0207,0.4207,-0.6048,60
9.135,176,-3.7115,-5.5637,-17.9947,1.2055,1.2223,0.131,84,8.984,173,-2.2825,7.3375,-4.7162,0.1116,-0.5629,0.7398,91,6138.597,118686,7.4828,-1.8119,-10.7209,-0.2992,0.9832,-0.9189,60
9.186,177,-4.8221,-3.8057,-17.0956,0.8536,0.8891,0.3065,84,9.035,174,-1.2946,7.1102,-5.9016,0.6886,-0.868,0.8374,91,6138.649,118687,4.0477,-1.6625,-10.6744,-0.228,0.9945,-0.6326,60
9.238,178,-5.8219,-3.3311,-17.6319,0.0034,0.4978,-0.1905,84,9.087,175,3.9742,10.5162,-6.9407,1.1743,-0.5103,0.0691,91,6138.701,118688,1.8227,-0.2501,-10.7265,-0.0802,0.3833,-0.0647,60
9.29,179,-4.4915,-2.9376,-17.0061,-0.6749,0.0134,-0.7008,84,9.139,176,2.365,12.3289,-13.0054,1.5288,-1.0451,-0.636,91,6138.752,118689,1.3151,-0.8016,-10.4091,0.1026,-0.0545,0.2391,60
9.342,180,-2.662,-2.1369,-19.3928,-1.1699,-0.1311,-0.9028,84,9.191,177,1.1608,14.0257,-14.595,0.5732,-0.1973,-0.4618,91,6138.804,118690,1.0543,-0.5398,-10.21,0.2038,-0.3677,0.4363,60
9.394,181,0.8414,1.7171,-21.9089,-1.5155,-0.0425,-0.504,84,9.243,178,-2.58,13.9171,-14.3145,0.0844,0.1483,-0.8871,91,6138.856,118691,0.8786,-0.354,-10.0682,0.2763,-0.5948,0.5813,60
9.445,182,4.7344,6.6432,-23.9866,-1.7835,0.2237,-0.2051,84,9.294,179,-2.9006,13.78,-12.5951,0.2635,-0.1374,-1.3338,91,6138.908,118692,0.7648,-0.2088,-9.9534,0.3266,-0.7579,0.6877,60
9.497,183,1.5135,10.0422,-21.5793,-0.6273,-0.5061,0.204,84,9.346,180,-2.9394,11.1537,-11.4734,-0.0257,-0.6957,-1.6599,91,6138.959,118693,5.9165,-5.4103,-4.701,0.0528,-0.6989,0.7763,60
9.549,184,0.4164,7.3025,-19.6387,0.1594,0.2541,0.5806,84,9.398,181,-4.3642,10.8827,-10.7588,-0.3468,-0.9796,-1.8978,91,6139.011,118694,4.7128,-4.0334,-6.8737,-0.1271,-0.42,0.7277,60
9.601,185,-0.436,3.1444,-20.3067,0.7907,-0.29,1.1004,84,9.45,182,-4.4993,8.3689,-10.1104,-0.9227,-0.9682,-1.98,91,6139.063,118695,3.5224,-2.9477,-7.6768,-0.2574,-0.2125,0.6928,60
9.653,186,-1.9399,2.3648,-19.2314,0.9357,-0.881,0.9063,84,9.502,183,-5.1106,11.0971,-8.993,-0.559,-1.0488,-1.7607,91,6139.115,118696,2.6665,-2.1469,-8.2637,-0.3524,-0.0603,0.6672,60
9.705,187,-3.6686,1.147,-18.9053,0.2601,-1.3123,-0.0135,84,9.554,184,-4.1121,9.2621,-8.8071,-0.93,-0.8601,-1.8155,91,6139.167,118697,2.0377,-1.5652,-8.6813,-0.4211,0.0524,0.6498,60
9.756,188,-4.3789,0.1002,-18.3546,0.853,-1.6271,-0.1214,84,9.605,185,-3.9791,6.9534,-10.2553,-1.0799,-0.6119,-1.5144,91,6139.218,118698,5.3907,1.3496,-14.1762,-0.7519,0.2142,0.7714,60
9.808,189,-5.06,-1.4958,-19.4828,0.0657,-1.4565,0.5398,84,9.657,186,-2.4026,4.8259,-9.6439,-1.3001,-0.3864,-1.0441,91,6139.27,118699,7.1001,1.4996,-14.1137,-0.66,0.3735,0.3091,60
9.86,190,-6.7514,-3.4611,-19.7308,0.7223,-1.7324,-0.2527,84,9.709,187,-0.9446,2.4058,-10.3363,-0.9382,-0.7143,-0.3078,91,6139.322,118700,8.2315,1.4519,-8.8268,-0.5639,0.7672,0.2638,60
9.912,191,-3.5557,-2.4502,-17.3486,0.6285,-1.2004,-0.5444,84,9.761,188,-0.3791,1.8083,-11.1673,-0.705,-1.1232,0.4408,91,6139.374,118701,8.91,-0.2029,-8.4124,-0.8021,0.8126,0.4755,60
9.963,192,-1.4276,-0.9374,-14.906,0.864,-0.7314,-0.9501,84,9.813,189,0.1728,3.7983,-9.3223,-0.9274,-1.4924,0.9871,91,6139.425,118702,10.0811,-1.5984,-8.6234,-0.8865,0.3075,0.6637,60
10.015,193,-0.2803,-0.5242,-13.0133,0.5324,-0.0205,-1.0536,84,9.864,190,4.1861,5.5773,-4.156,-0.2214,-1.0565,1.3858,91,6139.477,118703,9.6123,-1.6163,-8.3212,-0.9642,-0.1574,0.75,60
10.067,194,0.7436,0.2368,-13.0875,0.0838,0.6675,-1.0969,84,9.916,191,3.5413,8.2989,-3.0602,0.1597,-0.092,1.6768,91,6139.529,118704,9.7506,-3.4946,-9.1152,-1.0489,-0.45,0.6853,60
10.119,195,0.2802,-2.0796,-16.4982,0.1904,1.1696,-1.4757,84,9.968,192,-0.245,11.3624,-2.9507,0.4235,0.4019,1.7932,91,6139.581,118705,8.9855,-2.2618,-10.1371,-0.9659,-0.1932,0.342,60
10.171,196,0.3196,-6.7155,-20.0376,0.6022,1.536,-1.2973,84,10.02,193,-1.8459,11.3114,-3.5864,-0.2395,0.4982,1.1457,91,6139.632,118706,8.4437,-4.0438,-11.3447,-0.8446,0.0472,-0.1375,60
10.222,197,-1.3223,-6.9549,-18.6136,0.5173,1.8035,-0.2702,84,10.072,194,-2.6087,9.1078,-4.1935,-0.8264,0.6965,0.6829,91,6139.684,118707,6.4464,-3.3247,-11.1681,-0.5298,0.2336,-0.1257,60
10.274,198,-3.9976,-6.3207,-18.9685,0.2426,1.8731,0.4163,84,10.123,195,-3.381,9.8032,-4.1115,-0.4069,0.6915,0.4306,91,6139.736,118708,4.2602,-2.0735,-10.7692,-0.4922,0.2114,0.2282,60
10.326,199,-6.2532,-5.077,-17.964,0.6531,0.96,0.0381,84,10.175,196,-0.4963,11.9952,-3.9815,0.3747,0.6822,-0.1457,91,6139.788,118709,2.0891,-0.4535,-10.2257,-0.6369,-0.1101,0.6767,60
10.378,200,-7.1208,-3.9571,-16.05,0.1434,0.3078,0.0139,84,10.227,197,-4.1904,11.5328,-7.6976,0.9164,0.0394,-0.4745,91,6139.84,118710,1.2277,0.4844,-9.5745,-0.8436,-0.7025,1.0661,60
10.43,201,-6.2008,-3.4796,-14.9725,-0.5727,0.0139,-0.0308,84,10.279,198,-0.5235,13.744,-8.4803,1.3406,-0.397,-1.0327,91,6139.891,118711,1.1149,0.9949,-9.2483,-0.7594,-1.1758,1.316,60
10.481,202,-4.878,-2.1433,-17.6965,-1.0954,0.261,0.5226,84,10.331,199,1.0099,7.2101,-9.8741,1.4269,-0.9624,-1.3479,91,6139.943,118712,0.9453,0.8878,-9.1086,-0.6501,-1.5212,1.5108,60
10.533,203,-3.3323,-0.3353,-20.9122,-1.0808,0.0049,0.2359,84,10.382,200,-2.2554,6.5601,-11.6139,0.3614,-0.0233,-1.0994,91,6139.995,118713,0.8039,0.7869,-9.008,-0.5771,-1.7733,1.6553,60
10.585,204,-1.2385,2.4442,-20.5706,-1.4662,-0.6658,-0.0659,84,10.434,201,-2.3358,8.0458,-12.1483,-0.3053,0.0789,-1.2834,91,6140.046,118714,0.7263,0.6511,-8.9784,-0.5319,-1.9573,1.7643,60
10.637,205,-0.4315,-3.2417,-20.8249,-0.9871,-0.7524,-0.5629,84,10.486,202,-3.4907,6.8966,-13.5743,0.0541,-0.5278,-1.4709,91,6140.098,118715,5.8255,-1.5319,-12.7236,-0.0899,-1.8364,1.8522,60
10.688,206,-3.075,-2.4541,-22.3998,-0.9327,-0.4057,-0.1289,84,10.538,203,-2.8754,7.4077,-11.3952,0.4325,-0.5468,-1.5275,91,6140.15,118716,4.2287,-1.0387,-11.8447,0.1968,-1.7775,1.9147,60
10.74,207,-5.2965,-0.1384,-20.0126,-0.2084,-0.9655,-0.1318,84,10.59,204,-2.4489,7.2326,-10.4281,0.5545,-0.3806,-1.4237,91,6140.202,118717,3.0913,-0.6751,-11.2228,0.4028,-1.7361,1.9615,60
10.792,208,-4.8963,3.9103,-17.9875,-0.5048,-1.374,-0.1946,84,10.641,205,-2.1456,7.0648,-10.5488,0.3692,-0.4059,-1.2623,91,6140.253,118718,2.2535,-0.4105,-10.7643,0.5488,-1.7082,1.997,60
10.844,209,-5.1217,1.5256,-18.6436,-1.0458,-1.6433,-0.3326,84,10.693,206,-2.2458,6.7816,-9.5198,-0.0803,-0.2003,-1.1016,91,6140.305,118719,1.6273,-0.2168,-10.4223,0.6515,-1.6904,2.024,60
10.896,210,-3.0574,3.1228,-18.9277,-0.0889,-1.8687,-0.025,84,10.745,207,-4.8216,8.1404,-12.1988,0.097,-0.401,-0.6406,91,6140.357,118720,0.8999,0.1906,-7.827,0.9521,-1.8101,2.0864,60
10.947,211,-1.7238,2.8071,-17.5861,0.5471,-1.0439,-0.3714,84,10.797,208,-1.5479,2.1527,-8.8246,-0.3543,-0.9653,0.0142,91,6140.409,118721,-4.5748,4.1128,-4.5547,1.3687,-1.3235,2.1582,60
10.999,212,-3.2701,1.3628,-17.7931,1.0737,-0.416,-0.4609,84,10.849,209,-6.7997,6.039,-8.3064,-0.37,-1.1826,0.0017,91,6140.46,118722,-5.622,1.4048,-7.1013,1.3555,-0.8208,1.638,60
11.051,213,-3.5347,5.7508,-17.6236,1.458,-0.3699,0.3403,84,10.901,210,-10.1036,9.4419,-5.6457,-0.835,-0.7743,-0.6851,91,6140.512,118723,-5.6683,-0.6403,-8.0366,1.1275,-0.4979,0.5833,60
11.103,214,-2.2201,5.9682,-18.4601,0.3932,0.4125,0.2831,84,10.952,211,-8.9271,8.6663,-6.4644,-1.2518,-0.7323,-1.1864,91,6140.564,118724,-4.3752,-2.849,-9.1149,1.0278,-0.3108,-0.2503,60
11.155,215,-7.1526,3.679,-21.4695,0.3637,0.9835,0.77,84,11.004,212,-4.8912,3.9475,-6.5684,-1.2148,-0.6051,-0.545,91,6140.616,118725,-3.9853,-3.7164,-9.0552,1.0035,-0.253,-0.8588,60
11.207,216,-10.7526,2.1601,-23.024,0.8326,0.149,-0.0168,84,11.056,213,-1.8551,3.1707,-8.2714,-0.9034,-1.0072,0.2676,91,6140.667,118726,-3.343,-3.8327,-8.6323,0.9094,-0.079,-1.1534,60
11.258,217,-8.7435,2.7136,-21.0081,1.2821,-0.5606,-0.1441,84,11.108,214,-0.0353,3.6969,-8.8157,-0.4383,-1.4063,0.8607,91,6140.719,118727,-3.212,-3.5466,-9.0245,0.7873,0.1575,-1.0349,60
11.31,218,-6.8062,1.5557,-17.891,0.614,0.0208,0.3283,84,11.16,215,-3.0398,5.298,-9.2141,-0.1533,-1.6991,1.2935,91,6140.771,118728,-3.0863,-2.9715,-9.3508,0.6727,0.4357,-0.8101,60
11.362,219,-2.941,2.473,-14.9789,0.694,0.6976,0.2317,84,11.211,216,0.1822,9.1936,-4.077,-0.7919,-1.9127,1.6095,91,6140.823,118729,-3.7184,-3.7256,-9.6756,0.522,0.7249,-0.5143,60
11.414,220,-1.1671,2.4217,-15.5657,0.9691,1.1915,0.1351,84,11.263,217,4.056,7.8087,-0.8042,-0.6325,-0.7258,1.4492,91,6140.875,118730,-2.83,-5.4075,-9.9348,0.3315,0.7492,0.0925,60
11.466,221,-3.4092,0.8438,-16.2812,0.9741,1.5521,-0.4971,84,11.315,218,5.3091,7.7866,0.2302,-0.7029,0.1493,0.9734,91,6140.926,118731,-2.589,-9.2045,-9.7009,0.009,1.169,0.7432,60
11.517,222,-4.3241,-3.0134,-19.8792,1.3853,1.8152,-1.0379,84,11.367,219,2.5075,7.0297,-2.8415,-1.193,0.7881,0.3884,91,6140.978,118732,-5.9844,-11.9757,-11.0626,-0.1381,0.8267,0.9987,60
11.569,223,1.6959,-2.7863,-22.5052,1.6854,1.5332,-0.1761,84,11.419,220,0.7646,5.1989,-6.4533,-1.5507,0.7165,0.2075,91,6141.03,118733,-3.7171,-9.1207,-10.848,-0.0613,0.3306,0.4305,60
11.621,224,4.2056,-7.2313,-21.1964,1.7966,1.0751,0.4008,84,11.47,221,-4.7146,4.9042,-10.2146,-0.4601,1.202,0.7687,91,6141.081,118734,-1.947,-5.473,-10.3787,0.1334,0.2663,0.0114,60
11.673,225,0.1481,-4.195,-19.6083,1.9856,1.4671,0.9691,84,11.522,222,-4.503,3.0881,-9.0989,-0.1465,0.2046,0.8463,91,6141.133,118735,-0.6583,-0.6878,-10.7659,-0.1248,0.1935,0.538,60
11.725,226,-1.7854,-1.7558,-16.5383,1.3519,0.4014,1.0319,84,11.574,223,-7.1484,5.6286,-6.084,0.5648,-0.0031,0.831,91,6141.185,118736,-1.5931,0.3113,-9.6978,-0.7567,0.2925,1.0684,60
11.776,227,-3.9932,0.4251,-15.3324,1.0429,0.9478,1.2508,84,11.626,224,-2.6321,9.4348,-1.811,0.4361,-0.6749,0.7656,91,6141.237,118737,-2.3684,-0.5638,-9.9834,-1.2301,0.405,1.4554,60
11.828,228,-6.3746,3.2971,-12.8163,0.0838,1.0307,1.1287,84,11.678,225,-0.2828,8.4898,-2.0302,-0.3617,-0.2788,1.1312,91,6141.289,118738,-1.0772,-0.3755,-9.6308,-1.5757,0.5656,1.7379,60
11.88,229,-10.1847,-0.1489,-17.3504,-0.6162,1.0348,0.3941,84,11.729,226,4.2266,8.0597,-3.3197,0.3966,-0.6436,1.3159,91,6141.34,118739,-0.1147,-0.2627,-9.3782,-1.8279,0.717,1.9441,60
11.932,230,-7.4806,4.6494,-18.9375,-1.1271,0.1893,-0.2108,84,11.781,227,3.493,8.1526,-2.8854,0.8244,-0.0196,1.4634,91,6141.392,118740,0.6918,-0.114,-9.2229,-2.0119,0.8661,2.0946,60
11.983,231,-2.4514,0.3933,-21.8179,-0.9832,-0.4873,-0.829,84,11.833,228,3.1034,7.458,-2.321,0.4898,-0.3888,1.2498,91,6141.444,118741,5.7669,-3.5952,-4.6031,-2.1463,0.8744,2.2044,60
12.035,232,-1.9198,1.6731,-21.7058,-0.0432,-0.0164,-0.493,84,11.885,229,1.9324,7.3603,-2.4003,0.4432,0.0487,1.5775,91,6141.496,118742,5.2376,-2.6161,-5.3905,-2.2443,1.0058,2.2846,60
12.087,233,0.2706,0.3056,-19.5404,-0.7082,-0.1545,-1.0349,84,11.937,230,1.1594,9.373,-4.016,0.9952,0.6275,1.7461,91,6141.547,118743,4.8611,-1.951,-6.0102,-2.3159,1.1487,2.3431,60
12.139,234,0.775,-0.6016,-18.612,-0.7333,0.5696,-0.1298,84,11.988,231,-2.9329,9.8973,-6.2925,0.6665,0.8606,0.8017,91,6141.599,118744,4.5647,-1.5403,-6.4396,-2.3681,1.309,2.3858,60
12.191,235,0.0593,-0.7494,-19.7358,-1.0016,1.0982,-0.1255,84,12.04,232,-1.8944,10.3138,-7.6605,0.4177,0.3318,-0.1013,91,6141.651,118745,4.3423,-1.2985,-6.7566,-2.4062,1.4818,2.4169,60
12.242,236,2.7459,-1.9199,-20.7067,-0.5265,1.4839,0.4309,84,12.092,233,-1.1166,11.3315,-6.0003,-0.0012,0.0943,-0.3139,91,6141.703,118746,4.1554,-1.1776,-6.9917,-2.434,1.6535,2.4397,60
12.294,237,1.8699,-0.8573,-20.5729,-0.5141,1.7654,0.9912,84,12.144,234,-1.1832,11.4844,-3.402,-0.6809,0.0338,-0.1741,91,6141.754,118747,3.9713,-1.1477,-7.1708,-2.4543,1.8322,2.4563,60
12.346,238,-0.8881,-1.56,-20.4031,-0.8046,1.6188,1.0006,84,12.196,235,0.647,9.0003,-2.3056,-1.177,-0.1225,0.3177,91,6141.806,118748,3.7999,-1.1724,-7.3153,-2.4692,2.001,2.4684,60
12.398,239,4.4082,-0.1583,-16.3098,0.0871,0.5155,0.323,84,12.248,236,2.4323,6.5167,-3.5332,-1.539,0.5289,0.8973,91,6141.858,118749,3.6311,-1.2038,-7.4503,-2.48,2.1456,2.4772,60
