right_hand_timestamp,right_hand_index,right_hand_accel_x,right_hand_accel_y,right_hand_accel_z,right_hand_gyro_x,right_hand_gyro_y,right_hand_gyro_z,right_hand_battery_percentage,left_hand_timestamp,left_hand_index,left_hand_accel_x,left_hand_accel_y,left_hand_accel_z,left_hand_gyro_x,left_hand_gyro_y,left_hand_gyro_z,left_hand_battery_percentage,ball_timestamp,ball_index,ball_accel_x,ball_accel_y,ball_accel_z,ball_gyro_x,ball_gyro_y,ball_gyro_z,ball_battery_percentage
0.856,16,4.98,1.5126,-17.1298,-0.7506,1.4996,-0.2473,91,0.552,10,6.0845,-4.8952,-16.0966,1.2881,0.1544,-0.8281,92,4493.922,86887,1.7312,-10.8959,-12.4519,0.0767,0.0373,0.1908,61
0.908,17,4.9332,3.2352,-15.9244,-1.2252,0.4252,-0.3709,91,0.604,11,6.7973,-6.0917,-14.3898,0.2601,0.7917,0.061,92,4493.973,86888,1.2008,-9.4199,-11.9825,0.0098,-0.0397,0.1956,61
0.959,18,5.7237,5.4374,-12.0627,-1.5716,-0.3579,0.4,91,0.655,12,9.8232,-8.8961,-12.9623,-0.304,0.7657,0.7099,92,4494.025,86889,0.6736,-6.9774,-11.2302,-0.2628,-0.1089,0.2043,61
1.011,19,5.3855,5.5428,-13.5257,-1.2423,-0.6906,0.5115,91,0.707,13,10.9559,-8.6447,-12.2994,-0.0408,-0.1138,1.0725,92,4494.077,86890,0.7275,-3.7846,-10.8027,-0.3191,-0.2571,0.3522,61
1.063,20,3.7023,6.3693,-15.9051,-0.8552,-1.1733,-0.1877,91,0.759,14,8.7098,-7.3524,-12.6773,-0.2412,-0.0709,0.8447,92,4494.128,86891,-0.3648,-0.9842,-10.0876,-0.1934,-0.3826,0.5671,61
1.115,21,2.4917,7.5563,-17.1665,-0.8569,-1.5257,-0.5536,91,0.811,15,6.0069,-8.4111,-14.3464,-0.853,-0.0812,1.2819,92,4494.18,86892,-1.285,-0.0298,-9.8858,-0.0278,-0.2746,0.6205,61
1.167,22,2.063,6.5229,-17.6738,-0.8943,-1.7828,-1.0791,91,0.863,16,3.7293,-7.9964,-16.3992,-1.3026,-0.732,1.0963,92,4494.232,86893,-0.9166,-0.0761,-9.9631,0.124,-0.1864,0.6378,61
1.218,23,2.0631,5.7459,-17.3734,-1.0864,-1.9705,-1.4627,91,0.914,17,3.5575,-7.581,-16.2672,-1.4942,-1.2069,1.4655,92,4494.284,86894,-0.6502,-0.1322,-9.9401,0.2372,-0.1231,0.6522,61
1.27,24,1.7564,4.7494,-16.2184,-0.5877,-2.1052,-1.649,91,0.966,18,2.956,-6.4797,-15.9513,-1.4651,-1.5535,1.5231,92,4494.336,86895,-0.4775,-0.2044,-9.9318,0.3226,-0.0778,0.6645,61
1.322,25,1.6068,3.9246,-14.6412,-0.1286,-1.8363,-1.6181,91,1.018,19,2.8425,-5.318,-15.0537,-1.6736,-1.8065,1.2586,92,4494.388,86896,5.0098,-5.2646,-15.2742,0.747,-0.2412,0.5183,61
1.374,26,1.3514,2.8589,-14.1269,-0.2723,-1.0632,-1.2787,91,1.07,20,3.2552,-4.9713,-14.0365,-1.8282,-1.6167,1.5096,92,4494.439,86897,3.7098,-3.911,-13.4614,1.219,-0.1091,0.512,61
1.426,27,1.2701,1.5822,-14.0555,0.2754,-0.0971,-0.9616,91,1.122,21,2.4288,-2.6243,-13.4173,-1.3082,-0.9974,0.8353,92,4494.491,86898,2.6978,-2.8548,-12.2901,1.5636,-0.0159,0.5092,61
1.477,28,1.3871,0.9357,-15.3888,0.8753,0.6116,-0.3737,91,1.173,22,2.5769,-2.669,-13.4341,-1.0396,-0.0489,0.3238,92,4494.543,86899,7.3273,3.2475,-6.6363,1.8151,-0.4104,0.2671,61
1.529,29,1.2814,0.2373,-18.2895,1.3132,1.1288,-0.2082,91,1.225,23,2.9168,-1.6573,-14.4505,-0.3218,0.6434,-0.4202,92,4494.595,86900,0.5455,-2.8877,-12.869,1.9986,-0.7833,-0.0062,61
1.581,30,1.2902,1.2394,-20.1594,1.6328,1.5062,-0.827,91,1.277,24,4.1974,-3.117,-16.0607,-0.1301,1.1487,-0.8798,92,4494.646,86901,-1.2556,-4.2266,-9.1967,1.6013,-0.315,-0.1893,61
1.633,31,0.9147,1.1408,-21.151,0.5143,1.7817,0.0182,91,1.329,25,4.3908,-3.4546,-18.5512,-0.775,1.5174,-1.3285,92,4494.698,86902,-0.699,-5.4237,-6.9273,1.3599,-0.1058,-0.242,61
1.684,32,-0.7752,-0.2943,-21.069,-0.302,1.9748,-0.125,91,1.38,26,6.3873,-2.6743,-20.9964,0.1061,1.7866,-1.656,92,4494.75,86903,1.0734,-7.1805,-5.5719,0.739,-0.301,-0.7546,61
1.736,33,-1.0388,-0.1722,-19.775,-0.8781,1.4713,0.4231,91,1.432,27,5.8682,-4.2691,-20.7092,0.7492,1.8783,-0.9075,92,4494.801,86904,1.3436,-7.6773,-4.5405,0.1979,-0.6378,-1.2268,61
1.788,34,0.6379,0.687,-19.089,-1.3183,0.9111,0.9073,91,1.484,28,5.2146,-4.8022,-19.1062,1.2185,1.082,-0.4591,92,4494.853,86905,0.2812,-6.988,-4.1354,-0.0295,-0.9244,-1.5714,61
1.84,35,0.6949,0.934,-19.507,-1.5663,1.3474,0.8027,91,1.536,29,5.7052,-4.1909,-17.292,1.561,0.6472,-0.1606,92,4494.905,86906,0.2215,-5.8796,-4.8063,-0.0329,-1.2246,-1.823,61
1.892,36,2.3779,2.5235,-19.0515,-0.4733,1.5472,-0.0893,91,1.588,30,7.4761,-3.7231,-16.2628,1.508,0.2206,0.5184,92,4494.957,86907,0.1095,-4.5764,-5.6022,0.1795,-1.5302,-2.0024,61
1.943,37,6.7918,7.2317,-16.2341,0.1536,0.4599,-0.7403,91,1.64,31,9.1306,-7.3113,-14.4855,0.4206,0.4586,1.0437,92,4495.009,86908,-0.1445,-3.9882,-6.4536,0.2575,-1.774,-2.0214,61
1.995,38,4.8966,2.519,-18.6475,0.2708,-0.2865,-0.289,91,1.691,32,8.4278,-10.5969,-15.4731,0.798,0.3181,1.4271,92,4495.06,86909,-0.6833,-2.605,-7.7073,0.2033,-1.8344,-1.8476,61
2.047,39,3.1455,1.9992,-20.0164,0.7702,-0.3534,-0.8861,91,1.743,33,1.6675,-12.7074,-14.1778,-0.0976,0.9112,0.4854,92,4495.112,86910,-2.0513,-1.3923,-8.4183,0.1343,-1.5122,-1.4758,61
2.099,40,1.846,4.9131,-20.3268,1.2365,-0.9273,0.03,91,1.795,34,0.3744,-10.6254,-14.5142,-0.6103,0.318,1.0196,92,4495.164,86911,-2.8324,-1.235,-8.496,0.0922,-1.1024,-0.9732,61
2.151,41,0.5962,4.0232,-21.11,0.2251,-1.3461,-0.6532,91,1.847,35,-0.1133,-12.0565,-15.0362,-1.1242,-0.4405,1.4096,92,4495.216,86912,-1.9723,-0.9184,-8.8368,0.0769,-0.8472,-0.5286,61
2.202,42,0.8132,2.7596,-20.4373,-0.0254,-1.6518,-0.8116,91,1.899,36,-0.1759,-14.0602,-15.4799,-1.5005,-0.9062,1.0919,92,4495.267,86913,-1.3324,-0.6938,-9.0852,0.0663,-0.659,-0.2031,61
2.254,43,0.8082,2.6607,-19.2129,0.0703,-1.8125,-0.9769,91,1.95,37,-0.2287,-10.7892,-16.0691,-0.7041,-1.334,1.3788,92,4495.319,86914,-0.842,-0.5499,-9.2617,0.0593,-0.5188,0.0362,61
2.306,44,0.4884,1.8482,-17.4887,-0.2187,-1.7697,-0.8021,91,2.002,38,0.7569,-7.2549,-15.1807,-0.667,-1.6463,1.6717,92,4495.371,86915,-0.4076,-0.4758,-9.405,0.0551,-0.4134,0.2127,61
2.358,45,0.4032,0.878,-16.495,0.1157,-1.5085,-0.674,91,2.054,39,1.2477,-7.2618,-14.3096,-0.8885,-1.5704,1.8854,92,4495.422,86916,-0.254,-0.4491,-9.9495,-0.1551,-0.4796,0.031,61
2.41,46,0.3963,-0.0599,-15.2159,0.7589,-1.1652,-0.2642,91,2.106,40,1.0477,-5.2266,-12.7231,-1.254,-0.9608,1.4915,92,4495.474,86917,-0.131,-0.3435,-9.8849,-0.3063,-0.5364,-0.1038,61
2.461,47,0.2046,-0.2318,-16.086,1.2282,-0.2522,-0.6019,91,2.158,41,1.2235,-4.3367,-12.0091,-0.3047,-0.2753,0.9392,92,4495.526,86918,-0.034,-0.2713,-9.8521,-0.4158,-0.5769,-0.2012,61
2.513,48,0.2821,-1.7786,-17.1677,1.5708,0.4984,-1.1144,91,2.21,42,2.0848,-4.2268,-12.1878,-0.2815,0.4781,0.283,92,4495.578,86919,0.0498,-0.2149,-9.828,-0.4948,-0.6058,-0.2721,61
2.565,49,-1.3917,-5.1016,-19.2864,1.8208,1.0461,-1.4885,91,2.262,43,3.1453,-3.4247,-14.3406,-0.3252,1.0281,-0.4799,92,4495.63,86920,0.09,-5.0579,-9.7002,-0.6184,-0.5275,-0.541,61
2.617,50,-1.0779,-3.3021,-15.4891,2.0033,1.4459,-1.7615,91,2.313,44,5.0649,-3.1814,-15.4045,-0.9174,1.4294,-1.0366,92,4495.681,86921,2.7037,-5.4319,-9.9835,-0.9619,-0.8487,-0.3193,61
2.669,51,1.35,-4.6319,-19.0434,0.7847,1.0178,-1.9014,91,2.365,45,5.8357,-2.5732,-19.1827,-0.069,1.7223,-1.1181,92,4495.733,86922,5.2897,-3.7483,-11.144,-1.3799,-1.2068,-0.5806,61
2.72,52,-0.2586,-6.0129,-21.327,-0.1047,1.4252,-1.3712,91,2.417,46,6.7677,-1.7293,-20.707,0.1772,1.9361,-1.5,92,4495.785,86923,6.2389,-2.7378,-12.6401,-1.685,-1.5439,-1.0857,61
2.772,53,-0.5183,-4.4003,-20.2057,-0.7538,1.6709,-0.5217,91,2.469,47,6.6739,-3.2927,-21.5934,0.4898,1.4198,-1.0391,92,4495.836,86924,6.0507,-3.1395,-13.1366,-1.6828,-1.3921,-1.3224,61
2.824,54,2.4156,-3.2365,-20.9718,-1.2275,1.9019,-0.9076,91,2.521,48,5.808,-4.3816,-20.5652,1.0292,0.7776,-0.5409,92,4495.888,86925,5.7338,-3.0623,-12.7392,-1.4974,-0.9596,-1.5719,61
2.876,55,4.7297,-2.0878,-21.7884,-1.3589,1.2107,-1.2402,91,2.572,49,6.7473,-3.2568,-18.2383,1.4229,0.1478,-0.0479,92,4495.94,86926,4.7639,-2.4655,-12.0095,-1.5313,-0.6105,-1.8233,61
2.928,56,7.3898,1.3884,-21.2757,-0.3326,0.5298,-1.5803,91,2.624,50,9.5201,-5.3882,-16.6065,0.7081,-0.3025,0.6304,92,4495.992,86927,4.1693,-2.163,-11.1206,-1.3889,-0.5752,-1.9785,61
2.979,57,-0.1389,5.5136,-18.3444,-0.827,-0.2827,-0.4777,91,2.676,51,10.8841,-7.5313,-13.3758,-0.1632,-0.2564,1.1255,92,4496.043,86928,3.0782,-1.2335,-10.4141,-1.1665,-0.6221,-1.9961,61
3.031,58,-2.198,9.173,-16.2097,0.0708,-0.8756,-0.4806,91,2.728,52,2.5983,-2.5067,-10.1894,-0.5763,-0.7946,0.135,92,4496.095,86929,1.8654,-0.7334,-10.0001,-0.9546,-0.5626,-1.9834,61
3.083,59,-2.1451,8.1149,-17.9495,0.726,-1.3084,-1.0259,91,2.78,53,1.8384,-2.5854,-13.6221,-0.8662,-1.2526,0.2969,92,4496.147,86930,0.0422,-1.35,-9.3148,-0.7887,-0.4748,-1.8564,61
3.135,60,-0.894,6.1459,-19.3938,0.8921,-1.6243,-1.1297,91,2.831,54,1.4618,-2.8063,-15.4334,-1.3122,-1.5869,0.8051,92,4496.199,86931,-0.0623,-2.6839,-9.0808,-0.6262,-0.3387,-1.6765,61
3.186,61,-0.1243,4.3169,-19.0744,1.2725,-1.8548,-0.9852,91,2.883,55,3.9289,-3.5627,-16.6721,-1.6377,-1.8308,0.6192,92,4496.25,86932,0.0251,-1.8778,-9.3069,-0.563,-0.2289,-1.6219,61
3.238,62,-0.2348,2.9313,-18.5262,1.381,-1.8481,-0.6979,91,2.935,56,4.5497,-3.3571,-15.8682,-1.8184,-1.947,-0.2077,92,4496.302,86933,0.0891,-1.2815,-9.5038,-0.5185,-0.1484,-1.5826,61
3.29,63,-0.0715,2.4568,-17.2556,1.6594,-1.5261,-0.5712,91,2.987,57,6.1398,-3.5159,-14.5095,-1.3157,-1.6923,-0.5161,92,4496.354,86934,0.158,-0.8074,-9.6743,-0.4872,-0.0908,-1.5554,61
3.342,64,-0.0565,2.1174,-15.5301,1.4512,-0.7458,0.0796,91,3.039,58,2.069,-5.3046,-15.2976,-0.2885,-0.556,-0.3513,92,4496.406,86935,-4.8452,-5.8471,-4.5735,-0.6174,-0.2372,-1.4694,61
3.394,65,-1.0774,1.9341,-14.0435,1.5881,0.1381,0.4599,91,3.09,59,-1.3021,-5.564,-16.3795,0.2252,-0.0816,-0.2049,92,4496.457,86936,-3.4843,-4.2486,-5.9475,-0.734,-0.3188,-1.3847,61
3.445,66,-1.6779,2.9242,-15.2305,1.4743,0.4424,-0.1146,91,3.142,60,-2.6184,0.4366,-15.6364,0.8151,0.4236,0.1081,92,4496.509,86937,-2.52,-3.0683,-6.9836,-0.8184,-0.3794,-1.3233,61
3.497,67,3.8178,-2.0513,-14.375,1.13,1.0053,-0.7588,91,3.194,61,-1.4268,-0.6976,-15.1863,-0.0852,0.9883,0.3113,92,4496.561,86938,-1.8248,-2.2166,-7.7409,-0.8797,-0.4248,-1.2792,61
3.549,68,2.2826,-2.5456,-16.8142,1.4991,1.4162,-0.904,91,3.246,62,1.7424,-1.8673,-15.3553,0.0483,1.4004,-0.4592,92,4496.613,86939,-4.3306,-6.5809,-6.3258,-0.8489,-0.63,-1.4688,61
3.601,69,2.8806,-0.6942,-16.931,1.7685,1.572,-1.3349,91,3.298,63,5.9782,0.2268,-17.3022,-0.6448,1.7011,-1.0215,92,4496.664,86940,-4.5911,-4.6059,-6.8753,-0.7699,-0.7724,-1.748,61
3.653,70,1.5318,-0.3795,-19.7111,0.6134,1.8297,-0.2976,91,3.35,64,7.5254,-3.8778,-18.9507,-0.0502,1.9206,-1.0463,92,4496.716,86941,-4.3201,-1.5774,-7.7263,-1.109,-0.9592,-1.9519,61
3.705,71,0.0986,-1.1888,-20.2269,0.3002,1.5392,0.4007,91,3.401,65,6.6078,-1.5366,-19.246,0.6351,1.7551,-1.45,92,4496.768,86942,-4.8182,1.6135,-8.2384,-1.3355,-1.1756,-2.1006,61
3.756,72,2.9509,1.0007,-20.0572,-0.4582,1.1258,0.5678,91,3.453,66,6.2846,-2.8722,-19.3928,0.0859,1.2829,-0.5926,92,4496.82,86943,-5.8092,2.9132,-8.6286,-1.4162,-1.2813,-2.2092,61
3.808,73,4.9824,2.373,-20.084,-1.0118,1.3938,0.4964,91,3.505,67,6.582,-4.0888,-20.3236,0.7344,0.3128,-0.5002,92,4496.871,86944,-6.0252,3.6747,-9.1249,-1.2103,-0.8602,-2.2884,61
3.86,74,7.7785,-0.077,-18.4351,-0.9522,1.6035,-0.1806,91,3.557,68,7.2634,-4.4543,-18.3233,0.1611,-0.132,0.3003,92,4496.923,86945,-5.8813,3.3285,-9.2845,-0.6983,-0.2443,-2.0413,61
3.912,75,10.7334,0.5836,-13.1725,-0.781,1.1444,-0.8069,91,3.609,69,10.2198,-4.6202,-14.111,0.1496,0.2522,0.8846,92,4496.975,86946,-4.7987,2.9355,-9.8903,-0.1038,0.2664,-1.473,61
3.964,76,8.3349,0.406,-12.9192,-0.4308,0.2288,-0.6409,91,3.66,70,4.2579,-8.6328,-8.1283,0.3468,0.7619,0.5119,92,4497.027,86947,-4.252,2.6077,-10.4146,0.3924,0.5247,-0.8388,61
4.015,77,9.1661,0.4044,-10.3273,0.3576,0.4856,-0.0994,91,3.712,71,8.0265,-8.4958,-9.7439,-0.0586,-0.1166,0.2176,92,4497.078,86948,-3.6086,0.9346,-9.5497,0.5889,0.389,-0.2353,61
4.067,78,5.1311,-0.2127,-15.0012,0.0123,-0.3149,-0.1827,91,3.764,72,4.9344,-7.029,-12.9079,-0.1385,-0.3146,-0.4149,92,4497.13,86949,-1.7608,1.4414,-9.3562,0.6146,0.6625,0.1711,61
4.119,79,4.4174,1.0844,-18.945,0.6833,-0.8992,-0.8085,91,3.816,73,4.2083,-7.0305,-16.385,-0.5573,-0.9008,0.3177,92,4497.182,86950,1.0132,1.4923,-9.6784,0.7876,1.0151,0.7317,61
4.171,80,2.1829,0.9655,-20.0191,0.7909,-1.3256,-0.3604,91,3.868,74,4.5652,-6.4763,-18.1583,-1.0868,-1.3301,0.8973,92,4497.234,86951,0.6671,1.1062,-9.7038,0.9624,0.971,0.9625,61
4.223,81,2.0588,0.1322,-19.8835,1.2416,-1.6368,0.1759,91,3.919,75,4.4831,-6.3484,-19.2093,-1.4196,-1.6434,0.6462,92,4497.286,86952,0.4136,0.8551,-9.7271,1.0915,0.9338,1.1293,61
4.274,82,3.1554,-0.3401,-18.0509,1.5806,-1.8639,0.2461,91,3.971,76,4.4637,-4.6816,-18.629,-1.7161,-1.8721,0.8601,92,4497.337,86953,0.1542,0.684,-9.8009,1.186,0.9016,1.2474,61
4.326,83,2.7016,0.775,-15.787,0.975,-1.8105,0.7293,91,4.023,77,4.3608,-3.3557,-17.0304,-1.9325,-2.039,0.8694,92,4497.389,86954,1.0436,0.4164,-9.7058,0.9264,0.3792,0.392,61
4.378,84,2.065,0.2353,-14.1055,0.194,-1.3144,0.6377,91,4.075,78,4.389,-3.5651,-15.2325,-1.9622,-2.1608,0.9961,92,4497.441,86955,0.7928,0.2874,-9.7584,0.7453,0.0208,-0.241,61
4.43,85,2.787,-1.8892,-14.7921,0.0281,-0.2769,-0.2097,91,4.127,79,4.4947,-3.8954,-14.2031,-1.6738,-0.898,1.3066,92,4497.493,86956,0.6035,0.1925,-9.7916,0.6158,-0.2401,-0.7031,61
4.481,86,1.8992,-2.0062,-18.3846,0.1575,0.4803,-0.8281,91,4.178,80,4.8272,-2.965,-15.5596,-0.5863,0.0237,1.599,92,4497.544,86957,0.4612,0.1267,-9.8176,0.5239,-0.4307,-1.0411,61
4.533,87,-0.7804,-4.8199,-20.0984,0.7893,1.033,-1.1549,91,4.23,81,4.9927,-0.095,-18.2804,0.1815,0.6964,1.7393,92,4497.596,86958,-0.2579,3.1211,-9.0947,0.5018,-0.5115,-0.9725,61
4.585,88,-2.2274,-5.1058,-20.073,0.5487,1.1764,-0.2729,91,4.282,82,5.8185,2.3303,-21.2817,0.6903,1.1873,1.8459,92,4497.648,86959,-1.7108,2.247,-10.8609,0.4174,-0.8366,-0.9912,61
4.637,89,-2.5348,-4.5174,-20.0399,-0.2698,0.2582,0.4775,91,4.334,83,3.9127,1.9474,-23.4721,-0.0848,1.5456,1.8713,92,4497.7,86960,-3.9623,1.0691,-9.8748,0.5024,-0.7914,-0.6014,61
4.689,90,-2.0321,-3.0066,-17.7786,-0.2579,0.2372,1.0251,91,4.386,84,3.0913,3.9446,-24.576,0.6099,0.9004,0.8134,92,4497.751,86961,-4.8683,-0.312,-9.2392,0.5938,-1.2407,-1.042,61
4.74,91,-0.9294,-1.6601,-16.8763,-0.8653,0.7011,1.0654,91,4.438,85,2.0949,1.755,-23.0084,1.1168,0.0108,-0.0236,92,4497.803,86962,-6.9611,-2.0701,-6.909,0.8125,-1.5686,-1.4366,61
4.792,92,1.167,0.5015,-16.5028,-1.3089,1.1941,0.2101,91,4.489,86,5.8545,1.6063,-19.1054,1.4868,-0.2275,-0.5091,92,4497.855,86963,-7.9264,-3.4764,-6.2655,0.8766,-1.8079,-1.7245,61
4.844,93,2.6763,3.2187,-19.2496,-0.3574,1.554,-0.5218,91,4.541,87,7.4448,-1.4321,-16.0908,0.4051,0.4672,0.2938,92,4497.906,86964,-7.0156,-4.2602,-5.7589,0.8248,-1.9826,-1.9347,61
4.896,94,7.0096,-2.8486,-22.0457,-0.9382,0.7737,-0.0421,91,4.593,88,10.3524,-4.8444,-16.9345,0.874,-0.1867,-0.1286,92,4497.958,86965,-6.3194,-4.0401,-5.6843,0.6598,-2.1101,-2.0881,61
4.948,95,3.0606,-1.3116,-22.1285,-1.2831,1.1168,-0.7058,91,4.645,89,11.9932,-3.1465,-16.4401,1.0619,-0.8089,0.5716,92,4498.01,86966,-5.6803,-2.9081,-6.4634,0.535,-2.2031,-2.2,61
4.999,96,1.3115,-0.4348,-24.0577,-0.2621,0.1457,0.1565,91,4.697,90,7.1721,-3.2846,-17.2908,0.5518,-0.2147,0.8058,92,4498.062,86967,-6.007,-0.8418,-8.2192,0.534,-2.271,-2.2817,61
5.051,97,1.2601,1.327,-25.5549,0.4831,-0.563,-0.5609,91,4.748,91,4.3321,-4.0592,-20.5594,-0.2773,-0.8293,1.2535,92,4498.114,86968,-6.2077,-0.0215,-9.7199,0.6212,-2.3206,-1.9488,61
5.103,98,3.9984,2.7093,-22.7235,1.027,-1.0802,-1.0845,91,4.8,92,8.0807,-5.8466,-21.6397,-0.8824,-1.278,1.5802,92,4498.165,86969,-4.8204,-0.2268,-9.2271,0.6551,-2.3567,-1.8308,61
5.155,99,3.246,2.8125,-20.2809,0.1838,-1.1488,-0.1149,91,4.852,93,7.2413,-5.2367,-20.062,-1.324,-1.5798,1.4495,92,4498.217,86970,-3.3219,-0.3513,-8.8195,0.7208,-2.3831,-1.7951,61
5.207,100,2.2006,2.9289,-17.9548,0.0625,-0.8921,-0.0423,91,4.904,94,5.7366,-4.8664,-18.6691,-1.4651,-1.4016,1.1999,92,4498.269,86971,-2.2211,-0.4404,-8.5365,0.7791,-2.4024,-1.7684,61
5.258,101,2.0761,1.4541,-15.9693,0.2328,-0.432,-0.0402,91,4.956,95,4.293,-4.2567,-16.9071,-0.6532,-1.0352,0.7932,92,4498.321,86972,-1.2979,-0.5005,-8.3909,0.8313,-2.4165,-1.7471,61
5.31,102,1.6945,2.5447,-14.6773,0.3447,0.2537,0.1471,91,5.008,96,3.0205,-3.7861,-15.3907,-0.699,-0.462,0.6365,92,4498.372,86973,-0.3142,-0.6739,-9.5856,0.3835,-1.9446,-1.4854,61
5.362,103,3.3202,1.6613,-14.692,0.1946,0.8676,-0.2763,91,5.06,97,3.5384,-3.6676,-14.0519,-0.1571,0.0737,0.3892,92,4498.424,86974,-0.1837,-0.478,-9.6178,0.0588,-1.5989,-1.2942,61
5.414,104,4.1259,0.9248,-16.1942,-0.1779,1.3156,-0.0881,91,5.111,98,4.0577,-2.7919,-13.8379,0.009,0.7329,0.1559,92,4498.476,86975,-0.076,-0.3515,-9.6782,-0.1775,-1.3464,-1.154,61
5.466,105,6.8707,-1.666,-19.6118,0.5279,1.6426,0.4218,91,5.163,99,5.2948,-3.0316,-14.1559,0.5521,1.214,0.0124,92,4498.528,86976,0.342,-0.6186,-10.3094,-0.3628,-1.6458,-0.1665,61
5.517,106,9.5031,-6.185,-21.8597,1.0518,1.8813,-0.2835,91,5.215,100,7.6564,-4.1134,-15.8196,0.8574,1.5651,0.2565,92,4498.579,86977,5.608,-2.6865,-10.919,-0.2825,-1.5898,-0.7542,61
5.569,107,8.5338,-4.1907,-23.9507,0.1974,2.0555,-0.5287,91,5.267,101,9.5414,-2.297,-19.0443,0.9349,1.8213,-0.0756,92,4498.631,86978,7.0556,-0.7951,-14.2826,-0.712,-1.8234,-1.2265,61
5.621,108,5.6322,-5.0821,-25.4,-0.5333,1.9028,0.2908,91,5.319,102,10.0622,-2.2588,-21.8392,1.3541,2.0084,-0.7416,92,4498.683,86979,8.0071,-0.5744,-14.5423,-1.1702,-1.9939,-1.5712,61
5.673,109,4.5571,-3.781,-24.3754,-0.457,0.7194,-0.0021,91,5.371,103,8.6129,-1.9323,-22.5442,1.6521,1.4386,-1.0055,92,4498.735,86980,6.2228,-0.9726,-13.1205,-1.3736,-2.1183,-1.8228,61
5.724,110,5.6653,-0.7732,-22.719,-1.0109,-0.0825,-0.5127,91,5.422,104,7.5271,-4.036,-21.968,1.8775,0.3793,-1.022,92,4498.787,86981,4.1374,-0.687,-10.9304,-1.6529,-2.2091,-1.9269,61
5.776,111,9.0982,-0.4631,-20.8086,-1.4152,-0.1166,-0.8549,91,5.474,105,7.8853,-5.5294,-20.1076,1.7723,-0.3959,-0.1096,92,4498.838,86982,3.4016,-0.7988,-9.8857,-1.7469,-2.2754,-2.0818,61
5.828,112,8.674,0.9463,-16.6733,-0.4003,0.1915,-1.299,91,5.526,106,10.674,-5.55,-17.3014,0.6135,-0.9282,0.5854,92,4498.89,86983,2.5089,-1.3436,-9.5745,-1.8515,-2.3238,-2.1954,61
5.88,113,3.9795,6.0806,-9.5777,0.3822,-0.5295,-0.2714,91,5.578,107,12.7092,1.2762,-9.9795,-0.2323,-0.3363,0.0762,92,4498.942,86984,1.7102,-1.5331,-9.2167,-2.0292,-2.3591,-2.2781,61
5.932,114,-0.0482,-0.7598,-5.2283,0.6154,-1.0558,-0.8668,91,5.63,108,10.9063,1.6408,-13.1699,-0.1219,-0.5861,0.1078,92,4498.994,86985,0.8323,-1.0262,-8.8563,-2.1589,-2.3848,-2.2516,61
5.983,115,0.0945,-1.8638,-9.0532,0.2739,-1.4399,0.044,91,5.681,109,7.3933,2.2581,-16.3428,0.5218,-1.1005,0.1401,92,4499.045,86986,0.4885,-0.3652,-9.7986,-2.2531,-2.4037,-2.0571,61
6.035,116,-0.7854,-1.898,-13.5034,-0.2676,-1.7202,0.6174,91,5.733,110,5.2394,1.0311,-19.8675,-0.2992,-1.4758,0.5979,92,4499.097,86987,0.8458,0.3142,-10.3665,-2.3223,-2.4174,-1.7735,61
6.087,117,-1.3744,-2.1568,-15.5747,-0.5918,-1.9248,0.7528,91,5.785,111,4.1275,-0.1463,-22.1412,-0.8984,-1.7498,0.624,92,4499.149,86988,0.5303,0.1109,-9.3227,-2.3728,-2.4274,-1.6262,61
6.139,118,-1.254,-2.0582,-15.5317,-0.2786,-2.0742,1.0347,91,5.837,112,3.5183,-1.2667,-22.776,-1.3357,-1.9497,0.4109,92,4499.2,86989,0.3137,-0.0755,-8.5594,-2.4096,-2.4347,-1.5208,61
6.191,119,-0.8714,-1.758,-14.9668,-0.3628,-2.1832,1.3829,91,5.889,113,2.8907,-1.2596,-20.8062,-1.5147,-2.0957,0.0629,92,4499.252,86990,0.1522,-0.2863,-7.9612,-2.4365,-2.44,-1.4438,61
6.242,120,-0.3114,-1.8081,-14.2307,-0.9422,-1.672,1.0585,91,5.94,114,2.0109,-1.4758,-18.6652,-1.4083,-2.2022,-0.1178,92,4499.304,86991,-0.2615,-0.3352,-9.4129,-2.4327,-2.2975,-1.4638,61
6.294,121,-0.4103,-1.3032,-12.4269,-0.047,-0.7108,1.2988,91,5.992,115,2.6773,-1.2376,-15.2874,-1.0225,-1.9951,-0.2451,92,4499.356,86992,-0.3969,-0.3519,-9.0595,-2.4534,-2.2104,-1.6808,61
6.346,122,-0.4109,-0.1481,-11.8823,0.496,0.1637,0.2728,91,6.044,116,1.8896,-1.4412,-13.9589,-0.8627,-0.7905,0.1821,92,4499.407,86993,-0.4851,-0.3631,-8.8156,-2.4684,-2.1608,-1.9026,61
6.397,123,0.0806,-1.7899,-15.7332,-0.2425,0.8019,-0.476,91,6.096,117,1.9071,-0.9217,-14.0003,0.0421,0.1021,0.1603,92,4499.459,86994,-0.5455,-0.375,-8.6271,-2.4794,-2.1359,-2.0646,61
6.45,124,-0.3141,-2.2005,-16.7864,0.2936,1.2677,0.3292,91,6.148,118,1.7153,-0.776,-17.6683,0.094,0.7536,0.3664,92,4499.511,86995,-2.6837,3.8138,-6.9319,-2.4875,-1.9573,-1.7951,61
6.502,125,1.309,-3.9195,-19.6227,0.8887,1.6076,-0.4348,91,6.2,119,2.5527,-0.3035,-17.6222,0.7266,1.2291,0.4191,92,4499.563,86996,-0.5708,2.0391,-8.3918,-2.0673,-1.9799,-1.9855,61
6.553,126,1.0149,-5.9222,-20.2223,1.0955,1.8557,-0.5848,91,6.251,120,4.5751,-0.9243,-20.5139,1.0544,1.5761,0.9712,92,4499.614,86997,4.0778,1.2265,-12.0952,-2.0549,-1.8658,-2.0177,61
6.605,127,1.1991,-5.9344,-22.4571,0.1222,2.0368,0.151,91,6.303,121,4.0287,-0.3696,-22.9118,1.4413,1.8294,0.4344,92,4499.666,86998,6.9736,-0.5668,-14.0502,-2.1777,-2.0248,-2.1486,61
6.657,128,0.6053,-5.0451,-22.4807,-0.5882,2.169,0.4829,91,6.355,122,4.512,-1.5391,-24.6339,1.7236,2.0143,-0.3525,92,4499.718,86999,8.4995,-0.7459,-14.9596,-2.2672,-2.1409,-2.2442,61
6.709,129,0.8533,-4.9317,-21.8338,-0.6058,1.4721,0.6545,91,6.407,123,4.6322,-1.8888,-23.4957,1.9297,1.4193,-0.6432,92,4499.77,87000,7.7748,-1.3761,-14.6984,-2.3326,-2.2256,-2.314,61
6.76,130,2.0941,-3.0181,-20.8533,-1.0234,0.7816,0.3017,91,6.459,124,4.6101,-4.3488,-21.5979,1.8781,0.499,-0.4253,92,4499.822,87001,6.0376,-2.0461,-13.2683,-2.3803,-2.2874,-2.3649,61
6.812,131,3.4778,-3.4986,-21.9543,-1.4243,0.1713,-0.2935,91,6.51,125,5.4734,-5.1764,-20.3956,2.0424,-0.3081,0.2383,92,4499.873,87002,5.0711,-3.4662,-11.3758,-2.4151,-2.3326,-2.4021,61
6.864,132,3.4409,-1.5171,-22.7151,-1.5264,-0.4964,-0.7879,91,6.562,126,5.68,-6.2172,-19.0488,1.6207,-0.7822,0.8393,92,4499.925,87003,2.6901,-4.0983,-9.4134,-2.4405,-2.3655,-2.4292,61
6.916,133,5.8865,-1.9698,-24.5746,-1.7294,-1.0316,-1.2502,91,6.614,127,7.2155,-6.5006,-18.7562,0.8796,-1.2436,1.2779,92,4499.977,87004,0.9282,-3.5894,-8.499,-2.4591,-2.3895,-2.449,61
6.968,134,6.378,-6.5822,-21.4884,-1.9396,-0.9776,-0.6259,91,6.666,128,9.8358,-7.4728,-19.2948,0.8533,-1.5803,1.5981,92,4500.029,87005,0.2153,-3.3382,-8.0437,-2.4726,-2.4068,-2.4634,61
7.019,135,4.5411,-4.7326,-21.9091,-0.7828,-1.1964,-1.1319,91,6.718,129,12.0976,-1.1036,-11.4344,-0.0572,-1.629,1.8295,92,4500.08,87006,0.6879,-1.6511,-9.3919,-2.4825,-2.387,-2.474,61
7.071,136,3.0343,-2.8275,-21.8078,-0.4921,-1.3298,-0.3897,91,6.769,130,8.8547,-3.5676,-12.6811,-0.5353,-1.4837,1.9217,92,4500.132,87007,-0.1975,-1.1698,-9.0184,-2.4897,-2.4006,-2.4817,61
7.123,137,1.7684,-1.7801,-20.7793,-0.6691,-1.3431,-0.5549,91,6.821,131,6.4091,-3.298,-14.8012,-0.5803,-1.3759,1.7838,92,4500.184,87008,-0.6582,-1.1344,-8.4954,-2.495,-2.4152,-2.4873,61
7.175,138,0.8555,-0.7908,-19.6535,-0.3411,-1.492,-0.2998,91,6.873,132,4.188,-5.2663,-15.6561,-1.1035,-1.4669,1.8141,92,4500.236,87009,-0.9811,-1.1379,-8.1479,-2.4988,-2.4258,-2.4914,61
7.227,139,0.6275,0.1699,-18.6463,-0.5616,-1.6499,-0.4756,91,6.925,133,3.7103,-5.6621,-14.8744,-0.4144,-1.5742,1.7569,92,4500.288,87010,-1.144,-1.3048,-7.8986,-2.5016,-2.4335,-2.4944,61
7.278,140,0.4254,0.1472,-17.9848,-0.6266,-1.7042,-0.3245,91,6.977,134,1.5788,-4.6544,-14.8726,0.1504,-1.4339,1.3613,92,4500.339,87011,-0.8533,-1.0538,-9.6845,-1.5497,-1.6435,-1.4619,61
7.33,141,0.5192,-0.0272,-16.7872,-0.128,-1.5789,-0.6911,91,7.028,135,0.748,-4.1161,-14.2666,-0.1097,-1.3049,1.1821,92,4500.391,87012,-0.6044,-0.8151,-9.6932,-0.8569,-1.0662,-0.7087,61
7.382,142,0.8782,-0.519,-16.6319,0.3621,-0.67,-0.6381,91,7.08,136,0.6498,-3.8323,-13.4837,-0.0947,-0.8477,0.9075,92,4500.443,87013,-0.4253,-0.6218,-9.6891,-0.3504,-0.6464,-0.1587,61
7.434,143,0.4666,-0.422,-16.7543,0.9387,0.1934,-0.5508,91,7.132,137,0.3746,-3.0991,-13.8773,-0.1603,0.0455,0.2855,92,4500.494,87014,-0.299,-0.488,-9.6901,0.0208,-0.3414,0.2433,61
7.486,144,0.2021,-0.2586,-17.4552,1.3595,0.8236,-1.0771,91,7.184,138,0.3775,-3.1508,-14.2939,-0.423,0.7123,-0.3149,92,4500.546,87015,-0.2023,-0.4068,-9.6859,0.2929,-0.1204,0.5372,61
7.537,145,0.1649,-2.301,-18.1544,1.536,1.2835,-1.4612,91,7.236,139,0.5323,-3.3199,-15.4318,-0.7422,1.1989,-0.6444,92,4500.598,87016,-0.1311,-0.3421,-9.6897,0.4926,0.04,0.7522,61
7.589,146,1.5291,-5.2304,-18.9081,1.7954,1.0486,-1.6877,91,7.287,140,1.6139,-2.647,-16.7903,-0.6304,1.5541,-0.8455,92,4500.65,87017,-1.9362,-3.4506,-7.1884,-0.1558,0.1606,0.2929,61
7.641,147,2.9839,-4.0954,-19.4231,1.4872,1.2345,-1.9068,91,7.339,141,5.266,-2.5887,-19.1952,-0.9185,1.8133,-0.4478,92,4500.701,87018,-2.4603,-6.2993,-6.571,-0.7916,0.1169,-0.1948,61
7.693,148,2.2537,-4.0937,-19.9629,0.4081,1.5834,-0.7158,91,7.391,142,6.1187,-3.0962,-19.8809,-1.0514,2.0025,-0.1813,92,4500.753,87019,-2.3687,-7.1413,-6.9119,-1.2556,-0.133,-0.8125,61
7.745,149,2.2698,-3.871,-19.405,-0.3796,1.7266,0.1031,91,7.443,143,5.9491,-3.1909,-19.9395,-0.0956,1.7819,-0.4284,92,4500.805,87020,-1.8056,-6.5551,-7.7961,-1.5943,-0.3272,-1.2449,61
7.796,150,1.5518,-3.3473,-18.8363,-0.9544,1.9426,0.641,91,7.495,144,5.6271,-2.6307,-19.7287,0.602,1.1912,-0.7744,92,4500.857,87021,-1.4692,-6.1468,-8.3155,-1.8414,-0.3028,-1.3772,61
7.848,151,0.7903,-2.395,-17.9659,-1.3739,1.9458,0.817,91,7.546,145,4.5361,-2.4988,-19.5631,1.1111,0.3384,-0.8719,92,4500.908,87022,-1.1398,-5.9349,-8.0811,-2.0218,-0.3138,-1.3416,61
7.9,152,1.2356,-2.5032,-17.835,-1.6801,0.8698,1.2729,91,7.598,146,3.3543,-1.8065,-18.0191,1.2209,0.0075,-0.7316,92,4500.96,87023,-0.6235,-5.0062,-8.2617,-2.1535,-0.3631,-1.2518,61
7.952,153,2.3373,-6.8017,-17.2909,-0.5614,0.2224,1.0386,91,7.65,147,5.5018,-4.0305,-17.3804,0.211,-0.2558,0.1288,92,4501.012,87024,-0.7743,-3.9568,-8.6472,-2.2496,-0.2043,-1.181,61
8.004,154,5.9577,-5.3364,-16.799,0.2646,-0.507,0.0829,91,7.702,148,8.9082,-3.748,-15.1227,-0.5181,-0.5315,0.7594,92,4501.064,87025,-0.5772,-2.8448,-8.8077,-2.3197,-0.0836,-1.026,61
8.055,155,6.3291,-3.2107,-16.1279,0.8675,-0.43,-0.6146,91,7.754,149,10.7467,-3.6816,-13.04,-1.0582,-0.3331,0.827,92,4501.115,87026,0.963,-2.1856,-9.1984,-2.3709,-0.1411,-0.7231,61
8.107,156,7.2719,-3.9451,-15.4183,1.3075,-0.4396,-1.1237,91,7.806,150,11.4853,-2.9588,-12.4453,-1.1718,-0.0462,0.7172,92,4501.167,87027,-0.0165,-1.4423,-9.7073,-2.4083,-0.3445,-0.5425,61
8.159,157,7.2319,-3.3511,-13.535,1.3458,-0.3684,-0.9201,91,7.857,151,11.3354,-1.5708,-11.9984,-1.5046,0.322,0.5135,92,4501.219,87028,0.1509,-1.79,-9.6012,-2.4355,-0.3131,-0.4757,61
8.211,158,6.3204,-2.7032,-12.8521,0.3048,0.3979,-0.1165,91,7.909,152,10.244,-1.1152,-11.8466,-1.5915,0.8072,0.1879,92,4501.271,87029,0.1812,-1.241,-9.4943,-2.4554,-0.3088,-0.4222,61
8.263,159,4.8357,-3.1802,-13.3373,-0.4549,0.9728,0.5916,91,7.961,153,9.2953,-1.342,-12.2158,-1.1954,1.2682,-0.2004,92,4501.322,87030,0.619,-0.3017,-10.4547,-2.4167,-0.428,-0.3333,61
8.314,160,4.5265,-4.8522,-13.7022,-0.3869,1.0093,0.6384,91,8.013,154,8.1735,-1.7221,-13.6552,-0.2559,1.6047,-0.7256,92,4501.374,87031,5.8102,5.1109,-15.6559,-1.8987,-0.5253,-0.0583,61
8.366,161,5.2911,-4.4356,-13.4244,-0.1519,0.7349,0.6743,91,8.065,155,7.4231,-1.575,-14.5698,0.379,1.8502,-0.8594,92,4501.426,87032,3.5065,3.5087,-12.3272,-0.7119,0.3053,0.6331,61
8.418,162,5.4242,-4.2232,-13.568,-0.7883,0.9448,0.9845,91,8.117,156,8.2351,-0.798,-14.7872,-0.0191,1.6336,-0.7896,92,4501.478,87033,2.0418,2.3314,-10.1974,0.1543,0.9115,1.1378,61
8.47,163,5.0224,-5.732,-14.2645,-1.2454,1.245,1.0381,91,8.168,157,9.0134,-1.1611,-15.5257,-0.694,1.6173,-0.5278,92,4501.529,87034,0.9492,1.4793,-8.622,0.7865,1.3539,1.5061,61
8.522,164,4.4637,-6.21,-14.718,-1.1437,1.4704,0.8006,91,8.22,158,8.9476,-1.6849,-15.2729,-1.1865,0.6812,-0.367,92,4501.581,87035,-0.2951,0.8363,-6.136,1.2479,1.6768,1.6359,61
8.573,165,3.6969,-6.364,-15.7659,-1.5107,1.7556,0.7782,91,8.272,159,9.0697,-1.5005,-13.9947,-1.3073,0.027,-0.3273,92,4501.633,87036,-0.3721,0.5174,-5.5374,1.5847,1.9125,1.5821,61
8.625,166,1.6798,-7.744,-17.0155,-1.5867,1.9637,0.4339,91,8.324,160,9.4638,-1.5516,-12.3611,-1.5081,-0.3248,-0.2223,92,4501.685,87037,-0.4367,0.3016,-5.1068,1.8304,2.0845,1.5388,61
8.677,167,0.2121,-7.1627,-17.8338,-0.5893,1.5143,0.032,91,8.376,161,9.3629,-2.0109,-10.6149,-1.4484,-0.2346,-0.2699,92,4501.737,87038,-0.5097,0.1623,-4.7757,2.0098,2.21,1.5033,61
8.728,168,-0.2324,-5.8825,-18.8174,0.102,1.1076,-0.0587,91,8.427,162,8.9194,-1.546,-8.9016,-1.4776,-0.0008,-0.26,92,4501.788,87039,-0.5717,0.0887,-4.5268,2.1407,2.3016,1.4723,61
8.78,169,0.7844,-5.9481,-20.7582,0.5572,0.139,0.004,91,8.479,163,8.704,-1.4398,-7.2398,-1.5522,0.3752,-0.1825,92,4501.84,87040,-4.8167,-5.1931,-0.7405,2.0438,1.987,1.3926,61
8.832,170,4.1249,-5.9557,-22.2644,0.2855,-0.5679,0.2324,91,8.531,164,9.109,-1.4479,-6.7342,-0.672,0.9529,-0.1054,92,4501.892,87041,-3.5023,-3.8956,-1.5022,2.1656,2.1389,1.2478,61
8.884,171,8.0668,-6.0949,-23.0714,-0.3674,-1.0838,0.4656,91,8.583,165,9.1815,-2.0035,-6.8091,-0.5412,1.3426,0.484,92,4501.944,87042,-2.5987,-2.9212,-1.6263,2.2544,2.2497,1.1384,61
8.936,172,10.208,-7.9466,-21.9663,-0.9455,-1.4603,0.7003,91,8.635,166,9.9215,-2.6731,-7.6667,-0.4136,1.4183,0.9295,92,4501.995,87043,-1.942,-2.2114,-1.7307,2.3192,2.3306,1.054,61
8.987,173,9.9123,-7.2428,-17.7673,-0.9595,-1.6206,0.2454,91,8.686,167,9.7786,-3.018,-8.3717,-0.0389,0.7604,1.103,92,4502.047,87044,-1.4577,-1.6974,-1.8304,2.3666,2.3896,0.988,61
