right_hand_timestamp,right_hand_index,right_hand_accel_x,right_hand_accel_y,right_hand_accel_z,right_hand_gyro_x,right_hand_gyro_y,right_hand_gyro_z,right_hand_battery_percentage,left_hand_timestamp,left_hand_index,left_hand_accel_x,left_hand_accel_y,left_hand_accel_z,left_hand_gyro_x,left_hand_gyro_y,left_hand_gyro_z,left_hand_battery_percentage,ball_timestamp,ball_index,ball_accel_x,ball_accel_y,ball_accel_z,ball_gyro_x,ball_gyro_y,ball_gyro_z,ball_battery_percentage
0.943,18,-1.754,-0.0491,-10.2025,1.2253,-0.8763,-0.0509,93,0.42,8,-4.1393,7.4947,-13.0565,0.5733,-0.3377,-1.2287,91,5219.887,100922,0.7986,-8.4328,-2.6559,1.6087,1.5013,1.8712,60
0.995,19,-0.6612,1.0723,-11.3345,0.8567,-1.3089,-0.4823,93,0.472,9,-3.3848,5.8298,-11.8175,0.3376,-0.1463,-0.9747,91,5219.939,100923,-0.6721,-7.4022,-2.8669,1.8223,1.512,1.9434,60
1.046,20,1.6936,-1.686,-10.4748,0.4046,-1.6246,-1.0271,93,0.524,10,-2.6585,5.5875,-11.9861,0.7674,0.1322,-0.4655,91,5219.99,100924,-0.869,-5.5269,-4.5641,1.8315,1.3281,1.5361,60
1.098,21,6.2927,-6.4282,-11.9799,0.9544,-1.855,-1.4248,93,0.575,11,-1.3961,4.8139,-11.1188,-0.0437,0.4333,0.0699,91,5220.042,100925,-0.7127,-5.003,-5.5904,1.7325,1.1517,1.1734,60
1.15,22,9.6493,0.6983,-6.1523,0.3571,-1.2584,-0.987,93,0.627,12,0.6182,3.1686,-9.3656,-0.7119,0.7306,0.7164,91,5220.094,100926,-0.9721,-4.1274,-6.7078,1.2371,0.8238,0.7507,60
1.202,23,11.2622,-4.6881,-4.1021,-0.4167,-0.236,-0.2375,93,0.679,13,1.9107,4.3461,-9.4495,-1.1343,1.0747,1.1882,91,5220.146,100927,0.4895,-3.4134,-7.745,0.5978,0.3768,0.39,60
1.254,24,7.1375,-1.3708,-1.6984,0.1803,0.5101,-0.2141,93,0.731,14,6.3139,8.4989,-10.393,-1.5079,0.758,1.5326,91,5220.197,100928,1.5161,-3.0326,-9.079,-0.2227,-0.035,0.0565,60
1.305,25,5.8773,-2.253,-0.8059,-0.3463,0.4183,0.134,93,0.783,15,8.7864,2.6388,-12.8419,-1.3254,-0.1195,1.7839,91,5220.249,100929,2.6737,-0.4515,-11.7081,-0.8404,-0.231,0.1754,60
1.357,26,5.3715,-2.4201,-0.2765,-0.6749,0.9744,0.3422,93,0.835,16,7.5676,7.2528,-13.7522,-0.2956,0.5919,0.6156,91,5220.301,100930,2.0878,0.212,-11.0531,-1.2893,0.1787,0.0018,60
1.409,27,5.2057,-4.2128,-0.8309,-1.17,1.3936,0.8476,93,0.886,17,3.4052,7.6817,-13.7189,-0.8676,0.7428,0.9183,91,5220.353,100931,1.4917,0.1309,-10.2428,-1.6188,0.7674,-0.1292,60
1.461,28,3.0549,-6.0645,-1.2058,-1.5302,1.6995,1.2952,93,0.938,18,3.9869,9.0148,-13.5725,-0.0,-0.1085,0.795,91,5220.404,100932,1.0265,0.0172,-9.6243,-1.8594,1.194,-0.2226,60
1.513,29,0.8485,-7.2278,-1.7127,-1.767,1.8708,1.622,93,0.99,19,4.0345,9.3212,-13.4145,0.294,0.3263,-0.1014,91,5220.456,100933,1.5301,-0.9859,-11.2961,-0.7127,0.2771,-0.0907,60
1.564,30,0.7273,-7.9725,-3.1675,-1.6399,1.4958,1.8604,93,1.042,20,3.4456,10.3013,-13.9981,0.8863,0.171,-0.7604,91,5220.508,100934,1.174,-0.709,-10.6021,0.1537,-0.3942,-0.0151,60
1.616,31,1.7599,-8.8266,-5.6379,-1.8743,0.8987,1.9974,93,1.094,21,2.2138,11.7425,-14.3074,1.3186,0.014,-1.2413,91,5220.56,100935,0.9114,-0.4815,-10.0157,0.7861,-0.8844,0.0405,60
1.668,32,3.4171,-5.9152,-6.965,-1.991,0.2574,1.9117,93,1.145,22,1.5788,12.7913,-15.7898,1.6341,-0.6609,-1.5924,91,5220.612,100936,0.7135,-0.3219,-9.6108,1.2476,-1.2427,0.0814,60
1.72,33,6.7957,-2.759,-2.4923,-0.9538,-0.4084,1.4653,93,1.197,23,1.9962,11.9132,-16.5322,1.8644,-1.155,-1.8455,91,5220.663,100937,0.5572,-0.1941,-9.3057,1.5844,-1.5054,0.112,60
1.771,34,5.6255,-5.7847,-3.3435,-0.9993,-0.628,0.7592,93,1.249,24,4.033,9.3272,-16.7322,1.3772,-1.5157,-1.3934,91,5220.715,100938,0.4395,-0.1127,-9.0782,1.8303,-1.6976,0.1352,60
1.823,35,6.2618,-5.5137,-4.3669,-1.4067,-0.4664,0.0572,93,1.301,25,4.4728,8.2183,-15.718,1.2205,-1.297,-1.0792,91,5220.767,100939,0.3617,-0.0501,-8.9212,2.0097,-1.839,0.1523,60
1.875,36,4.9823,-6.959,-5.2469,-1.5567,-0.6419,-0.6188,93,1.353,26,8.1838,8.5261,-8.8238,0.2107,-0.3947,-0.3116,91,5220.819,100940,0.3182,0.0078,-8.8057,2.1406,-1.9433,0.1651,60
1.927,37,3.7694,-8.0197,-5.7201,-1.5305,-0.3041,-1.1268,93,1.405,27,7.0168,8.9158,-10.2204,0.5604,-0.848,0.0362,91,5220.87,100941,0.294,0.0641,-8.6971,2.2362,-2.0196,0.1745,60
1.979,38,3.1917,-10.3535,-5.3491,-1.2585,-0.4315,-1.4975,93,1.456,28,7.2748,6.4731,-11.5767,0.7773,-0.4443,0.5002,91,5220.922,100942,0.8519,-1.5892,-7.5404,2.3028,-2.0361,0.162,60
2.03,39,1.6728,-12.7541,-5.4853,-1.3235,-0.0368,-1.6387,93,1.508,29,4.5864,7.3326,-13.1554,1.1705,0.3548,0.8427,91,5220.974,100943,4.6917,0.3187,-11.0549,1.7845,-2.0063,0.34,60
2.082,40,1.5524,-14.5062,-5.7838,-0.6523,0.3466,-1.0343,93,1.56,30,2.237,10.1266,-15.0515,1.4636,0.8097,1.2804,91,5221.025,100944,4.7235,1.8608,-10.9801,1.3687,-2.0772,0.462,60
2.134,41,1.5029,-15.1808,-5.6469,0.1975,0.5488,-0.0782,93,1.612,31,1.3596,11.0331,-16.355,0.3882,0.6516,1.5999,91,5221.077,100945,5.9015,2.3567,-8.4337,1.1985,-2.1307,0.5472,60
2.186,42,1.2474,-14.7008,-5.504,0.8185,0.9651,0.6195,93,1.664,32,0.3762,11.6801,-17.2142,-0.226,0.0918,1.833,91,5221.129,100946,7.0318,3.0657,-6.3527,1.1344,-2.2182,0.3682,60
2.238,43,0.8697,-13.2131,-5.2619,1.2718,1.3863,1.1288,93,1.716,33,0.1408,12.1007,-17.3462,-0.313,-0.1612,1.4707,91,5221.181,100947,8.8249,3.9102,-4.2074,0.9899,-2.282,0.2519,60
2.289,44,0.0257,-11.3871,-5.527,1.6026,1.6942,1.5005,93,1.767,34,0.8381,13.1865,-16.947,-0.3377,-0.7167,0.4886,91,5221.233,100948,9.2495,5.2807,-2.5596,0.9691,-2.3286,0.0401,60
2.341,45,-0.8182,-9.0751,-6.0932,1.8346,1.805,1.7718,93,1.819,35,0.8905,12.3751,-17.2896,-0.2345,-1.1741,-0.3298,91,5221.284,100949,9.1786,5.1504,-1.6122,0.9186,-1.9034,-0.4249,60
2.393,46,-1.6136,-7.7442,-7.7298,1.9409,1.6828,1.6619,93,1.871,36,0.0725,11.8363,-16.9443,0.0384,-1.3317,-0.9271,91,5221.336,100950,9.0087,5.6596,-0.6348,0.4667,-0.7265,-0.986,60
2.445,47,-1.4283,-4.3476,-8.3502,2.091,1.2322,1.3478,93,1.923,37,0.2058,10.8048,-16.9176,0.4048,-1.6446,-1.363,91,5221.388,100951,8.9455,6.7404,0.3306,-0.1579,0.1585,-1.3957,60
2.496,48,-1.4091,-2.8281,-9.1474,2.144,0.6221,0.9483,93,1.975,38,-0.4336,10.1757,-15.6422,0.4013,-1.4875,-1.6811,91,5221.44,100952,8.1697,7.7462,1.028,-0.7931,0.8043,-1.6947,60
2.548,49,-1.0563,-0.8514,-9.7166,1.9381,-0.2003,0.5794,93,2.026,39,-1.0222,7.6281,-14.7418,0.925,-1.1594,-1.7234,91,5221.491,100953,7.1928,7.7411,1.0112,-1.2567,1.2757,-1.9129,60
2.6,50,-1.1825,0.7774,-11.1988,1.2878,-0.8155,-0.1121,93,2.078,40,-0.5345,6.9052,-14.825,0.5089,-1.165,-1.372,91,5221.543,100954,5.9396,6.8903,-0.1069,-1.5951,1.6197,-1.9686,60
2.652,51,1.2995,-1.6916,-10.0331,0.9026,-1.2645,-0.7569,93,2.13,41,-0.3991,4.2573,-14.3302,-0.3086,-0.9948,-0.8303,91,5221.595,100955,4.4052,6.2161,-2.3144,-1.6619,1.8708,-1.8939,60
2.704,52,5.3184,-4.6564,-9.0214,1.3331,-1.5923,-0.7897,93,2.182,42,0.5321,1.5129,-10.6928,-0.9053,-0.5329,0.0594,91,5221.647,100956,3.0892,4.6493,-3.2796,-1.4053,2.0541,-1.542,60
2.756,53,8.9382,1.9915,-3.9931,1.6473,-1.5207,-0.4326,93,2.234,43,2.5393,4.3117,-10.5432,-0.4475,0.1866,0.7087,91,5221.698,100957,2.326,2.9944,-4.507,-1.0665,2.1878,-1.0734,60
2.807,54,9.135,2.4438,-2.7417,0.5249,-0.5084,-0.099,93,2.285,44,3.3469,5.3519,-9.7943,-0.5067,0.8153,1.1826,91,5221.75,100958,2.3491,2.1674,-5.3383,-1.095,2.2854,-1.072,60
2.859,55,6.933,0.6089,-2.178,-0.2934,0.3114,-0.2388,93,2.337,45,4.012,9.2329,-9.8449,-1.0498,0.7432,1.5285,91,5221.802,100959,3.7728,1.5172,-7.0637,-1.2056,2.2983,-1.2386,60
2.911,56,6.7239,0.2516,-0.9373,-0.8915,0.6351,-0.1916,93,2.389,46,7.8475,4.2111,-10.0514,-0.7093,0.8836,1.7809,91,5221.854,100960,7.7972,1.0773,-8.894,-0.9662,1.9195,-1.5787,60
2.963,57,7.4193,-1.2053,-1.0244,-1.328,1.1459,0.2509,93,2.441,47,5.9697,1.7743,-10.7181,0.154,0.3661,0.6134,91,5221.905,100961,5.5994,2.1154,-8.4205,-0.975,2.0608,-1.8282,60
3.015,58,6.0322,-3.5316,-1.6612,-1.6466,1.5188,0.8598,93,2.493,48,9.2764,6.6218,-12.5085,0.7842,0.8079,-0.2387,91,5221.957,100962,3.9416,1.981,-8.5303,-0.9712,2.1927,-2.0104,60
3.066,59,2.7343,-6.1745,-2.5647,-1.3684,1.7909,1.3041,93,2.544,49,6.02,6.9906,-12.9322,0.2666,0.5995,-0.5285,91,5222.009,100963,2.6909,1.8312,-8.6196,-0.9922,2.289,-2.1433,60
3.118,60,-0.2822,-7.3529,-2.8572,-1.0991,1.8449,1.6285,93,2.596,50,7.2359,7.5033,-14.0637,0.8518,-0.0376,-1.0721,91,5222.061,100964,0.2657,-0.057,-8.7714,-0.6282,1.4058,-0.9007,60
3.17,61,-1.5628,-6.6293,-3.4021,-1.0872,1.5777,1.8651,93,2.648,51,5.1694,9.1859,-14.1481,1.0978,0.0421,-1.4689,91,5222.113,100965,0.1993,0.0522,-9.0368,-0.3044,0.7198,0.0183,60
3.222,62,-1.3949,-4.4932,-4.9481,-1.4708,1.0155,1.4691,93,2.7,52,2.844,10.3124,-14.4225,1.265,-0.5974,-1.7584,91,5222.164,100966,0.1301,0.1452,-9.1864,-0.0724,0.2181,0.6891,60
3.274,63,4.0386,-1.2462,-3.1198,-1.7509,0.1306,1.159,93,2.752,53,0.7124,10.5105,-15.0037,1.0538,-0.9969,-1.9697,91,5222.216,100967,0.0874,0.2058,-9.3124,0.0921,-0.148,1.1786,60
3.325,64,3.7593,-3.8003,-4.9202,-0.6035,-0.2335,0.4157,93,2.804,54,-0.4643,9.3164,-15.6881,1.4408,-1.3261,-1.8075,91,5222.268,100968,0.064,0.2576,-9.4149,0.2077,-0.4157,1.5359,60
3.377,65,5.5805,-2.7205,-6.778,-1.0994,-0.1296,0.4985,93,2.855,55,0.0022,8.3751,-15.6182,1.0388,-1.6405,-1.002,91,5222.32,100969,0.0406,0.2986,-9.4965,0.2873,-0.6119,1.7967,60
3.429,66,9.1295,-4.8978,-8.4712,-1.0197,-0.6041,0.3531,93,2.907,56,2.8081,7.1472,-15.293,0.2121,-1.5048,-0.4319,91,5222.372,100970,0.0174,0.3394,-9.5418,0.3409,-0.7548,1.987,60
3.481,67,6.4712,-7.5493,-7.6173,-0.4813,-0.8372,-0.4154,93,2.959,57,6.967,-0.0445,-8.5137,-0.5253,-1.7709,0.3502,91,5222.423,100971,-0.0034,0.3845,-9.5666,0.3741,-0.8596,2.1259,60
3.533,68,5.0133,-10.4097,-5.9781,-0.5381,-1.0879,-0.9783,93,3.011,58,7.1909,2.7646,-8.6321,0.2884,-1.1084,0.5182,91,5222.475,100972,-5.234,-4.9772,-10.9059,-0.0017,-0.7658,2.2272,60
3.584,69,3.7,-11.0234,-5.5089,-0.7521,-1.0377,-1.3891,93,3.063,59,8.9932,5.4854,-12.8299,0.8822,-0.5434,0.4081,91,5222.527,100973,-1.528,-2.264,-8.5065,-0.6791,-0.494,2.3012,60
3.636,70,3.3684,-13.0846,-4.767,-1.0166,-1.0729,-1.5649,93,3.114,60,7.4679,7.4091,-14.9682,0.9581,0.1932,0.9298,91,5222.578,100974,-1.0492,0.0576,-5.1973,-0.5627,-0.5819,1.5681,60
3.688,71,1.8465,-12.9194,-4.6454,-0.8952,-0.3531,-1.2348,93,3.166,61,6.3006,10.7344,-17.074,1.1225,0.7997,1.344,91,5222.63,100975,1.6128,1.0578,-2.2523,-0.0798,-0.2101,1.0561,60
3.74,72,1.4474,-13.0,-4.2185,-0.4094,-0.07,-0.5339,93,3.218,62,2.7874,11.599,-18.6497,1.0373,1.2628,1.5177,91,5222.682,100976,-0.2671,3.1137,-1.6206,-0.1619,-0.8164,1.2753,60
3.791,73,1.8066,-12.9933,-4.6317,0.2619,0.1934,0.287,93,3.27,63,2.6425,13.4662,-17.3501,1.0572,1.0671,1.4105,91,5222.734,100977,-3.5932,5.2976,-1.615,-0.3105,-1.2589,1.6,60
3.843,74,2.4817,-13.7732,-5.5373,0.8589,0.5993,0.8861,93,3.322,64,0.9398,13.0765,-17.4677,0.2914,0.7501,1.051,91,5222.785,100978,-6.2868,6.9741,-1.5946,-0.4309,-1.5819,1.8431,60
3.895,75,2.2449,-13.1412,-5.5029,1.3013,1.1128,1.3234,93,3.373,65,0.3305,12.6304,-17.0544,-0.4674,-0.0747,0.5039,91,5222.837,100979,-9.0346,8.7134,-1.574,-0.7083,-1.8175,1.7214,60
3.947,76,1.2448,-11.4601,-5.1927,1.6241,1.4888,1.6425,93,3.426,66,0.1535,11.607,-17.7388,-1.0211,-0.7272,-0.2123,91,5222.889,100980,-11.5289,10.0482,-1.9898,-0.6809,-1.6065,1.4337,60
3.999,77,-0.0404,-9.4007,-5.8081,1.8597,1.769,1.8754,93,3.477,67,1.732,10.6591,-15.8997,-1.3626,-1.2034,-0.8187,91,5222.941,100981,-12.3833,10.3852,-2.3832,-0.4414,-0.9111,0.8857,60
4.051,78,-0.9892,-7.3118,-6.322,1.8633,1.8002,2.0441,93,3.529,68,2.1071,9.411,-16.1127,-0.4172,-1.1398,-1.2839,91,5222.992,100982,-11.8442,10.6349,-2.28,-0.0445,0.0093,0.4981,60
4.102,79,-1.5369,-5.1785,-7.0161,1.4315,1.4949,1.8564,93,3.581,69,-0.6844,9.8459,-15.9304,-0.7998,-0.7577,-1.6234,91,5223.044,100983,-10.9274,11.1025,-1.8165,0.6388,0.6955,0.248,60
4.154,80,-1.6215,-3.3262,-7.8929,1.263,1.0767,1.4762,93,3.633,70,-0.1953,7.342,-14.3456,-1.0459,-1.2256,-1.6331,91,5223.096,100984,-9.9071,11.1149,-1.5402,1.1401,1.1963,-0.2173,60
4.206,81,-1.8011,-1.7727,-9.2013,1.1243,0.5014,0.8146,93,3.685,71,-1.2853,7.1094,-13.9375,-1.0812,-0.3274,-1.8783,91,5223.148,100985,-8.2268,9.8116,-2.3734,1.506,1.5617,-0.4374,60
4.258,82,-1.4481,-1.4835,-9.5617,0.7618,-0.3034,0.0494,93,3.736,72,-1.0662,6.4253,-12.9422,-1.0014,-0.5633,-1.727,91,5223.199,100986,-6.9776,8.1242,-3.8466,1.773,1.8285,-0.4485,60
4.31,83,-0.3524,-2.108,-8.3102,0.3711,-0.8907,-0.6391,93,3.788,73,-0.9119,4.1524,-11.8308,-0.821,-0.1508,-1.003,91,5223.251,100987,-5.0635,5.579,-5.5228,1.9352,2.0094,-0.2744,60
4.361,84,0.377,-2.3964,-5.0198,0.9275,-1.3194,-0.9777,93,3.84,74,-0.5123,4.8164,-11.8138,-0.9869,0.5611,-0.1591,91,5223.303,100988,-3.82,3.8083,-6.6992,1.8092,1.9539,-0.2074,60
4.413,85,5.3318,-4.5063,-1.8154,1.3513,-1.6323,-0.7597,93,3.892,75,0.4778,5.0092,-9.806,-0.8724,0.7385,0.5493,91,5223.354,100989,-2.9946,2.1997,-7.7499,1.4589,1.8618,-0.212,60
4.465,86,7.9195,-0.7059,0.6952,0.5529,-0.8073,-0.5131,93,3.944,76,1.854,6.2206,-8.9615,-1.0053,0.8797,1.0663,91,5223.406,100990,-1.814,1.466,-8.5403,1.0458,1.8007,-0.1764,60
4.517,87,6.1911,-0.5901,1.2607,-0.2738,0.0291,-0.6126,93,3.995,77,3.4064,9.8669,-11.8375,-1.4137,0.8191,1.4436,91,5223.458,100991,0.0094,1.4924,-7.6083,0.852,1.6791,-0.116,60
4.568,88,5.5396,-0.6432,0.9706,-0.6713,0.6481,-0.6344,93,4.047,78,6.6708,7.7979,-11.7214,-1.7118,-0.0748,1.719,91,5223.51,100992,0.2672,-0.1815,-6.8505,0.9418,1.5105,-0.1135,60
4.62,89,5.2217,-1.1395,0.6388,-1.1643,1.1549,-0.5036,93,4.099,79,7.3517,7.0095,-11.5407,-0.5776,0.5155,0.6538,91,5223.562,100993,0.269,0.4058,-5.4237,0.721,1.6869,0.0415,60
4.672,90,4.2531,-1.7962,-0.0556,-1.523,1.5253,-0.2683,93,4.151,80,6.6058,8.5307,-11.0164,0.2502,0.6456,-0.1553,91,5223.613,100994,0.1876,0.3195,-6.5556,0.978,1.7245,0.1734,60
4.724,91,3.0062,-2.5308,-0.6276,-1.631,1.69,0.0343,93,4.203,81,5.9901,8.5947,-10.7677,0.5375,0.5736,-0.2933,91,5223.665,100995,0.1669,0.2697,-7.396,1.1673,1.7483,0.269,60
4.776,92,1.0557,-3.1366,-1.383,-1.8677,1.5302,0.2609,93,4.255,82,6.045,8.4045,-10.6395,1.0502,0.3398,-0.6213,91,5223.717,100996,0.1673,0.2565,-8.0535,1.3065,1.7611,0.3368,60
4.827,93,0.8593,-3.4556,-3.2465,-2.0405,0.9849,0.386,93,4.306,83,5.7275,7.9681,-11.0471,1.4382,0.2577,-1.1316,91,5223.769,100997,0.143,-0.5829,-3.4948,0.8554,1.2848,0.6516,60
4.879,94,2.0655,-5.5552,-5.6995,-2.1579,0.3777,0.4792,93,4.358,84,4.8116,8.3408,-11.9991,1.7214,0.0967,-1.5122,91,5223.82,100998,0.1345,-0.4155,-5.2294,0.5696,0.9366,0.8777,60
4.931,95,4.2614,-9.2521,-5.8902,-1.1801,-0.2708,0.405,93,4.41,85,3.5516,9.1242,-13.5712,1.9281,-0.1808,-1.7901,91,5223.872,100999,0.1493,-0.2787,-6.5205,0.3615,0.6819,1.0419,60
4.983,96,2.8279,-6.1738,-5.3167,-1.4759,0.0933,0.3668,93,4.462,86,3.8899,8.923,-15.767,2.0789,-0.8046,-1.9879,91,5223.924,101000,0.166,-0.1701,-7.4542,0.2103,0.4953,1.1617,60
5.034,97,2.8678,-6.9771,-4.5451,-0.672,0.2867,0.2062,93,4.514,87,4.1595,8.0663,-17.1817,1.8471,-1.2599,-1.9841,91,5223.976,101001,0.172,-0.0944,-8.1605,0.0994,0.3601,1.2483,60
5.086,98,0.6336,-10.0443,-4.2274,-0.6309,0.3095,0.3916,93,4.565,88,7.9552,8.8716,-10.4384,0.6681,-0.5851,-0.8571,91,5224.027,101002,0.1846,-0.0409,-8.6593,0.0188,0.2617,1.311,60
5.138,99,0.2471,-11.2598,-4.1147,-0.1718,0.5148,0.9435,93,4.617,89,5.7061,8.6606,-15.5582,1.1593,-0.913,-1.2988,91,5224.079,101003,0.1989,-0.001,-9.0274,-0.0406,0.1901,1.3563,60
5.19,100,-0.0758,-10.8566,-4.2977,0.3325,0.8307,1.3653,93,4.669,90,3.4129,7.7413,-16.9638,0.436,-0.4888,-1.016,91,5224.131,101004,0.9895,-0.5768,-14.0374,-0.0055,0.1501,1.3926,60
5.242,101,-0.7812,-9.8785,-4.9253,0.7772,1.1399,1.6731,93,4.721,91,0.2533,9.9498,-17.0447,-0.0774,-0.3885,-0.9819,91,5224.183,101005,2.0893,2.5995,-14.7897,-0.1035,0.0609,1.1302,60
5.293,102,-1.7466,-8.8325,-5.8625,1.0979,1.2434,1.8977,93,4.773,92,0.1209,10.4205,-17.097,-0.6074,-0.9562,-1.1194,91,5224.234,101006,2.5225,2.371,-16.9097,-0.1239,0.0623,0.8382,60
5.345,103,-2.5259,-6.9259,-6.3097,1.4757,1.2591,1.9548,93,4.824,93,-0.3982,9.8429,-16.5238,-0.7621,-1.0915,-1.5034,91,5224.286,101007,2.2651,1.986,-19.8448,-0.2044,0.0432,0.6243,60
5.397,104,-3.5707,-5.0447,-6.4051,1.3102,1.1054,1.8187,93,4.876,94,-1.0249,8.6294,-16.5133,-0.662,-1.3356,-1.7836,91,5224.338,101008,2.3605,3.2806,-22.0736,0.1359,-0.0585,0.5121,60
5.449,105,-3.7137,-3.7066,-7.0432,1.1751,0.6907,1.5432,93,4.928,95,-1.9669,7.3154,-15.3512,-0.5518,-1.2742,-1.9868,91,5224.39,101009,2.4766,4.3446,-21.9703,0.773,-0.2506,0.49,60
5.501,106,-3.361,-2.219,-7.2359,1.2684,0.2624,1.1503,93,4.98,96,-2.1792,6.4819,-13.6874,-0.5617,-1.397,-1.7422,91,5224.441,101010,1.9073,4.0228,-20.4575,1.2381,-0.4256,0.4548,60
5.553,107,-3.3466,-1.1204,-7.5898,1.1247,-0.4359,0.5431,93,5.032,97,-2.9604,6.095,-12.9883,-0.3717,-0.8947,-1.5161,91,5224.493,101011,0.7426,2.0144,-18.3705,1.5775,-0.4069,0.4488,60
5.604,108,-2.8778,-0.2321,-7.429,0.8815,-0.9875,-0.252,93,5.083,98,-3.475,5.5236,-12.1175,-0.7005,-0.7751,-0.9886,91,5224.545,101012,0.1189,0.5994,-16.656,1.8252,-0.2828,0.3651,60
5.656,109,-1.2926,-1.3742,-6.7699,0.2251,-1.39,-0.859,93,5.135,99,-3.2196,4.6478,-11.4004,-0.5561,-0.6139,-0.344,91,5224.597,101013,0.4694,-0.6375,-15.27,2.0002,-0.2989,0.3596,60
5.708,110,-0.5594,-3.9483,-4.1482,0.1017,-1.6838,-1.3021,93,5.187,100,-2.6669,3.9296,-11.8539,-0.6804,-0.727,0.4143,91,5224.648,101014,0.4745,-1.7436,-14.2519,1.9601,-0.3724,0.4137,60
5.76,111,3.8864,-2.4428,-0.4364,0.2833,-1.8983,-1.281,93,5.239,101,-1.6165,3.9209,-10.85,-1.1766,-0.4808,0.9677,91,5224.7,101015,-0.287,-3.2289,-13.4335,1.6268,-0.2527,0.4463,60
5.811,112,4.4546,-2.8083,1.9035,-0.462,-1.2806,-1.495,93,5.291,102,0.53,4.8699,-9.0551,-1.4843,-0.7823,1.3717,91,5224.752,101016,0.2497,-2.768,-12.385,1.2096,-0.1718,0.4619,60
5.863,113,3.5085,-4.1168,2.0432,-0.8222,-0.4903,-1.3663,93,5.343,103,2.7515,8.8811,-7.3979,-1.731,-0.6531,1.6665,91,5224.804,101017,0.7829,-1.8431,-11.7238,0.8102,-0.2797,0.2997,60
5.915,114,3.255,-4.3457,1.2729,-0.6111,-0.021,-1.07,93,5.394,104,5.7879,8.6718,-8.9959,-1.9434,-1.1493,1.8817,91,5224.855,101018,0.1638,-1.461,-9.8648,0.502,-0.5585,-0.007,60
5.967,115,3.4318,-4.3453,0.3488,-0.5121,0.3149,-0.7162,93,5.446,105,7.9019,7.0911,-9.3562,-0.7466,-0.2459,0.6953,91,5224.907,101019,0.6725,2.3355,-9.2062,0.0667,-0.571,-0.1395,60
6.019,116,3.6578,-3.5635,-0.1698,-0.7251,0.5145,-0.4713,93,5.498,106,5.8084,10.5023,-8.7871,0.1268,0.4996,-0.1789,91,5224.959,101020,0.4939,1.6533,-9.4298,0.2065,-0.455,0.0236,60
6.07,117,4.3994,-3.2468,-0.7397,-1.1217,0.6343,-0.3734,93,5.55,107,5.9769,9.2642,-9.0608,-0.1612,-0.2331,0.0935,91,5225.011,101021,0.4035,1.1417,-9.6103,0.3105,-0.3724,0.1438,60
6.122,118,4.8255,-2.6647,-1.9628,-1.4961,0.7639,-0.2113,93,5.602,108,6.441,7.9052,-10.1252,0.3562,0.0245,-0.4292,91,5225.063,101022,0.3086,0.7269,-9.7726,0.3881,-0.315,0.2349,60
6.174,119,5.3179,-7.1425,-8.8645,-1.7693,1.2148,-0.1251,93,5.653,109,5.6699,7.121,-10.6805,0.9317,-0.0954,-0.9224,91,5225.114,101023,-5.0063,-0.8027,-15.003,0.5607,-0.3223,0.621,60
6.225,120,4.5413,-7.5742,-9.9336,-0.8786,1.117,0.144,93,5.705,110,6.035,7.5033,-11.6606,1.3517,-0.5613,-1.2015,91,5225.166,101024,-3.6615,-0.556,-13.5741,0.5773,-0.4394,0.8473,60
6.277,121,3.075,-9.9248,-11.2843,-1.2913,0.9932,0.2365,93,5.757,111,5.7872,6.2887,-13.5668,1.3997,-1.0823,-1.2056,91,5225.218,101025,-2.6655,-0.3831,-12.5637,0.5894,-0.5272,1.0131,60
6.329,122,2.0417,-11.2578,-10.4297,-1.2834,0.7652,0.5024,93,5.809,112,5.5483,5.5622,-15.1179,1.6933,-1.4626,-1.0972,91,5225.27,101026,-1.9339,-0.2609,-11.8253,0.5964,-0.5926,1.1345,60
6.381,123,0.5567,-11.9385,-9.6515,-0.9023,0.7047,0.9576,93,5.861,113,8.9688,9.3864,-8.3859,1.9076,-1.7401,-1.2364,91,5225.321,101027,-1.4028,-0.1672,-11.288,0.6023,-0.6426,1.2243,60
6.433,124,-0.2228,-12.5421,-9.0619,-0.3306,0.6593,1.3755,93,5.912,114,4.7368,8.3953,-9.8964,1.7571,-1.4136,-0.9343,91,5225.373,101028,-0.207,0.7523,-9.4506,0.4071,-0.7736,1.529,60
6.484,125,-1.0768,-12.0893,-8.4657,0.3252,0.7587,1.6805,93,5.964,115,3.2527,8.5271,-12.5795,0.9144,-1.08,-0.74,91,5225.425,101029,-0.1517,0.6266,-9.6329,0.2226,-0.8546,1.7917,60
6.536,126,-1.82,-10.6101,-7.598,0.7573,0.886,1.9032,93,6.016,116,2.2636,9.5438,-13.7518,0.0225,-1.1499,-0.7263,91,5225.477,101030,-1.3678,-1.1433,-11.5112,0.4654,-0.6232,1.3751,60
6.588,127,-3.0049,-9.1861,-7.7243,0.931,1.0316,2.0657,93,6.068,117,1.8823,9.9727,-15.4203,-0.6636,-1.128,-1.0117,91,5225.528,101031,-4.3922,-3.1814,-11.4566,0.5237,-0.4998,1.1352,60
6.64,128,-3.942,-6.6192,-7.0688,1.2194,1.0071,2.1843,93,6.12,118,1.0287,10.3408,-15.588,-1.1643,-1.2294,-1.4248,91,5225.58,101032,-6.3031,-4.0111,-10.835,0.6198,-0.391,0.8566,60
6.692,129,-5.591,-5.4404,-7.27,1.2447,0.9812,2.1384,93,6.171,119,0.3648,9.1774,-14.6264,-1.3376,-1.0679,-1.7262,91,5225.632,101033,-7.0106,-3.9874,-10.7619,0.9402,-0.56,0.4924,60
6.743,130,-5.7576,-4.5391,-6.9618,1.3479,0.5763,1.9833,93,6.223,120,-0.6695,9.0398,-14.262,-1.0657,-1.2462,-1.9463,91,5225.684,101034,-7.3462,-4.5391,-10.6719,1.36,-0.9596,0.1472,60
6.795,131,-6.5412,-2.7818,-7.1217,1.5878,0.4642,1.7548,93,6.275,121,-1.6475,7.6115,-14.2319,-0.4537,-1.2664,-2.1068,91,5225.735,101035,-7.8936,-5.0484,-9.7269,1.6665,-1.3635,-0.0163,60
6.847,132,-6.3697,-1.292,-7.0224,1.0987,0.1692,1.4401,93,6.327,122,-2.5017,7.9964,-13.3844,-0.6325,-0.9053,-2.1808,91,5225.787,101036,-7.0268,-5.2293,-8.7321,1.8902,-1.6582,0.0107,60
6.899,133,-6.0442,-1.4485,-8.3449,0.1424,-0.1621,1.0109,93,6.379,123,-3.5699,5.4664,-10.903,-0.9896,-0.5768,-2.0307,91,5225.839,101037,-6.024,-4.6593,-6.5719,2.0534,-1.8733,-0.0265,60
6.951,134,-4.9707,-0.5713,-8.4543,-0.3291,-0.634,0.4744,93,6.431,124,-4.4547,5.2417,-10.6685,-0.995,-0.4683,-1.7175,91,5225.891,101038,-4.8623,-4.1319,-4.9922,2.1725,-2.0303,-0.0386,60
7.002,135,-3.8568,-0.2943,-8.836,-0.3878,-0.8941,-0.2021,93,6.482,125,-4.4749,4.5487,-10.4503,-1.2334,-0.5565,-1.3478,91,5225.942,101039,-4.4991,-3.5948,-3.0299,2.2595,-2.1449,-0.0446,60
7.055,136,-3.5231,-1.3645,-9.112,0.2153,-1.3219,-0.8226,93,6.534,126,-4.188,3.3495,-10.7925,-1.1877,-0.6627,-0.7693,91,5225.994,101040,-3.8287,-2.7743,-3.2153,2.2416,-2.2281,0.0011,60
7.106,137,-1.6378,-1.8365,-7.4195,0.0913,-1.6341,-1.2755,93,6.586,127,-3.1679,2.9717,-11.7131,-1.4595,-0.7945,-0.0755,91,5226.046,101041,-2.8025,-1.9724,-3.7013,2.0636,-2.1103,0.0287,60
7.158,138,-0.8325,-1.1439,-3.1383,0.2991,-1.862,-1.606,93,6.638,128,-1.2714,2.331,-11.6089,-1.6852,-0.286,0.3329,91,5226.098,101042,-1.7771,-1.2894,-4.6884,1.8276,-1.8091,0.0734,60
7.21,139,2.6521,-5.0471,-0.4122,-0.4232,-2.0283,-1.8473,93,6.69,129,-1.297,3.4436,-11.2637,-1.5961,-0.4893,0.9083,91,5226.149,101043,-1.0419,-0.8169,-5.8793,1.66,-1.515,0.0784,60
7.262,140,3.4631,-5.7621,2.2903,-0.9271,-1.0613,-1.8801,93,6.741,130,0.8967,4.4335,-10.417,-0.5166,-1.0298,1.3283,91,5226.201,101044,-0.0778,-0.9854,-6.8829,1.4304,-1.1819,0.1794,60
7.314,141,2.589,-6.2152,2.1172,-1.3365,-0.2595,-1.6709,93,6.793,131,2.5023,8.5626,-8.0535,0.1715,-0.288,1.6348,91,5226.253,101045,0.0157,-0.6066,-8.0831,1.1757,-0.9831,0.3592,60
7.365,142,2.0111,-6.5578,1.1097,-1.0058,0.0997,-1.3099,93,6.845,132,3.6932,10.2984,-8.4963,-0.5549,-0.8828,1.8586,91,5226.305,101046,-0.5719,-0.0584,-9.3275,1.0071,-0.8499,0.6051,60
7.417,143,2.0674,-6.7027,-0.2261,-1.0056,0.2564,-0.9284,93,6.897,133,7.6147,5.0611,-8.213,-0.1637,-0.9999,1.9079,91,5226.356,101047,-0.6033,-0.8255,-10.8666,1.0428,-0.7946,0.7219,60
7.469,144,2.7477,-6.798,-1.0063,-1.1301,0.3988,-0.4721,93,6.949,134,7.6236,7.7549,-7.9304,0.5523,-0.2446,0.7467,91,5226.408,101048,-0.396,-0.4644,-10.336,1.1367,-1.0362,1.0436,60
7.521,145,2.467,-6.3876,-1.5481,-1.3646,0.6146,-0.0338,93,7.0,135,6.9693,7.9123,-8.2192,1.0236,-0.1027,0.3851,91,5226.46,101049,-0.2137,-0.2351,-9.9672,1.1992,-1.214,1.2802,60
7.572,146,0.9137,-6.7721,-1.991,-1.3161,0.748,0.2755,93,7.053,136,6.5844,7.2595,-8.7306,1.4176,0.0817,-0.2181,91,5226.512,101050,-0.0647,-0.0087,-9.6914,1.2377,-1.3427,1.4546,60
7.624,147,-0.7238,-8.25,-2.8203,-1.1999,0.5179,0.4104,93,7.104,137,6.856,7.4394,-9.9234,1.7063,-0.1476,-0.8436,91,5226.564,101051,-0.7738,1.8362,-4.5098,0.8199,-0.6263,0.7495,60
7.676,148,0.1094,-7.3146,-3.2544,-1.4647,-0.2484,0.4797,93,7.156,138,6.7254,7.6687,-10.9951,1.9171,-0.4439,-1.3021,91,5226.615,101052,-0.496,1.4603,-6.1239,0.5117,0.1046,0.2326,60
7.728,149,1.0958,-5.9982,-5.9155,-1.7464,-0.4476,0.5729,93,7.208,139,5.7308,9.176,-12.0809,2.0709,-0.8806,-1.6367,91,5226.667,101053,-0.3151,1.1525,-6.9712,0.2825,0.6365,-0.1436,60
7.779,150,3.7824,1.0018,-2.2495,-1.3661,-0.996,0.7761,93,7.26,140,4.5033,10.284,-14.0611,2.1832,-0.9364,-1.8809,91,5226.719,101054,-0.1923,0.9206,-7.5761,0.1119,1.0242,-0.4168,60
7.831,151,3.6723,-1.4661,-4.6955,-1.0893,-0.2802,0.6704,93,7.312,141,4.4501,9.4003,-15.6498,1.849,-1.3561,-1.961,91,5226.771,101055,-0.0995,0.7491,-8.024,-0.0173,1.3075,-0.6157,60
7.883,152,4.8199,-3.6602,-6.5861,-1.4511,-0.0811,0.3514,93,7.363,142,4.1533,6.4229,-16.1075,1.0803,-1.5134,-1.3322,91,5226.822,101056,-0.0343,0.632,-8.3553,-0.1152,1.5145,-0.7604,60
7.935,153,3.3323,-5.6699,-7.9549,-1.6654,0.1589,-0.2005,93,7.415,143,7.9506,-0.5731,-13.1922,1.1223,-1.6636,-1.3043,91,5226.874,101057,0.0043,0.5628,-8.5841,-0.1916,1.6664,-0.8656,60
7.987,154,2.9669,-9.3014,-9.1732,-1.3853,0.2665,-0.6448,93,7.467,144,4.4242,-1.9853,-13.0107,0.1391,-1.1108,-0.6691,91,5226.926,101058,0.0391,0.5038,-8.7531,-0.2507,1.7768,-0.942,60
8.038,155,1.2218,-11.5238,-10.2138,-0.5955,0.166,-1.0125,93,7.519,145,5.0374,-0.0145,-14.3481,-0.5785,-0.2706,-0.0959,91,5226.978,101059,-0.1521,1.1123,-8.7975,-0.3282,1.8438,-0.9793,60
8.09,156,1.3962,-12.8744,-9.8556,-0.0302,-0.2486,-0.9669,93,7.571,146,4.0958,2.2047,-15.1296,-1.1023,-0.3542,0.5875,91,5227.03,101060,-4.3311,-1.3422,-7.1376,-0.0859,1.8279,-1.3373,60
8.142,157,1.354,-14.4997,-10.5419,0.3602,-0.4411,-0.1865,93,7.622,147,2.3566,4.1512,-14.9329,-1.3639,-0.2079,0.8593,91,5227.081,101061,-5.2145,-2.5193,-6.7279,0.0588,2.0161,-1.3601,60
8.194,158,1.983,-15.4001,-11.1481,0.9262,-0.5062,0.5405,93,7.674,148,1.4574,7.141,-13.8694,-1.2463,-0.4515,0.8093,91,5227.133,101062,-4.8636,-2.0697,-5.9202,0.184,1.6774,-0.9845,60
8.245,159,2.3986,-14.1959,-10.8567,1.3503,-0.2097,1.0711,93,7.726,149,1.7537,10.0126,-13.8503,-0.6138,-0.95,0.4699,91,5227.185,101063,-4.7816,-0.7283,-4.055,0.008,1.3916,-0.6947,60
8.297,160,1.798,-13.32,-10.3422,1.5957,0.2339,1.4584,93,7.778,150,1.8417,11.0044,-14.4767,-0.1345,-1.3448,-0.1163,91,5227.236,101064,-5.686,0.9886,-2.0064,-0.5955,1.2656,-0.8245,60
8.349,161,1.1811,-11.5578,-10.2501,1.839,0.6365,1.741,93,7.83,151,2.8486,12.5997,-13.9593,-0.3902,-1.4286,-0.6666,91,5227.288,101065,-6.8713,1.8665,1.099,-1.0372,1.4683,-0.7492,60
8.401,162,-0.365,-9.5593,-10.1539,2.0166,1.0779,1.9473,93,7.882,152,1.4905,9.6416,-13.0279,-0.5672,-1.0904,-1.172,91,5227.34,101066,-6.7411,3.7422,2.2307,-1.2037,1.3597,-0.2127,60
8.453,163,-0.8052,-6.6909,-10.2006,2.1462,0.9057,1.8833,93,7.933,153,0.8737,10.9301,-12.862,-0.4221,-0.5201,-1.5418,91,5227.392,101067,-5.2215,4.8977,1.0797,-0.8295,0.5286,0.118,60
8.505,164,-1.2022,-4.3758,-9.9712,2.1706,0.6225,1.661,93,7.985,154,1.1465,9.9913,-12.4554,-0.9764,-0.3279,-1.8116,91,5227.443,101068,-4.7984,4.0767,1.3154,-0.3431,-0.2773,0.2404,60
8.556,165,-1.0092,-2.8179,-10.0908,2.0668,0.2448,1.3819,93,8.037,155,-0.4842,8.7972,-12.9584,-1.1353,0.2375,-2.0086,91,5227.495,101069,-4.4101,3.3709,0.8165,0.0925,-0.8655,0.2822,60
8.608,166,-0.9676,-1.7283,-10.0582,2.1258,-0.1397,1.0734,93,8.089,156,-1.8245,6.5908,-12.0362,-0.8517,-0.031,-1.7271,91,5227.547,101070,-2.7366,3.068,1.1866,0.3121,-1.2947,0.407,60
8.66,167,-1.0596,1.2973,-9.3963,2.2259,-0.5189,0.512,93,8.141,157,-1.7838,5.6628,-11.1171,0.0091,0.277,-1.2792,91,5227.599,101071,-1.9371,2.2955,0.8765,0.3561,-1.608,0.1913,60
8.712,168,-1.2208,0.4044,-8.5701,1.2629,-1.0481,-0.0107,93,8.192,158,-1.8951,6.3191,-11.0537,-0.6169,0.3596,-0.7983,91,5227.65,101072,-1.7371,2.0342,0.0144,0.4156,-1.8367,-0.1426,60
8.764,169,0.7549,-2.8104,-6.577,1.3098,-1.4343,-0.0693,93,8.244,159,-1.3744,3.5719,-9.2223,-1.1303,0.2078,0.0828,91,5227.702,101073,-1.808,2.162,-1.2836,0.5149,-2.0036,0.0622,60
8.815,170,5.5695,2.5279,-2.446,1.6303,-1.7161,0.5413,93,8.296,160,1.3679,5.4292,-8.5695,-1.5049,-0.0924,0.7258,91,5227.754,101074,-1.1555,1.7752,-3.2689,0.5964,-2.1254,0.238,60
8.867,171,7.5086,3.7079,0.093,0.5125,-1.4256,0.2306,93,8.348,161,1.4483,7.4045,-8.1458,-1.7784,0.2545,1.1951,91,5227.806,101075,-0.8381,1.2138,-4.7311,0.6308,-2.2143,0.2403,60
8.919,172,6.6914,3.201,0.9981,-0.3033,-0.5227,-0.316,93,8.4,162,1.0496,10.554,-8.5999,-1.978,-0.4869,1.5376,91,5227.857,101076,-1.2148,0.838,-5.3631,0.9156,-2.2048,0.285,60
8.971,173,5.5877,2.0532,0.8177,-0.8988,-0.0536,-0.5883,93,8.452,163,2.84,7.4108,-8.5512,-2.1236,-1.028,1.7876,91,5227.909,101077,-3.0836,0.5474,-6.5595,1.3421,-1.9678,0.4354,60
9.022,174,5.2686,0.8913,0.3782,-1.2801,0.2868,-0.6299,93,8.503,164,6.0277,6.3673,-8.4249,-0.8782,-0.5868,0.6183,91,5227.961,101078,-3.7462,-0.0434,-6.3518,1.6534,-1.628,0.202,60
9.074,175,4.9536,-0.2663,-0.193,-1.6116,0.5835,-0.4927,93,8.555,165,5.9002,7.9915,-7.6864,0.0308,-0.3533,-0.2351,91,5228.013,101079,-2.4626,-0.008,-6.9584,1.8806,-1.5755,-0.2563,60
9.126,176,4.4865,-1.0237,-0.9311,-1.8536,0.8885,-0.1979,93,8.607,166,6.1859,8.8235,-7.5221,0.6176,-0.3368,-0.374,91,5228.065,101080,-1.5059,0.0107,-7.3991,2.0464,-1.5309,-0.5904,60
9.178,177,3.1821,-2.7991,-2.0583,-2.0302,1.0407,0.1897,93,8.659,167,6.3944,8.1833,-8.1195,0.8517,-0.2452,-0.7022,91,5228.116,101081,-0.7486,0.0525,-7.7647,2.1674,-1.49,-0.8338,60
9.23,178,1.3969,-4.3367,-3.15,-2.0059,1.0529,0.4179,93,8.711,168,6.5575,8.1474,-8.9744,1.2933,-0.1287,-1.1989,91,5228.168,101082,0.5775,-3.6105,-5.4597,1.7031,-1.1337,-0.4491,60
9.281,179,0.133,-4.9689,-4.5598,-2.1123,0.7305,0.4733,93,8.763,169,5.8511,9.0131,-10.1008,1.6157,-0.4081,-1.5614,91,5228.22,101083,0.4282,-2.5927,-6.5355,1.0554,-1.1599,-0.0736,60
9.333,180,0.281,-4.9837,-6.3403,-2.219,0.2615,0.3139,93,8.814,170,4.6551,9.689,-11.1218,1.5595,-0.764,-1.7375,91,5228.272,101084,0.3875,-1.8217,-7.3819,0.5806,-1.1781,0.1997,60
9.385,181,4.3335,-8.8351,-2.0363,-1.291,-0.453,-0.2477,93,8.866,171,3.7125,9.4632,-11.9107,1.2632,-0.9935,-1.777,91,5228.323,101085,0.3689,-1.2558,-8.0028,0.2319,-1.1902,0.399,60
9.437,182,3.8732,-10.4904,-3.1416,-1.2116,-0.2935,-0.2627,93,8.918,172,2.3687,8.8014,-12.7707,1.3822,-1.1386,-1.6347,91,5228.375,101086,0.3653,-0.8499,-8.4583,-0.024,-1.1974,0.544,60
9.489,183,3.4601,-10.5072,-5.0287,-0.9741,-0.1076,-0.3801,93,8.97,173,2.6056,9.0673,-14.6324,1.2191,-1.3481,-1.2291,91,5228.427,101087,0.3581,-0.5502,-8.8067,-0.2121,-1.2012,0.6503,60
9.54,184,3.125,-9.8998,-5.2403,-0.4922,-0.3162,-0.4883,93,9.022,174,3.1858,6.9455,-16.9974,0.2954,-1.6564,-0.6517,91,5228.479,101088,0.3508,-0.3388,-9.0621,-0.3513,-1.2021,0.728,60
9.592,185,2.2095,-10.7081,-5.8219,-0.5017,-0.3349,-0.5823,93,9.073,175,2.6393,5.6355,-16.1785,0.6973,-1.0776,-1.0726,91,5228.53,101089,0.3458,-0.1856,-9.2519,-0.4544,-1.2016,0.7847,60
9.644,186,2.1983,-12.5276,-6.8179,-0.3149,-0.4141,-0.5172,93,9.125,176,3.1546,3.8382,-16.2566,-0.1065,-0.639,-0.3397,91,5228.582,101090,-0.3189,1.0614,-8.9407,-0.5412,-1.1993,0.8034,60
9.696,187,1.9633,-12.8229,-7.4888,0.3162,-0.4204,-0.2455,93,9.177,177,3.3194,5.4399,-16.0721,-0.3408,-0.1046,0.1867,91,5228.634,101091,3.15,-0.9466,-10.9437,-0.1575,-1.1079,1.0296,60
9.748,188,2.3672,-12.6071,-7.2947,0.6041,-0.2728,0.2831,93,9.229,178,2.7858,6.9323,-15.8307,-0.5772,0.0387,0.6564,91,5228.686,101092,4.053,1.1419,-10.7414,-0.4755,-0.4134,1.0366,60
9.799,189,2.529,-12.7806,-6.9546,0.7744,0.1455,0.8832,93,9.281,179,2.168,7.8268,-15.3513,-0.7276,-0.0478,0.6515,91,5228.737,101093,5.3305,1.966,-11.4567,-0.4869,0.0794,0.9325,60
9.851,190,2.422,-12.2771,-6.6405,0.9264,0.7603,1.3213,93,9.332,180,2.4773,9.8137,-15.2703,-0.5449,0.0357,-0.0199,91,5228.789,101094,6.2251,2.3258,-13.0997,-0.0797,0.4099,0.6506,60
9.903,191,1.4091,-10.9988,-6.6804,1.0442,1.2373,1.641,93,9.384,181,2.583,9.9018,-15.2725,-0.4678,-0.0599,-0.6854,91,5228.841,101095,7.0585,2.9276,-14.736,0.4315,0.7276,0.3401,60
9.955,192,-0.0249,-9.6162,-6.8212,1.0619,1.5691,1.8743,93,9.436,182,2.2571,10.4616,-14.6557,-0.3745,0.0094,-1.1866,91,5228.893,101096,8.192,2.4669,-16.6675,0.7554,0.9624,0.231,60
10.007,193,-1.5027,-8.8914,-7.2073,1.1355,1.501,2.0446,93,9.488,183,2.0292,11.0079,-14.526,-0.4406,-0.2081,-1.5524,91,5228.944,101097,10.2312,2.1289,-18.4104,0.7509,0.649,0.2732,60
10.058,194,-2.4548,-6.9288,-8.0558,1.5031,1.2436,2.1398,93,9.54,184,1.255,10.9154,-14.0868,-0.7546,-0.2195,-1.8194,91,5228.996,101098,11.5766,2.5484,-19.0354,0.6983,-0.118,0.4165,60
10.11,195,-2.0532,-3.4674,-8.2064,1.6943,0.8374,1.9834,93,9.591,185,0.4282,10.1444,-14.3375,-1.1307,-0.2504,-2.0143,91,5229.048,101099,12.3944,3.0663,-18.3873,0.9387,-0.7492,0.6092,60
10.162,196,-2.0675,-2.2371,-8.5777,1.7395,0.0666,1.5796,93,9.643,186,-1.0501,7.5874,-13.9547,-1.1477,-0.4507,-2.0195,91,5229.1,101100,11.3729,2.6116,-17.4323,1.2417,-1.2099,0.8393,60
10.214,197,-1.917,-1.4432,-9.2287,1.8507,-0.6204,1.1059,93,9.695,187,-1.4461,5.0215,-12.7099,-1.0457,-0.2471,-1.7941,91,5229.151,101101,8.8289,2.1568,-16.1356,1.5079,-1.5461,1.1491,60
10.266,198,-1.6195,-1.3507,-9.0591,1.5527,-1.1221,0.5806,93,9.747,188,-1.4817,5.643,-11.9124,-0.2953,0.1563,-1.5169,91,5229.203,101102,6.3945,2.3996,-14.217,1.7743,-1.7915,1.5043,60
10.317,199,-1.7385,-1.7857,-7.932,1.1027,-1.4883,-0.2072,93,9.799,189,-1.1882,6.4311,-11.0276,-0.8444,0.4633,-0.8924,91,5229.255,101103,4.5122,0.4705,-12.6512,1.8652,-1.9706,1.7385,60
10.369,200,-0.1373,-1.3646,-5.715,1.4792,-1.7556,-0.4341,93,9.851,190,-1.4249,6.4018,-10.5805,-1.2963,0.6437,0.0141,91,5229.306,101104,1.4373,1.2808,-11.815,1.6863,-2.1013,1.8778,60
10.421,201,4.9564,0.583,-1.6325,0.6736,-1.9506,-0.0678,93,9.903,191,-1.9086,4.9133,-9.7511,-1.6261,-0.0197,0.6757,91,5229.358,101105,0.5702,0.7006,-10.5413,1.5621,-2.1967,1.672,60
10.473,202,3.599,2.56,1.3997,-0.1857,-1.25,-0.4938,93,9.954,192,-1.8967,8.6009,-9.9267,-1.8668,-0.687,1.1585,91,5229.41,101106,0.1187,0.1625,-9.4292,1.3327,-2.2664,1.2688,60
10.525,203,4.2338,1.0045,2.177,-0.0428,-1.1408,-0.3469,93,10.006,193,3.5351,2.2814,-8.2784,-2.0425,-1.1741,1.5109,91,5229.462,101107,1.5043,0.5725,-8.9944,1.1449,-2.3172,0.8794,60
10.576,204,3.5841,0.8727,1.872,-0.5757,-0.2847,-0.3836,93,10.058,194,6.4778,1.8366,-6.1308,-0.819,-0.3861,0.4163,91,5229.514,101108,3.0749,3.0162,-9.2193,0.8396,-2.3543,0.5766,60
10.628,205,4.4709,-0.0763,1.1249,-1.078,0.3999,-0.3953,93,10.11,195,5.6477,4.9352,-6.2152,0.074,0.1789,-0.3825,91,5229.566,101109,3.9638,3.6569,-9.8245,1.08,-2.3813,0.8235,60
10.68,206,4.694,-1.5314,0.216,-1.4642,0.9743,-0.2909,93,10.162,196,4.5507,8.3242,-6.349,0.3332,0.8096,-0.5223,91,5229.617,101110,2.7779,2.8483,-9.1726,1.3583,-2.4011,1.0938,60
10.732,207,3.7391,-3.0741,-0.9008,-1.746,1.2857,0.0149,93,10.213,197,3.6787,8.187,-6.9542,-0.4369,1.1496,-0.1544,91,5229.669,101111,1.8984,2.269,-8.6573,1.5498,-2.4155,1.2925,60
10.783,208,2.5315,-3.2394,-1.1479,-1.8667,1.609,0.2281,93,10.265,198,3.633,7.2384,-6.878,-0.1676,1.3352,-0.2733,91,5229.721,101112,-3.846,6.0596,-3.7551,1.2585,-1.5995,0.9176,60
10.835,209,1.4755,-5.0507,-2.3433,-1.8512,1.4763,0.4722,93,10.317,199,2.7243,7.1733,-7.5267,0.5494,1.3765,-0.8728,91,5229.773,101113,-2.7245,4.5159,-5.1965,0.4084,-1.1218,0.396,60
10.887,210,0.3709,-3.881,-4.1411,-2.0284,1.1517,0.3837,93,10.369,200,0.7511,8.4182,-9.1834,1.0727,1.1251,-1.3111,91,5229.824,101114,-2.0834,3.3359,-6.3346,-0.2244,-0.7709,-0.2767,60
10.939,211,0.6701,-4.1326,-8.6316,-2.1578,0.5884,-0.0188,93,10.421,201,-0.4013,10.2361,-10.8136,1.4546,0.3604,-1.0957,91,5229.876,101115,-1.6157,2.465,-7.1666,-0.6855,-0.5191,-0.8396,60
10.991,212,3.2437,0.6205,-7.3528,-0.9005,0.0964,-0.6888,93,10.473,202,-0.4777,9.3638,-12.2358,1.0899,-0.1385,-0.7636,91,5229.928,101116,-1.2634,1.8261,-7.7907,-1.0221,-0.341,-1.2664,60
11.042,213,6.2925,5.7846,-7.5649,-0.9805,0.0809,-1.0287,93,10.524,203,-0.2657,8.2154,-12.4366,1.0509,-0.4952,-0.3606,91,5229.98,101117,-1.0033,1.3502,-8.2421,-1.268,-0.2154,-1.5813,60
11.094,214,8.4447,2.9162,-8.2169,-1.1179,-0.6072,-1.0983,93,10.576,204,1.5801,6.6914,-13.6975,0.1734,-0.7808,0.4022,91,5230.031,101118,-0.8135,0.9973,-8.5713,-1.4474,-0.129,-1.8104,60
11.146,215,8.8663,-2.7945,-8.8958,-1.0405,-0.8425,-1.4767,93,10.628,205,5.3297,-0.3771,-9.8813,-0.5534,-0.723,0.9589,91,5230.083,101119,-0.678,0.7349,-8.8108,-1.5775,-0.071,-1.9782,60
11.198,216,10.8503,-7.0044,-7.9424,-1.1818,-1.093,-1.7529,93,10.68,206,8.8092,4.9804,-8.9982,0.2678,-0.8141,0.5921,91,5230.135,101120,-0.5796,0.529,-8.9922,-1.6728,-0.0333,-2.0992,60
11.25,217,10.5751,-9.1105,-7.2468,-1.032,-1.0904,-1.8886,93,10.732,207,11.0857,7.1947,-14.1824,0.8672,-0.753,0.4357,91,5230.187,101121,-2.8323,1.3859,-9.7589,-1.6315,-0.0351,-1.7281,60
11.301,218,9.5696,-11.0034,-6.655,-0.5783,-0.664,-1.4377,93,10.783,208,12.2167,8.4288,-13.3149,0.5463,-0.2375,0.9834,91,5230.238,101122,3.2913,-4.0379,-15.1481,-1.6397,0.6631,-1.4575,60
11.353,219,7.9777,-11.3452,-6.2671,-0.049,-0.3078,-0.6444,93,10.835,209,11.1218,10.5787,-12.9748,0.1182,-0.0786,1.3736,91,5230.29,101123,2.6976,-5.4107,-18.1843,-1.2608,0.5915,-1.1482,60
11.405,220,7.8845,-11.288,-6.0536,0.6115,-0.0928,0.2063,93,10.887,210,9.9956,11.8278,-12.5201,0.0184,-0.1139,1.4051,91,5230.342,101124,2.4366,-9.2068,-16.7958,-1.5566,0.4777,-1.1125,60
11.457,221,8.069,-11.6549,-6.2778,1.0683,0.2375,0.8272,93,10.939,211,8.3811,11.8251,-12.4496,-0.0811,-0.2994,1.0617,91,5230.394,101125,2.1887,-11.9774,-14.6054,-1.814,0.2793,-0.9507,60
11.508,222,8.9199,-10.8206,-6.7279,1.392,0.8187,1.2804,93,10.991,212,7.4563,11.6236,-12.5996,-0.0711,-0.5389,0.461,91,5230.445,101126,1.3819,-13.8817,-12.1428,-2.0018,0.1047,-0.6469,60
11.56,223,8.3142,-10.0529,-7.0256,1.3186,1.28,1.6111,93,11.042,213,6.7798,11.1283,-12.6457,-0.2368,-0.6761,-0.3489,91,5230.497,101127,0.9614,-14.4998,-10.287,-1.8504,-0.039,-0.4319,60
11.612,224,6.8737,-8.8727,-7.7803,1.553,1.6166,1.8525,93,11.094,214,6.7356,11.0418,-12.9728,-0.6025,-0.6768,-0.941,91,5230.549,101128,0.8651,-13.2161,-8.9529,-1.1826,-0.2435,-0.328,60
11.664,225,4.6975,-7.117,-7.3426,1.7685,1.8623,2.0287,93,11.146,215,6.3289,11.0428,-13.1549,-1.119,-0.6011,-1.3732,91,5230.601,101129,0.5878,-12.7939,-8.1027,-0.1893,-0.4996,-0.2621,60
11.716,226,2.7113,-6.3476,-7.91,1.873,2.0416,2.0703,93,11.198,216,5.6121,9.9913,-12.7751,-1.4967,-0.507,-1.6886,91,5230.653,101130,-0.3568,-12.7794,-7.3268,0.5357,-0.6846,-0.2002,60
11.767,227,0.7634,-4.4539,-8.9007,2.0414,2.0236,1.7113,93,11.25,217,3.7155,9.3386,-12.9573,-1.3263,-0.3563,-1.9188,91,5230.704,101131,-0.6112,-13.4631,-6.7538,1.0649,-0.6571,-0.1063,60
11.819,228,-0.6444,-2.1086,-8.9043,2.1172,1.4108,1.2866,93,11.301,218,2.2559,7.4225,-12.7938,-1.4457,-0.4937,-2.0868,91,5230.756,101132,-0.1261,-13.6261,-5.6449,1.4511,-0.8202,-0.1341,60
11.871,229,-1.5829,-0.7896,-8.9847,1.5482,0.4178,0.665,93,11.353,219,0.8263,6.3601,-12.5238,-0.8223,-0.325,-2.2094,91,5230.808,101133,-0.0283,-12.3365,-4.8245,1.7329,-0.9715,-0.2576,60
11.923,230,-1.7887,-1.035,-9.2705,0.7072,-0.3644,-0.1702,93,11.405,220,-0.0959,4.3368,-11.507,-0.4494,-0.3104,-1.8619,91,5230.859,101134,-0.1415,-9.7322,-4.1953,1.9387,-1.0563,-0.4555,60
11.975,231,-1.266,-0.856,-7.3156,0.4375,-0.9353,-0.7993,93,11.457,221,-0.8928,3.6771,-11.0556,-0.6053,-0.1541,-1.0666,91,5230.912,101135,-0.5917,-7.2326,-3.9723,2.0888,-0.8947,-0.3642,60
12.026,232,-1.12,-1.4803,-6.5015,0.5652,-1.3519,-1.2585,93,11.509,222,-0.4213,3.3596,-10.6776,-0.5547,-0.2384,-0.1131,91,5230.963,101136,-0.4931,-5.0554,-4.2764,2.1984,-0.5519,-0.0997,60
12.078,233,3.16,-2.389,-7.2561,1.0869,-1.656,-1.5538,93,11.56,223,1.2142,4.2244,-9.621,0.1869,-0.1758,0.5829,91,5231.015,101137,-0.3419,-3.511,-4.7673,2.2783,-0.1937,0.1123,60
12.13,234,7.363,-1.503,-3.7011,0.1734,-1.5666,-1.4193,93,11.612,224,1.9994,6.0704,-9.6583,0.1846,-0.1269,1.0908,91,5231.067,101138,-0.2003,-2.5306,-5.6103,2.3367,0.0363,0.3316,60
12.182,235,7.909,-1.9159,-3.0769,-0.5508,-0.7134,-0.9358,93,11.664,225,2.8913,9.6715,-9.8281,-0.1306,-0.4039,1.4615,91,5231.118,101139,-0.4918,-2.3153,-6.4155,2.3793,0.2739,0.644,60
12.233,236,6.3114,-4.0775,-3.644,-1.0794,-0.0325,-0.6031,93,11.716,226,5.3227,9.8539,-9.8904,-0.7753,-0.9674,1.732,91,5231.17,101140,-0.2791,-2.8258,-6.8313,2.4104,0.55,0.7477,60
12.285,237,5.9408,-4.5919,-3.8997,-0.7914,0.2056,-0.4735,93,11.768,227,8.8041,6.4283,-9.481,0.002,-0.2532,1.4648,91,5231.222,101141,-0.0992,-1.8036,-6.1921,2.4331,0.3277,0.7046,60
12.337,238,6.074,-4.2252,-4.0166,-1.0746,0.4245,-0.3038,93,11.819,228,7.5233,6.3094,-9.926,0.6732,0.2918,0.3827,91,5231.274,101142,-0.0596,-1.126,-6.2204,2.4497,-0.0301,0.7006,60
12.389,239,6.3002,-4.9596,-5.0093,-1.4616,0.5881,0.1368,93,11.871,229,6.8157,7.8027,-10.8244,1.163,0.6113,-0.4045,91,5231.325,101143,-0.0168,-0.6483,-6.2643,2.4618,-0.3037,0.696,60
12.44,240,5.9603,-6.2694,-6.1685,-1.7441,0.6564,0.5928,93,11.923,230,5.8989,7.5743,-11.2759,1.2381,0.4614,-0.6358,91,5231.377,101144,0.0253,-0.3074,-6.3231,2.4706,-0.5122,0.691,60
12.492,241,5.3115,-6.946,-7.0549,-1.7862,0.4803,0.8511,93,11.975,231,5.8818,7.0775,-11.6671,1.4738,0.0832,-0.8777,91,5231.429,101145,-4.9249,-2.32,-2.0515,1.8038,-0.4295,0.5222,60
12.544,242,4.8815,-7.2686,-9.4404,-1.929,-0.0803,1.0534,93,12.027,232,5.7444,6.9974,-12.7073,1.7473,-0.3603,-1.327,91,5231.481,101146,-3.5574,-1.6642,-4.0308,1.4126,-0.6091,0.532,60
12.596,243,6.9896,-10.4532,-10.6568,-1.9181,-0.7279,1.4455,93,12.079,233,5.5489,8.0176,-13.4605,1.947,-0.6749,-1.6365,91,5231.532,101147,-2.5585,-1.1895,-5.6141,1.1254,-0.7426,0.5381,60
12.648,244,5.1933,-2.2393,-9.3925,-1.7394,0.1512,1.5282,93,12.13,234,5.2207,7.849,-15.5259,2.0927,-1.1653,-1.8358,91,5231.584,101148,-1.8234,-0.8336,-6.7708,0.9154,-0.841,0.5415,60
12.699,245,5.2466,-4.2327,-10.0119,-0.596,-0.0377,1.4661,93,12.182,235,4.7726,7.3413,-17.5534,1.9004,-1.5231,-1.6711,91,5231.636,101149,-1.2933,-0.5838,-7.6145,0.7612,-0.9139,0.5442,60
12.751,246,2.1467,-8.2869,-10.1948,-0.5577,0.0496,1.6249,93,12.234,236,7.1293,0.0979,-10.1786,0.707,-0.6571,-0.5543,91,5231.688,101150,-0.9073,-0.3996,-8.2213,0.6486,-0.9677,0.5463,60
12.803,247,1.3527,-10.1479,-10.3565,-0.079,0.0746,1.8625,93,12.286,237,6.145,3.4454,-12.6371,0.0062,-0.5409,-0.4238,91,5231.74,101151,-0.6272,-0.2677,-8.6752,0.5661,-1.0078,0.5481,60
12.855,248,0.9225,-11.0257,-10.5178,0.6099,0.026,2.036,93,12.338,238,4.4801,4.7709,-12.7008,-0.6755,-0.2915,-0.5046,91,5231.791,101152,-0.5401,-0.1296,-8.3084,0.6345,-0.8397,0.535,60
12.907,249,0.3891,-10.466,-10.1319,1.1195,0.056,2.1626,93,12.389,239,1.8948,7.0294,-12.3136,-1.079,-0.3207,-0.6459,91,5231.843,101153,-3.7346,-0.9666,-10.6489,0.9114,-0.9865,0.2608,60
12.958,250,-0.1213,-8.8843,-9.5927,1.4914,0.3266,2.255,93,12.441,240,0.9697,7.673,-13.3865,-0.8053,-0.5162,-1.1536,91,5231.895,101154,-2.7885,-0.8259,-13.2157,0.6875,-0.7999,0.1855,60
13.01,251,-0.7706,-6.9243,-9.3252,1.7629,0.4019,2.3224,93,12.493,241,0.0056,6.7403,-13.9586,-0.5362,-0.7984,-1.3938,91,5231.947,101155,-3.4405,-1.4927,-14.9475,0.7097,-0.5466,-0.1616,60
13.062,252,-1.074,-4.2762,-9.0366,1.8809,0.1464,2.1907,93,12.545,242,-0.6362,7.3079,-14.4311,-0.3647,-0.8501,-1.7037,91,5231.998,101156,-3.7413,-2.2788,-16.6103,1.1335,-0.1197,-0.589,60
13.114,253,-0.6263,-2.018,-8.4316,1.0412,-0.1515,1.6387,93,12.597,243,-1.1327,7.2736,-14.8372,-0.2161,-0.6959,-1.9298,91,5232.05,101157,-4.1069,-2.2507,-16.7891,1.5012,0.4927,-0.9357,60
13.165,254,-1.4149,-0.5564,-8.636,0.4188,-0.4717,0.546,93,12.648,244,-1.6884,6.1784,-14.2808,0.437,-0.4602,-2.0747,91,5232.102,101158,-2.7231,-2.3139,-15.8554,1.7695,1.0483,-1.1646,60
13.217,255,-1.492,-0.0774,-9.3195,-0.0919,-1.0136,-0.2766,93,12.7,245,-1.262,6.9573,-11.505,0.7436,-0.2659,-1.7189,91,5232.153,101159,-0.8534,-2.2776,-14.0839,1.9653,1.4503,-1.1822,60
13.269,256,0.7814,-2.4235,-7.211,-0.7445,-1.4091,-0.877,93,12.752,246,-1.2289,6.4101,-12.4009,-0.1326,-0.3921,-1.1667,91,5232.205,101160,0.0233,-2.3382,-11.6581,2.1083,1.6388,-0.9328,60
13.321,257,0.5754,-6.4828,-6.1996,0.0737,-1.4325,-1.3152,93,12.804,247,-0.105,5.5338,-12.2612,-0.7768,0.0246,-0.3803,91,5232.257,101161,0.2509,-2.4183,-9.115,2.2126,1.6984,-0.6094,60
13.373,258,4.5541,-6.3568,-4.0587,0.703,-1.7149,-1.635,93,12.856,248,-0.1671,4.9022,-12.6898,-1.247,0.5254,0.3878,91,5232.309,101162,0.6578,-2.3832,-7.1899,2.2887,1.6314,-0.1709,60
13.424,259,5.5571,-6.8094,-2.3726,-0.1643,-1.3758,-1.746,93,12.908,249,0.1653,4.5556,-12.2627,-1.5901,0.2639,0.9484,91,5232.361,101163,0.5838,-1.5507,-6.7161,2.3443,1.4551,0.1001,60
13.476,260,5.5876,-7.8174,-1.8832,-0.6892,-0.8197,-1.6047,93,12.959,250,2.773,7.4605,-10.7542,-1.5249,-0.48,1.3576,91,5232.412,101164,0.7569,-0.8131,-6.5699,2.3848,1.2722,0.1559,60
13.528,261,5.6291,-7.9332,-2.2097,-0.7811,-0.3953,-1.1986,93,13.011,251,6.7939,8.2139,-11.2396,-0.4412,-0.8692,1.6562,91,5232.464,101165,-0.4403,-1.4753,-7.965,2.4144,1.2139,0.2493,60
13.58,262,5.8388,-8.2098,-2.9974,-0.8216,-0.0517,-0.6755,93,13.063,252,6.8392,9.5373,-12.6079,0.3497,0.0447,0.9136,91,5232.516,101166,-0.5592,-1.3252,-7.6131,2.436,1.5418,0.1141,60
13.631,263,5.8513,-7.6665,-3.8839,-0.7231,0.2206,-0.129,93,13.115,253,6.2277,11.2313,-13.3354,0.927,0.5728,0.1979,91,5232.568,101167,-0.3027,-0.7892,-7.2321,2.4518,1.7907,-0.073,60
13.683,264,5.8622,-7.1457,-4.6207,-1.0033,0.3295,0.3542,93,13.167,254,5.7824,11.5098,-13.4611,0.5183,0.6037,0.0836,91,5232.619,101168,-0.1205,-0.3789,-6.9756,2.4633,1.9675,-0.2121,60
13.735,265,5.0841,-5.996,-4.4415,-1.2404,0.4757,0.6088,93,13.218,255,5.7037,9.8622,-13.8613,0.2826,0.1333,-0.0973,91,5232.671,101169,-0.0208,-0.0313,-6.8145,2.4717,2.0991,-0.3179,60
