right_hand_timestamp,right_hand_index,right_hand_accel_x,right_hand_accel_y,right_hand_accel_z,right_hand_gyro_x,right_hand_gyro_y,right_hand_gyro_z,right_hand_battery_percentage,left_hand_timestamp,left_hand_index,left_hand_accel_x,left_hand_accel_y,left_hand_accel_z,left_hand_gyro_x,left_hand_gyro_y,left_hand_gyro_z,left_hand_battery_percentage,ball_timestamp,ball_index,ball_accel_x,ball_accel_y,ball_accel_z,ball_gyro_x,ball_gyro_y,ball_gyro_z,ball_battery_percentage
0.856,16,6.4351,-11.3379,-16.442,0.0431,-1.3212,1.4216,91,0.707,13,6.3477,4.4805,-15.3966,-1.9001,-0.3602,-1.4054,88,6379.934,123352,3.2718,9.8423,-9.6215,-0.1167,0.0287,0.2815,60
0.908,17,6.477,-13.4726,-17.7239,0.6101,-1.6336,1.7142,91,0.759,14,3.793,4.3714,-14.3156,-1.8978,0.1919,-0.9312,88,6379.986,123353,2.8392,11.437,-10.1035,-0.1905,0.0132,0.0926,60
0.959,18,6.9566,-12.6451,-18.268,1.069,-1.8616,1.9277,91,0.811,15,0.1473,3.7566,-13.3789,-1.8861,0.7342,-0.8756,88,6380.037,123354,2.5292,13.6783,-10.8226,0.0903,-0.075,-0.0398,60
1.011,19,7.2522,-7.0297,-15.2734,0.1204,-1.6407,2.0836,91,0.863,16,-2.792,2.8336,-13.2381,-1.5502,0.8952,-0.8497,88,6380.089,123355,2.2077,15.3141,-12.3025,0.6139,-0.3176,-0.5326,60
1.063,20,7.3888,-2.7989,-12.3632,0.7445,-0.7639,2.1926,91,0.915,17,-4.4297,2.4788,-12.856,-1.3438,0.9448,-0.4856,88,6380.141,123356,2.6175,16.508,-13.0654,1.0095,-0.6361,-1.0648,60
1.115,21,6.8624,-3.0829,-11.5068,0.7601,-0.0387,1.364,91,0.966,18,-5.2526,2.5117,-12.2614,-1.1731,0.8687,0.0072,88,6380.193,123357,4.0918,17.3793,-12.1128,1.2317,-0.886,-1.4532,60
1.166,22,5.5313,-2.548,-11.6196,1.2291,0.6385,0.3431,91,1.018,19,-6.2787,2.358,-12.1946,-0.9258,0.9713,0.4415,88,6380.245,123358,5.0429,14.809,-10.7415,0.9275,-1.1977,-1.2848,60
1.218,23,4.3339,-3.3145,-12.3618,1.2018,1.1484,-0.4247,91,1.07,20,-6.6315,2.9289,-12.7495,-0.7042,1.3344,0.9522,88,6380.296,123359,3.7638,10.9105,-10.316,0.6174,-1.5202,-0.6151,60
1.27,24,4.3104,-4.9072,-13.7261,0.934,1.5206,-0.9851,91,1.122,21,-7.3683,5.702,-13.4055,-1.194,1.5565,1.3603,88,6380.348,123360,2.8031,8.0721,-10.0245,0.3863,-1.7556,-0.1265,60
1.322,25,5.008,-6.2523,-15.0151,0.8667,1.7922,-1.3941,91,1.174,22,-7.1111,6.7247,-13.0468,-1.5515,0.4705,1.6582,88,6380.4,123361,2.107,6.0049,-9.7976,0.214,-1.9273,0.2294,60
1.374,26,5.6706,-7.4072,-15.8292,0.6016,1.9905,-1.6926,91,1.225,23,-6.3194,8.2564,-10.703,-1.8124,-0.3293,1.8756,88,6380.452,123362,1.5975,4.5038,-9.6413,0.0833,-2.0506,0.4892,60
1.425,27,6.2136,-8.2659,-16.3692,-0.1788,2.1351,-1.7635,91,1.277,24,-3.1456,5.5963,-7.779,-1.9082,-0.913,1.7065,88,6380.503,123363,1.2181,3.4111,-9.5276,-0.0165,-2.1412,0.6783,60
1.477,28,6.5889,-9.2257,-17.2582,-0.4513,2.2407,-1.6679,91,1.329,25,-0.9583,5.2023,-5.8631,-0.7324,-1.1448,1.6834,88,6380.555,123364,0.9394,2.6175,-9.4384,-0.0946,-2.2069,0.816,60
1.529,29,6.3689,-9.5965,-17.5849,-0.3398,2.3178,-1.5638,91,1.381,26,0.4306,6.3916,-5.1392,0.1372,-1.208,1.6105,88,6380.607,123365,0.7351,2.0473,-9.3671,-0.1565,-2.2561,0.9156,60
1.581,30,4.8838,-10.4564,-17.5258,0.2141,2.2778,-1.2938,91,1.433,27,1.2777,7.118,-5.323,0.7718,-1.262,1.4684,88,6380.659,123366,0.5889,1.6487,-9.323,-0.2068,-2.2902,0.9875,60
1.632,31,5.4863,-10.1669,-16.1276,0.7046,1.5935,-0.959,91,1.484,28,2.1732,7.6808,-5.8018,1.0359,-1.2721,1.2009,88,6380.71,123367,0.4832,1.3627,-9.278,-0.2488,-2.3144,1.0391,60
1.684,32,5.8584,-9.6077,-14.4292,1.1375,1.1483,-0.2763,91,1.536,29,2.6051,7.8137,-6.7244,1.4278,-1.1883,0.7794,88,6380.762,123368,0.4232,1.1443,-9.2377,-0.2849,-2.3287,1.0764,60
1.736,33,6.5232,-8.3611,-13.1678,1.5046,0.7686,0.4202,91,1.588,30,2.8681,7.7564,-8.4748,1.7138,-1.092,0.2506,88,6380.814,123369,0.39,0.9868,-9.2353,-0.3172,-2.3408,1.1033,60
1.788,34,6.4535,-6.7074,-11.951,1.3654,0.6979,0.8083,91,1.64,31,2.6542,10.9589,-11.1651,1.9225,-1.0644,-0.2404,88,6380.866,123370,0.3657,0.8742,-9.2198,-0.3455,-2.3488,1.1225,60
1.84,35,5.6709,-6.1637,-11.3703,0.6758,0.596,0.9682,91,1.692,32,4.4922,11.8771,-14.4164,1.5144,-1.4495,-0.8477,88,6380.917,123371,0.3765,0.8039,-9.2382,-0.3717,-2.3525,1.1363,60
1.891,36,4.6667,-6.1022,-11.187,0.3115,0.3798,0.9376,91,1.743,33,7.9401,11.4037,-15.221,1.426,-1.7306,-1.305,88,6380.969,123372,0.3969,0.7761,-9.2702,-0.3961,-2.3539,1.1459,60
1.943,37,3.9432,-6.1855,-11.1928,0.1518,0.0885,0.6877,91,1.795,34,7.831,12.1207,-13.3142,1.7125,-1.8514,-1.6389,88,6381.021,123373,0.4222,0.7764,-9.3041,-0.4208,-2.3539,1.1526,60
1.995,38,3.3572,-6.5949,-11.4436,0.0342,-0.1676,0.2726,91,1.847,35,4.3004,14.173,-10.8586,0.7391,-1.9872,-1.4304,88,6381.072,123374,0.4184,0.8278,-9.326,-0.4447,-2.3536,1.1553,60
2.047,39,3.167,-6.308,-12.3258,-0.4554,-0.5681,-0.1232,91,1.899,36,1.7855,10.4418,-13.2297,-0.0085,-1.6488,-1.4265,88,6381.124,123375,0.4459,0.9451,-9.323,-0.4711,-2.3506,1.1538,60
2.099,40,5.2741,-8.2146,-15.1253,-0.415,-1.0839,-0.1041,91,1.951,37,0.4098,6.8911,-15.4865,-0.6739,-1.7455,-1.2708,88,6381.176,123376,-2.6514,0.0214,-8.3225,-0.9716,-1.2671,0.7401,60
2.151,41,8.6184,-8.4328,-15.6813,-0.5733,-1.4604,0.5024,91,2.003,38,0.8783,1.4599,-15.7923,-0.158,-1.6943,-1.1024,88,6381.228,123377,-1.8654,0.0794,-8.4025,-1.387,-0.4025,0.4304,60
2.202,42,8.2624,-10.2355,-15.2024,-1.0958,-1.7352,1.0433,91,2.054,39,-4.3746,1.1698,-15.6172,-0.2431,-0.5575,-1.0422,88,6381.28,123378,-1.3231,0.1304,-8.4707,-1.6902,0.2262,0.2055,60
2.254,43,6.8317,-11.6649,-13.863,-0.9586,-1.9358,1.1744,91,2.106,40,-6.097,3.8151,-15.034,-0.2305,0.1322,-0.6413,88,6381.331,123379,-0.9189,0.1633,-8.5204,-1.9114,0.6816,0.0414,60
2.306,44,5.2328,-9.0143,-13.4321,-0.2187,-2.0821,1.152,91,2.158,41,-6.1207,5.2308,-15.6917,-0.075,0.2147,-0.5534,88,6381.383,123380,-0.63,0.175,-8.5469,-2.0729,1.0116,-0.0782,60
2.358,45,3.0556,-6.9028,-14.0592,0.2547,-2.189,0.9943,91,2.21,42,-5.7127,5.9468,-15.8798,0.0088,0.427,-0.5048,88,6381.435,123381,-0.4098,0.2067,-8.5504,-2.1908,1.2508,-0.1648,60
2.41,46,4.1436,-5.9955,-12.0477,-0.0528,-2.1227,0.5937,91,2.262,43,-4.4749,5.2008,-15.6111,-0.3459,0.5422,-0.0902,88,6381.487,123382,-0.2722,0.2009,-8.5719,-2.2768,1.4229,-0.2277,60
2.461,47,1.8789,-4.0938,-10.0135,-0.2206,-1.2093,-0.1502,91,2.313,44,-4.2689,6.4766,-15.7356,-0.6011,0.739,0.2083,88,6381.538,123383,-0.2762,0.0814,-8.375,-2.3226,1.503,-0.3785,60
2.513,48,-0.8092,-5.231,-11.7241,-0.5989,-0.7014,-0.535,91,2.365,45,-4.2996,6.91,-15.4386,-0.5975,0.7937,0.1934,88,6381.59,123384,-0.1964,0.1439,-8.5289,-2.3196,1.5268,-0.4749,60
2.565,49,-0.166,-1.8896,-10.3373,-0.3185,-0.4194,-0.8876,91,2.417,46,-3.8557,5.2681,-14.9101,-0.5707,0.6951,0.7812,88,6381.642,123385,0.4902,1.0227,-8.0146,-2.3708,1.5114,-0.6124,60
2.617,50,0.5114,-3.4548,-12.0563,-0.5337,0.0802,-1.0302,91,2.469,47,-2.7822,5.3634,-14.8434,-0.5411,0.5573,1.2355,88,6381.694,123386,-0.9786,1.6583,-7.1239,-2.4082,1.1294,0.0318,60
2.668,51,0.7386,-4.9492,-13.325,-0.2457,0.3443,-1.0976,91,2.521,48,-1.4788,6.6548,-14.8403,0.1528,0.7608,1.5671,88,6381.745,123387,0.1868,1.3137,-5.8466,-2.4234,0.7192,0.3506,60
2.72,52,0.9011,-5.8764,-13.8405,-0.1439,0.5969,-0.9765,91,2.572,49,-0.2287,7.3899,-15.1151,0.4324,0.8866,1.8091,88,6381.797,123388,-0.9091,-0.3841,-4.1618,-2.4466,-0.1346,0.0292,60
2.772,53,1.1028,-6.8436,-14.3303,0.1607,0.9162,-0.7782,91,2.624,50,0.9461,8.2422,-15.4869,0.6725,0.9041,1.969,88,6381.849,123389,-0.6423,-0.0689,-2.6317,-2.4635,-0.3846,-0.2697,60
2.824,54,1.0362,-5.9599,-15.1277,0.276,0.9217,-0.9947,91,2.676,51,1.6928,8.4997,-15.7621,0.535,0.8441,2.0048,88,6381.901,123390,0.2765,-0.2315,-1.925,-2.2351,-0.2563,-0.1427,60
2.876,55,1.5454,-5.8601,-15.2961,0.1515,1.0908,-1.2138,91,2.728,52,2.2197,8.2466,-16.1576,0.2767,0.6765,1.8613,88,6381.953,123391,0.3963,-1.1503,-1.4056,-1.8132,-0.1554,-0.1609,60
2.927,56,2.3294,-5.7585,-15.2453,0.0965,1.2532,-1.4227,91,2.78,53,2.7077,9.1139,-16.4457,0.2674,0.5082,1.3301,88,6382.004,123392,-0.4023,-1.1866,-1.6392,-1.2272,0.1486,0.0428,60
2.979,57,3.3949,-5.6252,-15.3485,-0.0606,1.4106,-1.5588,91,2.832,54,2.6007,11.9786,-17.118,0.2733,0.0992,0.3585,88,6382.056,123393,0.2118,-1.8598,-1.5741,-0.3686,0.3684,0.2542,60
3.031,58,4.1621,-6.1843,-15.4453,-0.1895,1.4167,-1.682,91,2.883,55,2.4453,14.0693,-19.8035,-0.264,-0.6003,-0.4247,88,6382.108,123394,-0.5542,-2.0304,-1.7556,0.3865,0.1892,0.2119,60
3.083,59,4.7857,-6.5119,-15.25,-0.3537,1.3027,-1.6143,91,2.935,56,4.4881,15.5953,-22.3933,-0.8727,-1.1108,-0.9964,88,6382.16,123395,-0.1418,-1.4281,-1.7853,0.956,0.1162,0.173,60
3.135,60,5.0522,-6.9621,-15.6034,-0.425,1.1454,-1.3592,91,2.987,57,6.7036,15.1116,-24.1975,-1.317,-1.4834,-1.4136,88,6382.211,123396,0.1218,-0.2532,-1.0423,1.3716,-0.1031,0.1421,60
3.186,61,5.2846,-7.5418,-16.1095,-0.4861,0.8463,-0.963,91,3.039,58,8.5242,10.8207,-20.4636,-0.7844,-1.7553,-1.7181,88,6382.263,123397,0.7023,0.4756,0.2134,1.6749,-0.2916,0.0414,60
3.238,62,5.7218,-10.702,-18.5157,-0.4737,0.1096,-0.1719,91,3.091,59,9.3576,6.3515,-15.849,-1.0058,-1.3153,-1.7423,88,6382.315,123398,0.76,1.0326,1.238,1.8963,-0.5631,-0.0468,60
3.29,63,5.0332,-13.0085,-21.5101,-0.0388,-0.5893,0.5512,91,3.142,60,7.3152,5.6117,-14.0504,-1.3904,-0.3864,-0.8982,88,6382.366,123399,0.4955,1.4183,1.8798,2.0029,-0.6858,-0.1117,60
3.342,64,8.0643,-14.3626,-23.6955,0.5792,-1.0995,1.0789,91,3.194,61,3.7693,5.4679,-13.1459,-1.6948,0.3829,-0.5297,88,6382.418,123400,0.7088,1.6105,2.4217,1.619,-0.5708,-0.1801,60
3.393,65,10.4504,-11.2689,-22.2911,1.0831,-1.4718,1.4641,91,3.246,62,-0.1099,4.6624,-13.2389,-1.7135,0.9585,-0.5863,88,6382.47,123401,0.7402,1.3673,4.2034,0.97,-0.4262,-0.1753,60
3.445,66,10.3873,-9.1077,-16.7381,0.1653,-1.7435,1.7452,91,3.298,63,-2.6567,4.2488,-13.3675,-1.7785,1.0589,-0.6433,88,6382.522,123402,0.1694,0.6884,5.6312,0.4353,-0.1459,-0.1808,60
3.497,67,9.6168,-5.1972,-12.5083,0.6849,-1.005,1.753,91,3.35,64,-4.9334,3.3618,-13.7111,-1.7824,1.0825,-0.586,88,6382.573,123403,1.0773,3.2815,6.6733,-0.3601,0.2531,-0.1474,60
3.549,68,7.3155,-4.1123,-11.6464,1.135,-0.0511,1.1017,91,3.402,65,-6.8887,2.9093,-13.7007,-1.6494,1.0408,-0.5219,88,6382.625,123404,4.5544,7.7261,7.4338,-0.9407,0.3138,-0.4081,60
3.601,69,4.0611,-3.6448,-12.9469,1.4713,0.6451,0.4835,91,3.454,66,-8.9265,2.4941,-14.319,-1.6125,0.9514,-0.4219,88,6382.677,123405,4.6711,10.9699,4.3634,-0.3604,-0.1617,-0.7751,60
3.653,70,1.2278,-4.1659,-14.4076,1.4878,1.0403,-0.0132,91,3.505,67,-9.8875,3.226,-14.8173,-1.6106,0.5931,-0.3569,88,6382.729,123406,3.619,7.9993,0.8807,0.4108,-0.5914,-1.064,60
3.704,71,-0.1698,-5.1325,-14.9034,1.7305,0.8826,-0.283,91,3.557,68,-9.1388,6.8394,-14.3403,-1.8555,-0.2145,-0.178,88,6382.78,123407,2.8639,5.8115,-1.6395,0.9737,-0.9,-1.2753,60
3.756,72,-0.5672,-4.8212,-14.7118,1.8513,0.7995,-0.6629,91,3.609,69,-10.4945,5.4258,-14.3147,-2.0342,-0.1952,-0.8096,88,6382.832,123408,2.327,4.214,-3.4794,1.3845,-1.1187,-1.4294,60
3.808,73,-1.3829,-5.4327,-13.9763,1.5969,0.9919,-1.1588,91,3.661,70,-11.0368,2.1853,-14.0875,-2.1647,-0.2246,-1.2773,88,6382.884,123409,1.9455,3.0549,-4.8598,1.6844,-1.2725,-1.5421,60
3.86,74,-2.4403,-6.7017,-14.0526,1.3453,1.0845,-1.5208,91,3.713,71,-11.4706,-1.1994,-15.2248,-2.0116,-0.2992,-1.2071,88,6382.936,123410,1.6519,2.2226,-5.8365,1.9032,-1.3776,-1.6241,60
3.911,75,-1.818,-10.0889,-13.7209,0.8115,1.199,-1.6478,91,3.764,72,-10.5224,-2.3083,-14.7507,-1.3932,-0.6537,-0.6706,88,6382.987,123411,1.4371,1.6235,-6.5417,2.0629,-1.4482,-1.6844,60
3.963,76,0.4427,-11.0702,-13.3037,1.2667,1.5575,-1.1086,91,3.816,73,-10.0164,-2.1829,-13.897,-0.5574,-1.1259,0.0927,88,6383.039,123412,1.2698,1.2039,-7.0645,2.1795,-1.4924,-1.729,60
4.015,77,-4.8126,-12.6061,-12.6499,0.2471,1.8191,-0.4696,91,3.868,74,-8.6509,-1.3171,-12.132,-0.034,-1.4944,0.7276,88,6383.091,123413,1.1443,0.9132,-7.4298,2.2646,-1.5195,-1.7623,60
4.067,78,-3.6356,-13.8012,-16.4861,-0.1971,1.5781,0.3339,91,3.92,75,-6.8285,-2.5595,-11.2059,0.5812,-1.7634,1.1964,88,6383.143,123414,1.0533,0.707,-7.7081,2.3267,-1.5318,-1.7878,60
4.119,79,-4.2007,-10.0962,-18.0342,-0.344,0.5706,0.9204,91,3.972,76,-5.1741,-1.5827,-10.8307,1.0959,-1.9597,1.5386,88,6383.195,123415,0.9858,0.5515,-7.9374,2.372,-1.5338,-1.8087,60
4.17,80,-5.1194,-5.8274,-17.919,-0.7179,-0.2529,1.2221,91,4.023,77,-3.3748,-1.3345,-11.4475,1.1686,-2.1029,1.7883,88,6383.247,123416,0.9225,0.4354,-8.1255,2.4051,-1.5298,-1.8248,60
4.222,81,-2.7961,-3.6214,-15.9894,-1.1872,-0.8539,0.2828,91,4.075,78,1.3828,2.0147,-9.6529,1.4992,-2.2075,1.9706,88,6383.298,123417,0.8728,0.3397,-8.263,2.4292,-1.5214,-1.838,60
4.274,82,-1.6167,-4.0579,-14.4045,-1.0297,-0.72,-0.4687,91,4.127,79,5.3247,3.0241,-9.6156,1.7086,-2.0749,2.0911,88,6383.35,123418,0.8324,0.2688,-8.3811,2.4468,-1.5105,-1.8494,60
4.326,83,-2.6124,-4.409,-12.8131,-0.279,-0.4787,-1.0172,91,4.179,80,6.5162,6.7198,-8.7851,1.9187,-1.6887,1.9926,88,6383.402,123419,0.7637,0.2036,-8.4793,2.4597,-1.4979,-1.8588,60
4.378,84,-2.0443,-4.2104,-12.4092,0.1561,-0.1394,-1.4175,91,4.231,81,8.347,7.0375,-9.0944,1.4439,-1.8696,2.1197,88,6383.454,123420,0.7071,0.1416,-8.5762,2.4691,-1.4848,-1.8671,60
4.429,85,0.3247,-4.2395,-12.2013,0.7883,-0.2546,-1.7097,91,4.282,82,8.4062,6.9908,-9.5127,1.5969,-1.4912,2.2124,88,6383.505,123421,0.6257,0.0444,-8.6554,2.4759,-1.4726,-1.874,60
4.481,86,1.9698,-4.8087,-11.6179,1.2497,-0.2974,-1.9229,91,4.334,83,8.972,8.1693,-10.4056,1.8372,-0.9921,1.9634,88,6383.557,123422,0.4292,0.1321,-8.8578,2.4809,-1.4625,-1.8806,60
4.533,87,5.4204,-6.9207,-9.2171,1.5825,-0.6004,-2.0785,91,4.386,84,8.237,9.005,-11.0776,1.7643,-0.6513,1.8965,88,6383.609,123423,3.6171,-3.093,-3.9014,2.4845,-1.7305,-2.0486,60
4.585,88,6.5514,-6.6229,-9.1411,1.4217,-1.0918,-2.1921,91,4.438,85,8.3798,8.8487,-11.858,1.2628,-0.5219,2.0268,88,6383.661,123424,6.4725,-5.3488,-0.284,2.4872,-1.9261,-2.1712,60
4.636,89,7.0329,-6.6152,-7.8609,1.712,-0.8094,-2.275,91,4.49,86,7.7802,8.6509,-12.0684,0.257,-0.5413,2.1446,88,6383.713,123425,8.751,-6.6712,2.3561,2.4892,-2.0688,-2.2607,60
4.688,90,9.0817,-6.2696,-7.3738,1.3065,-1.1491,-2.3355,91,4.542,87,7.1395,7.7445,-12.094,-0.4545,-0.6122,2.1114,88,6383.764,123426,11.7452,0.4621,3.3027,2.4906,-1.9954,-2.326,60
4.74,91,9.4844,-6.8556,-7.2025,1.2765,-0.9765,-2.3797,91,4.593,88,7.0233,7.3558,-12.0071,-0.9552,-0.6354,1.9967,88,6383.816,123427,8.7781,0.0478,-0.1645,2.3551,-2.0924,-2.3737,60
4.792,92,9.643,-6.5435,-6.9818,1.606,-1.2985,-2.3857,91,4.645,89,7.5571,6.3322,-12.2155,-1.3771,-0.4674,1.7817,88,6383.868,123428,6.7241,-0.1743,-2.5939,2.2736,-2.1592,-2.4085,60
4.843,93,9.6147,-5.2241,-6.3224,1.8465,-1.355,-2.0664,91,4.697,90,7.5678,4.5421,-12.3533,-1.5152,-0.015,1.1919,88,6383.919,123429,5.2407,-0.3367,-4.3567,2.228,-2.196,-2.4339,60
4.895,94,9.1146,-3.5169,-5.5754,1.6531,-1.1472,-1.7074,91,4.749,91,9.5976,3.2275,-13.1331,-0.4491,-0.186,0.2797,88,6383.971,123430,4.1703,-0.4451,-5.6306,2.2105,-2.2062,-2.4524,60
4.947,95,8.8051,-1.8786,-5.6815,0.7758,-0.7414,-1.1764,91,4.801,92,9.5684,1.4585,-13.7527,-1.0078,0.0236,0.2141,88,6384.023,123431,3.387,-0.5184,-6.5396,2.2117,-2.1998,-2.4659,60
4.999,96,8.4738,-1.4356,-6.2221,-0.0843,-0.3413,-0.6356,91,4.853,93,8.9252,-0.5514,-13.5352,-0.4894,0.4175,-0.3729,88,6384.075,123432,2.8285,-0.5607,-7.1917,2.2276,-2.1759,-2.4758,60
5.051,97,8.2484,-0.9623,-6.5474,-0.412,-0.0752,-0.1483,91,4.904,94,8.519,-0.3545,-12.7589,0.3048,0.559,-0.7864,88,6384.126,123433,2.3952,-0.5993,-7.6628,2.2524,-2.1421,-2.483,60
5.103,98,7.7002,-0.4066,-7.0036,-0.5881,0.0804,0.2044,91,4.956,95,7.9573,-0.4271,-12.2622,0.2685,0.626,-0.6112,88,6384.178,123434,2.1146,-0.6368,-7.9984,2.2825,-2.0984,-2.4883,60
5.155,99,10.6762,-0.0869,-8.7087,-0.4616,-0.1243,0.4657,91,5.008,96,7.8881,0.0593,-11.9195,0.0666,0.5287,-0.099,88,6384.23,123435,1.922,-0.6587,-8.2322,2.3125,-2.0495,-2.4921,60
5.206,100,10.2832,-0.2606,-8.2398,-0.4445,0.1548,0.9538,91,5.06,97,8.2262,0.448,-11.9498,0.0417,0.3542,0.2541,88,6384.282,123436,1.819,-0.6635,-8.4025,2.3434,-1.9932,-2.4949,60
5.258,101,9.5206,0.238,-8.4781,0.1551,0.1346,1.0163,91,5.112,98,8.0086,0.5397,-12.1374,0.275,0.3938,0.2024,88,6384.333,123437,1.7389,-0.6813,-8.52,2.371,-1.9306,-2.497,60
5.31,102,8.8319,1.2723,-8.6617,0.2994,0.2764,1.0198,91,5.163,99,8.0918,1.0357,-11.8837,0.5923,0.334,0.0951,88,6384.385,123438,1.6973,-0.6925,-8.6135,2.397,-1.8666,-2.4984,60
5.361,103,8.265,0.5954,-9.1296,0.0782,0.3096,0.9698,91,5.215,100,8.0524,1.1608,-11.6531,0.5571,0.1758,0.0961,88,6384.437,123439,1.7144,-0.6716,-8.6627,2.4198,-1.7966,-2.4995,60
5.413,104,8.5892,0.1031,-9.9738,0.2974,0.2114,0.8734,91,5.267,101,7.8338,0.6053,-11.4231,0.4651,0.1148,0.0602,88,6384.489,123440,1.7607,-0.621,-8.6883,2.4387,-1.7253,-2.5003,60
5.465,105,8.7734,0.0761,-10.4735,0.3494,0.1112,0.7595,91,5.319,102,8.0951,0.9275,-11.1353,0.5186,-0.0075,0.051,88,6384.54,123441,1.8549,-0.5344,-8.7058,2.4537,-1.6478,-2.5009,60
5.517,106,8.4231,-0.4723,-10.2413,0.3274,-0.0856,0.6273,91,5.371,103,8.1078,0.9375,-10.8556,0.2878,-0.0161,0.1847,88,6384.592,123442,6.7122,-5.5282,-8.9607,1.8124,-1.654,-2.5013,60
5.569,107,8.2868,-0.1091,-10.0329,0.3071,-0.1955,0.4774,91,5.422,104,8.0381,1.0122,-10.731,0.1738,-0.0222,0.2847,88,6384.644,123443,5.637,-4.2153,-9.234,1.9967,-1.833,-2.5016,60
5.62,108,8.264,-0.8902,-9.4199,0.1046,-0.3495,0.3208,91,5.474,105,7.953,1.3274,-10.8251,0.1529,-0.0202,0.3344,88,6384.696,123444,4.6612,-3.2135,-8.8875,2.1311,-1.9499,-2.5019,60
5.672,109,8.4124,-1.35,-9.0779,0.3599,-0.4282,0.2208,91,5.526,106,7.8399,1.4674,-10.9006,0.0669,0.0222,0.2877,88,6384.748,123445,3.9458,-2.4645,-8.6254,2.2293,-2.0097,-2.502,60
5.724,110,8.824,-1.3014,-8.7921,0.4644,-0.3558,0.2108,91,5.578,107,7.7409,1.5732,-11.1281,0.1033,0.0785,0.1442,88,6384.799,123446,3.4218,-1.9033,-8.462,2.3009,-2.0328,-2.5022,60
5.776,111,8.7344,-0.7616,-8.6782,0.2556,-0.1691,0.2732,91,5.63,108,7.8146,1.6825,-11.4197,0.4164,0.1718,-0.1449,88,6384.851,123447,-1.2683,-6.647,-8.7834,1.9538,-1.4,-2.5022,60
5.828,112,8.5992,-1.0192,-8.7824,-0.1373,-0.0221,0.3008,91,5.681,109,8.0395,2.0524,-11.5055,0.6576,0.1598,-0.5427,88,6384.903,123448,-2.7516,-6.6725,-10.2757,1.0411,-0.3705,-2.5023,60
5.879,113,8.5469,-1.4673,-9.0001,-0.2179,0.0545,0.2712,91,5.733,110,8.183,1.9259,-11.4474,0.7163,0.1159,-0.8887,88,6384.954,123449,-2.2181,-4.2056,-9.7967,0.2144,0.4183,-2.5024,60
5.931,114,8.4832,-1.6762,-8.9837,-0.3285,0.1135,0.2399,91,5.785,111,8.1692,1.9624,-11.3278,0.8177,0.039,-1.1352,88,6385.006,123450,-1.8792,-2.4048,-9.4453,-0.4173,0.9939,-2.5024,60
5.983,115,8.2358,-2.1194,-8.8819,-0.4936,0.1705,0.2133,91,5.837,112,8.1547,1.8493,-11.2395,0.7516,0.0034,-1.165,88,6385.058,123451,-6.6031,3.576,-6.3299,-0.9615,1.3387,-2.4909,60
6.035,116,8.1045,-2.4595,-8.6941,-0.6419,0.2151,0.1804,91,5.889,113,8.0382,1.708,-11.2919,0.7972,-0.0287,-1.0356,88,6385.11,123452,-4.9416,2.595,-6.0369,-1.256,0.314,-2.0788,60
6.086,117,8.1225,-3.0724,-8.5317,-0.6598,0.197,0.1694,91,5.94,114,7.742,2.0098,-11.3219,0.959,-0.068,-0.7535,88,6385.161,123453,-3.6389,1.8121,-6.0872,-1.4636,-0.4339,-1.7803,60
6.138,118,8.184,-3.4041,-8.3697,-0.4129,0.1539,0.2122,91,5.992,115,7.581,2.9036,-11.4742,1.1499,-0.0799,-0.5179,88,6385.213,123454,-2.6934,1.2381,-6.0914,-1.6052,-0.9798,-1.5651,60
6.19,119,8.2497,-3.4955,-8.3091,-0.1311,0.113,0.2549,91,6.044,116,7.3674,4.4354,-12.2063,1.4146,-0.1156,-0.5167,88,6385.265,123455,-1.9701,0.8153,-6.1021,-1.7008,-1.3782,-1.4091,60
6.242,120,8.0366,-3.4745,-8.2866,0.0652,0.1026,0.3141,91,6.096,117,6.078,6.6777,-13.4853,1.3198,-0.0702,-0.576,88,6385.317,123456,-1.4331,0.4985,-6.0982,-1.7617,-1.6689,-1.2976,60
6.294,121,7.7263,-3.4222,-8.3007,0.1552,0.1256,0.3413,91,6.148,118,5.1923,8.0397,-15.7334,0.6684,-0.5282,-0.5631,88,6385.369,123457,2.3062,-4.894,-1.8873,-1.9343,-1.8812,-0.938,60
6.345,122,7.5785,-3.5066,-8.4821,0.0633,0.1639,0.2844,91,6.199,119,3.5222,9.6168,-18.5506,-0.1922,-1.0581,-0.3478,88,6385.42,123458,1.3115,-1.9856,0.5773,-1.9815,-2.036,-1.3607,60
6.397,123,7.6794,-3.5161,-8.0579,-0.2044,0.263,0.3624,91,6.251,120,3.5374,6.5589,-19.0547,-0.8203,-1.4449,-0.2225,88,6385.472,123459,0.0244,-1.3392,2.6914,-1.374,-1.4533,-1.6461,60
6.449,124,7.3759,-3.0428,-8.1261,-0.8265,0.5583,0.5987,91,6.303,121,2.7689,6.6019,-20.482,-0.8856,-1.7272,-0.3172,88,6385.524,123460,-1.0799,-1.8904,3.0865,-0.8605,-0.3736,-1.7782,60
6.501,125,6.8354,-4.1836,-8.573,-1.2806,0.9116,1.0305,91,6.355,122,3.8836,10.1452,-22.8885,-0.915,-0.5815,-0.304,88,6385.576,123461,-1.0829,1.657,2.5286,-0.576,0.416,-1.9739,60
6.553,126,4.669,-5.2427,-10.9749,-1.612,0.6857,0.934,91,6.407,123,5.1875,10.4834,-19.9883,-1.3267,-0.5349,-0.5856,88,6385.627,123462,-0.4367,5.2883,1.5235,0.2535,0.9923,-2.1167,60
6.605,127,7.9074,-1.7825,-5.4188,-1.164,-0.1689,0.9892,91,6.459,124,5.2793,10.2408,-18.7922,-1.6483,-0.7638,-0.3145,88,6385.679,123463,0.0529,4.2886,0.0487,0.8589,1.4129,-2.2192,60
6.656,128,5.3853,-6.4987,-3.2168,-0.5131,-0.5128,1.1761,91,6.51,125,4.5269,9.8155,-16.8726,-1.5213,-0.543,-0.3014,88,6385.731,123464,0.407,3.5768,-1.1123,1.3008,1.7198,-2.2937,60
6.708,129,4.511,-8.6212,-8.8188,-1.0519,-0.2452,0.9872,91,6.562,126,5.3186,6.8277,-14.8902,-1.2939,-0.4727,-0.0124,88,6385.783,123465,0.6636,3.0489,-2.0108,1.6232,1.9439,-2.3476,60
6.76,130,3.4181,-11.4899,-11.1181,-1.4451,-0.404,1.3971,91,6.614,127,6.1627,5.144,-13.659,-0.592,-0.2284,0.3722,88,6385.834,123466,0.8535,2.6683,-2.6829,1.8586,2.1074,-2.3889,60
6.812,131,4.1176,-10.1403,-12.4127,-0.4307,-0.9642,1.4272,91,6.666,128,7.2628,5.3731,-13.1857,0.072,-0.0492,0.8258,88,6385.886,123467,0.6054,3.8789,-4.5544,1.6089,2.2139,-2.4196,60
6.863,132,3.7546,-9.5026,-13.1456,-0.1455,-0.8609,1.4376,91,6.718,129,7.5036,6.1413,-12.8504,0.3719,0.1452,1.1465,88,6385.938,123468,0.6726,5.3483,-11.3496,1.7621,1.9048,-2.442,60
6.915,133,4.3149,-8.2699,-13.7575,0.5621,-0.722,1.3335,91,6.769,130,7.7219,6.2972,-12.5558,0.3487,0.227,1.4011,88,6385.989,123469,-4.3237,9.2345,-13.6767,1.7962,1.4434,-2.4583,60
6.967,134,6.5178,-6.5303,-12.5696,0.5389,-0.2395,1.0511,91,6.821,131,7.4895,6.9977,-12.0842,0.5317,0.4078,1.5841,88,6386.041,123470,-6.7038,2.7069,-13.8914,1.9478,0.9008,-2.2145,60
7.019,135,7.7061,-6.1497,-12.0067,0.4085,0.3543,0.6131,91,6.873,132,6.7139,7.7162,-11.4539,0.664,0.5933,1.5911,88,6386.093,123471,-6.7845,1.0102,-13.8627,1.3101,0.5103,-2.2923,60
7.071,136,8.3521,-5.1981,-12.1021,0.7306,0.8076,0.0724,91,6.925,133,5.7876,7.6974,-11.6191,1.1469,0.7459,1.2884,88,6386.145,123472,-5.1663,0.0186,-13.8644,0.8066,0.4598,-2.3491,60
7.122,137,8.2904,-4.2239,-12.7563,0.7902,1.2634,-0.5546,91,6.977,134,4.8107,7.4325,-11.9746,1.5088,0.9443,0.8062,88,6386.197,123473,-3.8879,0.1457,-13.434,0.4813,0.2631,-2.3905,60
7.174,138,8.6625,-4.2778,-13.248,0.5761,1.5836,-1.0799,91,7.028,135,3.5162,7.6034,-11.2358,1.4572,0.8739,0.8034,88,6386.248,123474,-2.7158,0.0996,-12.4766,0.4735,0.089,-2.4208,60
7.226,139,8.8142,-5.0896,-13.4342,0.6444,1.806,-1.4633,91,7.08,136,4.9021,5.6754,-11.3205,0.7009,0.6321,1.0413,88,6386.3,123475,-1.8588,0.0699,-11.7689,0.4701,-0.0309,-2.4428,60
7.278,140,8.6982,-5.5429,-13.2304,0.9339,1.7076,-1.7431,91,7.132,137,4.0107,-0.8916,-15.1592,-0.0421,-0.0736,1.2781,88,6386.352,123476,-1.2063,0.0425,-11.277,0.4719,-0.1111,-2.459,60
7.329,141,7.8313,-6.6164,-13.1022,1.091,1.513,-1.7643,91,7.184,138,6.7478,0.1317,-16.0567,0.1962,-0.7264,0.9898,88,6386.404,123477,-0.5823,0.0281,-10.9496,0.4759,-0.1622,-2.4707,60
7.381,142,7.0866,-7.7871,-12.9477,1.3616,1.1943,-1.356,91,7.236,139,9.8441,5.423,-9.0711,0.7427,-1.2028,1.3811,88,6386.455,123478,-0.3613,1.332,-10.4936,1.0212,-0.5227,-1.1275,60
7.433,143,3.2859,-8.1242,-13.1623,1.667,0.9557,-0.6651,91,7.287,140,12.1039,9.2848,-3.9727,0.4842,-0.663,1.3355,88,6386.507,123479,-1.6632,1.8862,-9.3399,1.4192,-0.8906,-0.1472,60
7.485,144,3.0906,-6.949,-13.3877,1.8905,0.2456,0.1406,91,7.339,141,12.06,3.5219,-10.8392,-0.1297,-0.2917,1.2539,88,6386.559,123480,-1.3436,2.5718,-6.8786,1.7084,-1.2797,0.5682,60
7.537,145,4.8128,-4.5189,-14.3794,2.0541,-0.3373,0.0941,91,7.391,142,13.7212,2.5121,-10.4411,0.0008,-0.6042,0.8865,88,6386.611,123481,-1.9801,3.2412,-7.0059,1.9207,-1.5971,1.0904,60
7.588,146,7.4388,-0.7455,-14.9441,1.8212,-0.7585,0.0286,91,7.443,143,13.2102,1.3754,-11.898,0.6521,-0.7138,0.3124,88,6386.662,123482,-2.3794,3.8415,-7.0514,2.0757,-1.8287,1.4715,60
7.64,147,8.0389,4.8458,-16.4679,0.9307,0.1271,-0.1398,91,7.495,144,13.0113,2.2009,-12.4527,0.1243,-0.782,-0.1023,88,6386.714,123483,-2.8896,3.7261,-7.2961,2.1888,-1.6501,1.7497,60
7.692,148,10.0827,6.9018,-13.1892,0.7497,0.664,-0.6038,91,7.546,145,12.9643,1.7906,-12.6935,-0.4205,-0.6556,-0.7149,88,6386.766,123484,-3.1569,3.6763,-7.4741,2.2714,-1.5552,1.9527,60
7.744,149,9.9782,6.1395,-12.5005,-0.0994,0.6673,-0.7967,91,7.598,146,12.0356,2.1032,-13.2835,-0.3095,-0.4886,-1.2081,88,6386.818,123485,3.0543,-2.5747,-9.2898,2.3316,-1.7755,2.1008,60
7.796,150,10.1803,3.9922,-11.7413,-0.7499,0.4287,-0.6861,91,7.65,147,10.6161,1.8552,-13.8435,-0.2031,-0.3272,-1.5681,88,6386.869,123486,0.1262,-1.5245,-4.2639,1.8243,-1.9589,1.5205,60
7.847,151,9.6207,-0.9999,-10.536,-0.3155,0.3651,-0.5787,91,7.702,148,8.812,2.4049,-14.3762,-0.4537,-0.1987,-1.8309,88,6386.921,123487,5.4505,2.8137,-0.5486,1.1875,-1.8197,1.4153,60
7.899,152,10.5029,-2.2443,-10.556,-0.4362,0.147,-0.0279,91,7.754,149,7.5237,3.1249,-14.1331,-0.4736,-0.1674,-1.8858,88,6386.973,123488,6.8529,2.3384,-2.3,0.3876,-1.3034,1.4943,60
7.951,153,12.6308,-1.9595,-10.5128,-0.6121,-0.1364,0.5835,91,7.806,150,6.2658,3.8496,-13.2927,-0.4482,-0.1951,-1.913,88,6387.025,123489,7.2066,6.8013,-4.1327,0.1949,-1.4948,1.3555,60
