right_hand_timestamp,right_hand_index,right_hand_accel_x,right_hand_accel_y,right_hand_accel_z,right_hand_gyro_x,right_hand_gyro_y,right_hand_gyro_z,right_hand_battery_percentage,left_hand_timestamp,left_hand_index,left_hand_accel_x,left_hand_accel_y,left_hand_accel_z,left_hand_gyro_x,left_hand_gyro_y,left_hand_gyro_z,left_hand_battery_percentage,ball_timestamp,ball_index,ball_accel_x,ball_accel_y,ball_accel_z,ball_gyro_x,ball_gyro_y,ball_gyro_z,ball_battery_percentage
0.439,8,4.2486,-3.2883,-11.7996,0.7588,0.6186,-1.2654,91,0.201,3,9.7706,-0.91,-9.8832,0.0943,-0.746,0.2122,85,12768.213,246880,-3.7578,-3.1323,-4.4678,-0.5733,0.3386,0.1375,59
0.49,9,8.1576,-3.6091,-9.802,1.2282,-0.2178,-1.5986,91,0.253,4,7.8929,4.6627,-6.6721,0.7406,0.1346,-0.4324,85,12768.265,246881,-3.0167,-1.9776,-6.5902,-0.4716,0.4294,0.0808,59
0.542,10,11.0106,-5.3249,-9.8571,0.219,0.499,-1.7577,91,0.305,5,5.7031,5.473,-5.1651,-0.1395,0.5981,-0.82,85,12768.317,246882,-0.2252,0.9372,-9.8239,-0.3539,0.5743,0.1026,59
0.594,11,9.8443,-9.0841,-12.0252,-0.5175,1.0223,-0.9098,90,0.356,6,5.6112,6.0377,-4.3997,0.526,1.1156,-1.2849,85,12768.368,246883,2.4239,3.4861,-13.2823,0.1901,0.7745,-0.1804,59
0.646,12,5.625,-11.8277,-13.4001,0.0999,1.0286,0.0126,90,0.408,7,5.197,7.4897,-4.8537,1.0557,1.4933,-1.6241,85,12768.42,246884,2.2434,2.9992,-11.9021,0.3841,1.2539,-0.8077,59
0.698,13,5.6155,-11.5816,-13.0559,-0.2669,0.2797,0.6858,90,0.46,8,3.9595,9.6659,-5.3246,1.4422,1.7432,-1.8717,85,12768.472,246885,1.7046,2.5303,-10.954,0.4985,1.6038,-1.2656,59
0.749,14,4.0456,-11.7453,-13.4972,-0.8722,0.2849,1.1772,90,0.512,9,3.9982,9.9712,-6.948,1.7243,1.186,-2.0524,85,12768.524,246886,1.2969,2.1455,-10.2343,0.5655,1.8592,-1.5997,59
0.801,15,4.2067,-13.5047,-14.3813,-1.3139,-0.4614,1.5358,90,0.564,10,3.4987,7.3085,-7.6709,1.6468,0.6808,-1.8251,85,12768.576,246887,-4.285,-3.692,-4.9061,0.9174,1.031,-0.9121,59
0.853,16,4.7916,-12.6734,-14.763,-1.6312,-1.0061,1.7975,90,0.615,11,3.2921,8.4702,-10.599,1.8046,-0.1451,-0.8239,85,12768.627,246888,-3.1729,-2.5555,-5.7225,1.3411,0.2267,-0.0614,59
0.905,17,4.7955,-10.9301,-13.8006,-1.8678,-1.1014,1.8599,90,0.667,12,7.3224,11.5088,-5.0878,1.9883,-0.7786,-1.2565,85,12768.679,246889,-2.4408,-1.7039,-6.5083,1.6492,-0.3712,0.6034,59
0.957,18,3.6624,-6.906,-14.8287,-0.9334,-1.0218,0.9365,90,0.719,13,1.1272,13.2528,-6.9241,0.8712,-0.9031,-1.6034,85,12768.731,246890,-1.8799,-1.0754,-7.0898,1.8715,-0.8122,1.0982,59
1.008,19,7.7298,-10.238,-10.8893,-1.3586,-1.4151,0.6561,90,0.771,14,-0.1461,11.8159,-8.3555,0.0695,-0.1561,-1.8566,85,12768.783,246891,-1.4638,-0.618,-7.5198,2.0303,-1.1419,1.461,59
1.06,20,5.9635,-10.5161,-12.8484,-0.3561,-0.5319,0.9309,90,0.823,15,-2.9726,11.1269,-9.6442,-0.3744,-0.7488,-2.0414,85,12768.834,246892,-1.169,-0.2915,-7.8438,2.1435,-1.3901,1.727,59
1.112,21,2.91,-9.9146,-15.679,-0.4726,-0.2482,1.1738,90,0.874,16,-3.965,10.9066,-9.1476,-0.8302,-0.3734,-2.1763,85,12768.886,246893,-0.9472,-0.0344,-8.0361,2.2191,-1.577,1.9198,59
1.164,22,-2.816,-6.7951,-18.8316,-0.1799,-0.0317,1.5201,90,0.926,17,-3.3164,7.7607,-8.6634,-1.1404,-0.4021,-2.2067,85,12768.938,246894,-0.7874,0.1581,-8.1905,2.2727,-1.7196,2.0612,59
1.216,23,-3.0787,-8.5951,-19.0444,-0.6595,-0.6924,1.3759,90,0.978,18,-3.3342,6.2634,-9.0984,-1.4709,-0.2315,-2.0056,85,12768.99,246895,-2.7058,5.4465,-9.9644,1.8657,-1.9052,1.7715,59
1.267,24,-2.7154,-6.6316,-17.34,0.036,-1.0647,1.6322,90,1.03,19,-2.8141,3.2635,-9.7572,-1.7536,-0.1968,-1.4414,85,12769.041,246896,-0.1791,5.1677,-6.7534,0.6856,-1.0213,1.2229,59
1.319,25,-2.2628,-5.055,-15.4503,0.1193,-1.1225,1.5442,90,1.082,20,-1.4169,1.5344,-10.7645,-1.9434,-0.8065,-0.4483,85,12769.093,246897,-0.5764,3.3085,-3.32,-0.1775,-0.5348,0.8699,59
1.371,26,-1.6744,-3.1459,-13.7886,0.2619,-1.0498,1.0191,90,1.134,21,0.4352,-0.1913,-10.7461,-2.0502,-1.2613,0.3382,85,12769.145,246898,-0.3792,2.5032,-2.072,-0.4165,-0.3879,0.7717,59
1.423,27,-0.8401,-1.6943,-12.114,0.7122,-0.8387,0.1879,90,1.185,22,2.5232,2.9334,-11.383,-2.1763,-1.5932,0.9122,85,12769.196,246899,-0.0503,1.9356,-2.3355,-0.1574,-0.3786,0.7286,59
1.475,28,0.9731,0.3801,-10.6831,1.1941,-1.088,-0.538,90,1.237,23,6.7612,-3.1199,-14.8097,-2.2684,-1.8355,0.5858,85,12769.248,246900,0.2668,1.6972,-3.3966,0.0366,-0.43,0.7871,59
1.526,29,5.0658,0.052,-9.4297,1.1891,-1.1553,-1.0677,90,1.289,24,9.8544,1.512,-11.3782,-0.9839,-0.7623,-0.2581,85,12769.3,246901,0.0026,0.7658,-4.9047,0.2237,-0.3258,0.7021,59
1.578,30,8.5911,-5.1598,-9.5537,1.5422,-0.5716,-1.4544,90,1.341,25,8.8416,2.841,-6.2234,-0.0463,0.1227,-0.6353,85,12769.352,246902,-0.8458,0.3306,-6.9717,0.3497,-0.363,0.6374,59
1.63,31,11.327,-4.8029,-12.4845,0.4482,-0.0894,-0.8297,90,1.393,26,5.8941,6.1167,-3.5948,0.1767,0.7686,-0.5184,85,12769.404,246903,-1.675,0.2736,-9.555,0.5074,-0.3521,0.4717,59
1.682,32,6.4489,-8.7031,-17.1082,-0.3502,0.6172,0.0711,90,1.444,27,6.4616,7.2962,-3.1026,0.4141,1.2401,-1.0622,85,12769.455,246904,-2.8636,0.2915,-14.1816,0.7222,-0.2971,-0.0556,59
1.733,33,3.3376,-9.9964,-18.7213,-0.1143,-0.1037,0.7285,90,1.496,28,5.7676,7.4538,-3.6531,0.974,1.5841,-1.4616,85,12769.507,246905,-1.0495,-0.7558,-16.6128,1.1307,0.3142,-0.7166,59
1.785,34,3.7752,-11.6695,-18.5451,-0.7608,-0.745,1.2083,90,1.548,29,5.1944,9.7925,-5.4315,1.3826,1.8353,-1.7531,85,12769.559,246906,-0.6592,-0.3296,-14.5735,1.0801,0.561,-1.1991,59
1.837,35,5.0397,-11.1161,-17.8065,-1.2326,-1.2131,1.5585,90,1.6,30,5.272,9.0123,-6.0623,1.6808,1.4369,-1.9659,85,12769.611,246907,-0.3545,-0.0029,-13.0891,1.0321,0.7502,-1.5512,59
1.889,36,5.2239,-10.8328,-17.6863,-1.3426,-1.5547,1.8141,90,1.652,31,2.2032,10.7415,-5.1134,1.8984,1.6893,-2.1212,85,12769.662,246908,-0.3158,0.3522,-11.6372,0.9857,0.8956,-1.8082,59
1.94,37,5.3362,-8.8092,-17.9985,-1.5304,-1.804,1.8902,90,1.704,32,-1.0207,5.9135,-2.1001,1.4725,1.1376,-1.9166,85,12769.714,246909,-0.13,0.0567,-13.2342,0.1247,0.7712,-1.2395,59
1.992,38,2.3005,-8.1607,-17.5523,-1.6695,-1.832,1.7808,90,1.756,33,-0.8,6.6549,-0.5815,0.3985,0.1576,-1.2174,85,12769.766,246910,0.01,0.0719,-12.086,-0.5513,0.6868,-0.6354,59
2.044,39,-3.8533,-9.3033,-18.3339,-1.2739,-1.8194,1.1898,90,1.807,34,-0.5422,9.446,-1.2985,0.2444,0.7844,-1.1348,85,12769.818,246911,0.1223,0.0863,-11.299,-1.0588,0.6273,-0.1787,59
2.096,40,-2.3234,-10.8105,-18.9796,-0.8017,-1.9972,0.5287,90,1.859,35,-1.4738,9.6987,-2.955,-0.0908,0.6065,-1.49,85,12769.869,246912,0.1866,0.0731,-10.7118,-1.4276,0.5851,0.1536,59
2.148,41,-1.0439,-9.7091,-21.8486,-1.2619,-0.7753,0.4325,90,1.911,36,-3.2712,9.0735,-4.9396,-0.3648,0.6426,-1.7729,85,12769.921,246913,0.2262,0.0716,-10.2849,-1.6971,0.5569,0.3961,59
2.199,42,-0.5338,-11.0865,-19.1105,-0.4436,-0.5137,0.8777,90,1.963,37,-4.7576,6.3275,-5.6325,-0.4823,0.6062,-1.7902,85,12769.973,246914,0.2516,0.0568,-9.9768,-1.8936,0.5378,0.5729,59
2.251,43,-4.3695,-9.497,-17.9799,-0.0776,-0.1607,1.3172,90,2.015,38,-5.0053,3.6826,-6.6794,-0.5713,0.2968,-1.3635,85,12770.025,246915,-2.8064,-0.0585,-10.0055,-2.0171,0.4339,-0.2164,59
2.303,44,-4.0778,-8.0941,-15.603,-0.0045,-0.6399,1.4877,90,2.066,39,-3.3714,1.6892,-7.7766,-0.6104,-0.144,-0.6438,85,12770.077,246916,-7.1256,0.8665,-7.9646,-2.0677,0.4149,-0.0025,59
2.355,45,-4.435,-5.211,-13.8568,0.324,-0.5555,1.3576,90,2.118,40,-1.1221,1.0227,-8.8908,-0.5045,-0.5174,0.1925,85,12770.128,246917,-4.9872,3.2632,-4.0382,-1.6563,-0.0006,0.2267,59
2.407,46,-2.5934,-2.3604,-12.5666,0.4844,-0.7486,0.7788,90,2.17,41,1.2872,0.0325,-9.86,-0.6769,-1.0503,0.8059,85,12770.18,246918,-6.2185,-0.7838,-2.3849,-1.6048,0.1003,0.0135,59
2.458,47,0.3619,-1.3963,-11.8566,0.0974,-0.8488,0.0596,90,2.222,42,4.3237,3.5504,-9.9454,-1.042,-1.4392,1.2536,85,12770.232,246919,-5.8161,-0.8625,-2.3145,-1.8374,0.4028,0.0303,59
2.51,48,2.5204,-1.5589,-12.7435,0.0288,-0.3836,-0.6316,90,2.274,43,8.0754,7.474,-15.1984,-1.4405,-1.7231,1.5803,85,12770.284,246920,-4.8197,-0.7768,-4.8203,-1.6284,0.4849,0.1332,59
2.562,49,3.1447,-3.5689,-11.0702,0.5433,0.0701,-1.1361,90,2.325,44,10.8135,0.194,-14.9399,-0.3796,-1.9303,0.6225,85,12770.335,246921,-3.5777,-0.8421,-7.4014,-1.1821,0.4584,0.1363,59
2.614,50,6.7139,-2.1523,-11.0488,-0.1597,-0.6181,-1.5043,90,2.377,45,12.8119,5.4685,-12.2301,0.3947,-0.7744,-0.232,85,12770.387,246922,-2.3622,-1.1098,-8.7369,-0.9226,0.4723,0.0251,59
2.666,51,9.9569,-6.7685,-9.0634,0.2727,-0.4313,-1.773,90,2.429,46,10.6929,9.318,-8.2629,0.8956,0.1139,-0.2308,85,12770.439,246923,-0.6011,1.2214,-10.2324,-0.9471,0.5489,-0.2203,59
2.717,52,12.3238,-10.1377,-7.3678,-0.4783,0.2923,-1.249,90,2.481,47,10.6009,10.0733,-5.4652,0.9507,0.7601,-0.8548,85,12770.491,246924,1.131,5.5512,-12.2702,-0.7051,0.5445,-0.3342,59
2.769,53,10.8656,-12.5967,-11.4495,-1.0265,0.8957,-0.2349,90,2.533,48,10.43,11.4671,-5.1471,0.8803,1.2339,-1.3102,85,12770.542,246925,2.0187,7.7442,-12.3713,-0.6787,1.0757,0.1852,59
2.821,54,8.6552,-11.8146,-12.9416,-0.4789,0.7258,0.5052,90,2.584,49,10.4283,12.4015,-5.4892,0.6097,1.5796,-1.6427,85,12770.594,246926,1.4462,5.6182,-10.6884,-1.1732,1.4738,0.1366,59
2.873,55,7.4332,-10.5908,-12.5112,-0.8338,0.6068,1.0453,90,2.636,50,8.0191,12.494,-5.808,0.867,1.8233,-1.8853,85,12770.646,246927,1.0447,4.0452,-9.4294,-1.5342,1.7643,0.1032,59
2.925,56,5.594,-9.3778,-13.2055,-1.2859,0.1032,1.4396,90,2.688,51,4.7043,12.4841,-6.6587,1.3045,1.5168,-2.0623,85,12770.698,246928,0.4573,2.4615,-9.2487,-1.7976,1.9763,0.0824,59
2.976,57,2.9942,-9.0348,-12.3498,-1.6159,0.2788,1.7273,90,2.74,52,5.926,13.68,-6.6465,1.0131,0.4344,-2.1915,85,12770.749,246929,0.5937,1.6959,-10.168,-1.1066,1.245,-0.2841,59
3.028,58,-0.1392,-7.9257,-12.88,-1.7974,0.2652,1.5757,90,2.792,53,4.2349,10.7071,-7.2468,1.4111,0.7976,-2.2859,85,12770.801,246930,0.5133,1.2013,-10.0686,-0.5999,0.7115,-0.5482,59
3.08,59,0.8023,-9.6863,-15.6057,-1.9892,-0.4758,1.1796,90,2.843,54,2.7965,9.1093,-9.2169,1.384,-0.0677,-1.9137,85,12770.853,246931,0.4628,0.8743,-10.003,-0.2279,0.3234,-0.7395,59
3.132,60,0.3287,-7.9298,-15.5126,-1.3399,-0.3648,1.326,90,2.895,55,6.9608,5.4293,-4.1069,1.6568,0.1115,-1.9888,85,12770.905,246932,0.4325,0.6123,-9.972,0.0451,0.0413,-0.8783,59
3.183,61,-0.8811,-4.8851,-15.9854,-0.9711,-0.862,0.8638,90,2.947,56,2.2657,6.0236,-4.3038,0.6707,-0.4231,-1.7031,85,12770.956,246933,0.3965,0.4378,-9.9555,0.2465,-0.1635,-0.9792,59
3.235,62,2.1381,-5.8881,-9.0757,-1.0483,-0.2827,1.021,90,2.999,57,-1.2186,5.6886,-4.8983,0.2638,0.1815,-1.4454,85,12771.008,246934,0.356,0.2996,-9.9272,0.3947,-0.3118,-1.0522,59
3.287,63,-2.5658,-5.6911,-8.621,-0.9439,0.09,0.7844,90,3.051,58,-2.6315,5.0523,-5.3552,-0.0561,0.1686,-1.2808,85,12771.06,246935,0.3236,0.1701,-9.8977,0.5048,-0.4192,-1.1053,59
3.339,64,-2.8284,-4.9658,-10.681,-0.4658,-0.2235,0.6957,90,3.103,59,-3.4804,4.3129,-4.9348,-0.2464,0.0793,-1.0273,85,12771.112,246936,0.308,0.0817,-9.8672,0.5864,-0.4961,-1.1429,59
3.391,65,-5.4042,-3.6863,-12.7358,-0.2548,-0.197,0.7679,90,3.155,60,-4.2168,4.2901,-5.1859,-0.5793,0.1572,-0.7656,85,12771.163,246937,0.2919,-0.0038,-9.8408,0.6483,-0.5511,-1.17,59
3.442,66,-5.0114,-3.1624,-12.5058,-0.2525,-0.5598,0.5236,90,3.206,61,-3.4572,2.7336,-7.0292,-0.7978,-0.1126,-0.2884,85,12771.215,246938,-0.1649,-1.3146,-8.4938,0.8978,-0.272,-1.0044,59
3.494,67,-4.9929,-1.7224,-11.9043,-0.3005,-0.4769,0.1611,90,3.258,62,0.0183,0.4348,-7.122,-0.6894,-0.7548,0.4549,85,12771.267,246939,0.2751,-4.0013,-6.9712,0.6402,-0.3201,-0.9514,59
3.546,68,-4.2843,-0.4118,-11.332,-0.4549,-0.4333,-0.516,90,3.31,63,0.6423,1.663,-8.0529,-0.2201,-0.7754,0.9974,85,12771.319,246940,0.8079,-5.6978,-7.61,0.057,-0.2444,-0.8606,59
3.598,69,-2.0939,-0.304,-8.6939,-0.149,-0.2886,-1.0517,90,3.362,64,3.4665,4.3925,-9.5514,-0.0591,-1.2386,1.3933,85,12771.37,246941,1.2679,-5.4224,-8.6493,-0.0932,-0.1847,-0.6516,59
3.65,70,1.1395,1.2793,-10.0662,-0.0353,-0.1423,-1.4427,90,3.414,65,7.4497,2.2474,-12.0064,-0.7232,-1.5766,1.6823,85,12771.422,246942,1.5743,-5.1098,-9.2881,0.0436,-0.1743,-0.4233,59
3.701,71,4.332,-0.8334,-10.8827,-0.2186,0.5785,-1.728,90,3.465,66,10.3569,1.318,-15.0214,0.1439,-1.8234,1.5762,85,12771.474,246943,2.0985,-3.7207,-9.7614,0.206,-0.3113,-0.2142,59
3.753,72,8.2185,-5.806,-11.589,0.5132,1.1026,-1.9363,90,3.517,67,12.4786,3.4241,-12.4851,0.7768,-0.6517,0.464,85,12771.526,246944,1.7703,-3.4435,-10.378,0.4485,-0.516,-0.313,59
3.805,73,11.055,1.0974,-10.6605,0.0351,1.0199,-2.0883,90,3.569,68,9.5513,6.3816,-14.5348,1.2387,0.2035,-0.3477,85,12771.578,246945,1.0822,-0.1428,-10.2881,0.3593,-0.7006,-0.1822,59
3.857,74,9.9738,-4.3968,-15.777,-0.6518,1.4268,-0.8475,90,3.621,69,3.7124,9.1851,-13.9158,1.5758,0.8276,-0.9402,85,12771.629,246946,-0.013,5.2269,-9.4772,0.9316,-0.364,0.4627,59
3.909,75,9.1211,-5.8004,-18.7869,0.0911,0.372,0.0581,90,3.673,70,3.3154,8.9254,-13.73,1.8218,-0.024,-1.3726,85,12771.681,246947,-1.0533,8.4694,-7.8219,1.3538,0.0149,1.0134,59
3.96,76,6.1213,-2.4242,-19.679,-0.2206,0.8806,0.719,90,3.724,71,3.9783,11.4137,-11.7428,1.7839,-0.6902,-1.6881,85,12771.733,246948,-0.7855,6.1908,-7.1769,1.662,0.6995,0.8067,59
4.012,77,2.7788,-2.5609,-22.3591,-0.8384,-0.0267,0.9598,90,3.776,72,2.5021,9.245,-14.4132,1.9735,-0.7949,-1.8917,85,12771.784,246949,-0.5999,4.4756,-6.7193,1.8868,1.1992,0.6451,59
4.064,78,4.7552,-2.3165,-23.7403,-1.2008,-0.6888,0.3602,90,3.828,73,0.2033,7.1651,-16.8727,0.819,-0.5264,-2.067,85,12771.836,246950,2.2732,8.5976,-2.3407,1.9389,0.7679,0.3161,59
4.116,79,4.6568,-3.2935,-23.3755,-1.2312,-1.172,-0.3719,90,3.88,74,-1.8033,8.8719,-15.1069,0.1088,-0.126,-2.195,85,12771.888,246951,1.4618,6.3698,-2.8842,0.7372,1.0258,0.3397,59
4.168,80,6.3491,-7.6015,-25.057,-1.576,-1.5247,-0.4955,90,3.932,75,-4.5882,8.5564,-16.3957,-0.0215,-0.7647,-2.2884,85,12771.94,246952,1.1956,4.721,-3.7813,-0.1398,1.2055,0.3533,59
4.219,81,9.4646,-10.7456,-21.4159,-1.8276,-1.7822,0.3135,90,3.983,76,-5.2909,6.7997,-14.8231,-0.6957,-0.5973,-2.3249,85,12771.991,246953,1.0124,3.5273,-4.4712,-0.7799,1.3317,0.3642,59
4.271,82,4.1466,-8.5184,-20.4788,-0.6595,-1.9695,0.6149,90,4.035,77,-3.9022,5.0903,-14.6149,-0.1087,-0.7811,-2.3814,85,12772.043,246954,0.8812,2.6396,-4.9746,-1.2471,1.4198,0.3728,59
4.323,83,0.9953,-8.5438,-18.8598,-0.5125,-1.9548,0.5324,90,4.087,78,-5.2456,3.6197,-13.358,-0.5014,-1.2425,-2.289,85,12772.095,246955,0.3518,7.2576,-7.4258,-1.5881,1.481,0.3907,59
4.375,84,-0.4946,-6.225,-18.8713,0.3003,-2.0961,0.7937,90,4.139,79,-6.0811,2.9581,-11.806,-0.6201,-1.0449,-1.9287,85,12772.147,246956,-0.7358,7.6608,-8.6299,-1.8369,1.7696,0.7842,59
4.427,85,-1.545,-4.7264,-16.8056,0.4875,-1.5855,1.0223,90,4.191,80,-5.7111,1.5942,-10.0088,-0.6141,-0.6884,-1.5385,85,12772.198,246957,-3.0248,5.1037,-10.5405,-2.0185,1.8289,0.5546,59
4.478,86,-1.8495,-4.3957,-16.0896,0.995,-1.4261,1.2328,90,4.242,81,-6.0616,0.5147,-9.7215,-0.4148,-0.4747,-1.0601,85,12772.25,246958,-3.9261,4.4329,-11.9434,-2.0247,1.9089,0.5363,59
4.53,87,-2.4329,-2.4273,-14.202,1.345,-0.701,1.2447,90,4.294,82,-5.8345,-0.3715,-8.7795,-0.0454,-0.4531,-0.559,85,12772.302,246959,-3.6531,3.0749,-12.527,-1.3091,2.0659,0.6408,59
4.582,88,-3.3716,-2.4067,-13.0405,1.38,-0.3095,1.0255,90,4.346,83,-5.4784,-0.4503,-8.8293,0.5919,-0.4348,-0.1588,85,12772.354,246960,-1.4419,3.3381,-14.1,-1.0713,1.9697,-0.1497,59
4.634,89,-4.1434,-1.42,-11.9447,1.277,-0.1159,0.7074,90,4.398,84,-5.2022,-0.0038,-9.4212,0.901,-0.4237,0.5228,85,12772.405,246961,-1.4799,3.1453,-13.901,-1.0977,1.7565,-0.5455,59
4.685,90,-4.2108,-0.7377,-11.7189,1.013,0.1553,0.0815,90,4.45,85,-4.7497,0.4017,-10.022,1.0024,-0.4796,1.0469,85,12772.457,246962,-0.2888,2.8539,-13.9757,-0.8838,1.6093,-0.4471,59
4.737,91,-4.0954,-0.6085,-11.6653,1.0522,0.4283,-0.5849,90,4.502,86,-3.4321,1.6604,-9.9827,1.0749,-0.8487,1.4295,85,12772.509,246963,0.9131,2.823,-13.8241,-0.5872,1.4353,-0.1608,59
4.789,92,-3.5329,-0.565,-11.2494,1.2459,0.6474,-1.102,90,4.553,87,-4.6494,2.3923,-8.8293,0.1053,-0.8008,1.7087,85,12772.561,246964,2.1885,2.4166,-13.592,-0.3583,1.0664,0.1049,59
4.841,93,-1.5292,-2.0081,-11.2536,1.2702,0.694,-1.4794,90,4.605,88,-4.5846,-3.0666,-8.415,-0.6031,-1.2572,1.9124,85,12772.612,246965,2.8373,1.8747,-13.4967,-0.1948,0.5641,0.1409,59
4.893,94,-0.8323,-4.2024,-12.6151,1.6014,1.1889,-1.7548,90,4.657,89,1.5737,-7.499,-8.3467,-1.1202,-1.5902,2.0612,85,12772.664,246966,3.473,1.2264,-13.1439,-0.0831,-0.1571,0.2926,59
4.944,95,-1.0505,-3.5893,-10.7229,1.8432,0.2347,-1.9559,90,4.709,90,4.1232,-4.0281,-8.8652,-0.1459,-0.4815,0.8179,85,12772.716,246967,3.2436,0.7252,-12.2286,0.0329,-0.7776,0.4743,59
4.996,96,4.2901,-6.6478,-6.2981,0.716,-0.4974,-2.1026,90,4.761,91,4.94,-0.1315,-8.2855,0.5653,0.3277,-0.0894,85,12772.768,246968,1.8063,0.3645,-10.6347,0.0124,-1.2279,0.5813,59
5.048,97,5.3715,-8.8643,-7.6458,-0.1548,0.3194,-0.8579,90,4.812,92,2.5358,3.8934,-6.8269,1.0843,0.9182,-0.7516,85,12772.819,246969,0.6058,0.574,-8.866,0.1796,-1.4306,0.4361,59
5.1,98,3.5156,-10.2561,-10.5455,-0.7903,0.9155,0.0505,90,4.864,93,0.539,7.8672,-6.7559,1.4631,0.8783,-1.2349,85,12772.871,246970,-0.0245,1.3649,-7.1522,0.6154,-1.4462,0.0626,59
5.152,99,-0.1895,-10.1531,-12.5572,-1.2533,1.3506,0.7135,90,4.916,94,1.2176,9.7979,-7.5089,1.4576,0.6283,-1.5877,85,12772.923,246971,-0.2194,0.8143,-6.4196,1.1009,-1.3321,-0.1409,59
5.203,100,-1.1255,-10.4043,-13.426,-1.5415,0.3164,1.1974,90,4.968,95,0.2718,9.8434,-8.7016,1.4555,0.1447,-1.8451,85,12772.975,246972,-0.1631,0.6025,-7.2585,1.4424,-1.2284,-0.27,59
5.255,101,-0.7981,-10.8311,-12.9892,-1.8024,0.0761,1.5505,90,5.02,96,-0.853,10.8717,-10.248,1.6311,-0.5421,-1.8588,85,12773.026,246973,-0.1589,0.4104,-7.8955,1.6934,-1.158,-0.3631,59
5.307,102,-2.6803,-9.5582,-12.9357,-1.9929,0.0859,1.7355,90,5.071,97,0.3646,9.0441,-11.2871,0.8552,-1.0683,-1.4909,85,12773.078,246974,5.2424,2.6977,-4.2613,1.4439,-1.3019,-0.2152,59
5.359,103,-3.5265,-9.7867,-13.9484,-2.1017,0.0744,1.4241,90,5.123,98,2.4566,7.0201,-12.2543,1.1642,-1.3074,-1.0414,85,12773.13,246975,3.8656,1.9808,-5.3258,1.5994,-1.6133,-0.0722,59
5.41,104,-1.1241,-9.039,-14.8394,-1.7062,-0.6122,0.5257,90,5.175,99,6.7126,7.4041,-6.2959,1.3042,-1.6269,-1.0793,85,12773.182,246976,2.8475,1.4815,-6.1567,1.71,-1.8405,0.0322,59
5.462,105,2.2727,-8.6056,-14.3907,-1.7669,-0.6212,0.2378,90,5.227,100,6.2464,10.7307,-5.724,1.2768,-0.5083,-1.0189,85,12773.233,246977,2.1139,1.1138,-6.7541,1.7885,-2.0064,0.1105,59
5.514,106,1.4852,-5.3042,-13.2522,-0.6152,0.1426,-0.1384,90,5.279,101,3.1235,13.1586,-7.1425,0.6441,-0.3605,-1.3235,85,12773.285,246978,1.5666,0.8508,-7.2022,1.8433,-2.1274,0.1676,59
5.566,107,2.958,-9.0689,-15.2392,-1.1264,-0.2866,0.0843,90,5.33,102,1.7978,13.621,-6.6759,0.1387,-0.3752,-1.6523,85,12773.337,246979,1.1851,0.6558,-7.5213,1.8813,-2.2158,0.2109,59
5.618,108,0.9297,-8.6492,-17.8938,-0.6568,-0.3433,0.1907,90,5.382,103,-0.2351,12.8057,-6.5083,-0.3499,-0.0741,-1.8923,85,12773.389,246980,0.9132,0.5238,-7.7343,1.907,-2.2803,0.2437,59
5.669,109,-1.3176,-9.384,-19.8578,-0.456,-0.7952,0.3122,90,5.434,104,-2.3995,10.1184,-6.5022,-0.8201,0.1825,-2.0675,85,12773.441,246981,2.2239,-1.3615,-8.3368,1.7163,-2.3273,0.2336,59
5.721,110,-2.3792,-8.8719,-19.0634,-0.1609,-1.2415,0.7643,90,5.486,105,-2.9313,8.5273,-7.2673,-0.9251,0.0965,-2.1953,85,12773.492,246982,0.9071,0.3621,-8.4974,1.8637,-2.2164,-0.4708,59
5.773,111,-3.629,-8.2257,-17.9853,0.0848,-1.3296,1.1336,90,5.538,106,-2.8837,6.2245,-7.2097,-1.3242,0.2563,-2.2469,85,12773.544,246983,-1.5705,-2.2713,-4.6414,1.3182,-1.4135,-0.4489,59
5.825,112,-3.2694,-5.9437,-16.7813,0.3462,-1.4091,1.1886,90,5.589,107,-3.5583,4.366,-8.3128,-1.2169,0.2853,-1.873,85,12773.596,246984,-3.5007,-3.8323,-2.2433,0.4507,-0.6165,-0.7458,59
5.876,113,-3.4225,-4.7372,-14.5577,0.3132,-1.0218,1.0774,90,5.641,108,-3.1516,2.5568,-9.0474,-1.2725,-0.0167,-1.202,85,12773.648,246985,-4.9882,-5.0124,-1.023,0.0118,-0.3344,-0.8555,59
5.928,114,-4.2654,-4.0881,-13.7649,0.0124,-0.8071,0.6987,90,5.693,109,-0.7083,2.4306,-7.2488,-1.2782,-0.5626,-0.2671,85,12773.699,246986,-5.5301,-5.3383,-1.3726,-0.4392,-0.0863,-0.7594,59
5.98,115,-3.7467,-2.9176,-12.4111,0.1028,-0.6215,0.33,90,5.745,110,-1.4611,0.8078,-9.0844,-1.6129,-1.0231,0.4704,85,12773.751,246987,-5.0713,-5.2408,-2.6027,-0.8539,0.1116,-0.7188,59
6.032,116,-2.3399,-1.8198,-10.4811,0.3841,-0.6005,-0.3068,90,5.797,111,-3.0137,0.2455,-10.7827,-1.8275,-1.4193,1.0087,85,12773.803,246988,-3.8544,-4.7407,-4.1174,-1.2826,0.3065,-0.7959,59
6.083,117,-0.0871,-1.6576,-9.0781,0.8648,-0.2463,-0.8991,90,5.849,112,2.7202,-0.1457,-15.8095,-2.0138,-1.7086,1.4016,85,12773.854,246989,-2.4784,-4.0389,-5.5821,-1.4107,0.2076,-0.867,59
6.135,118,2.5431,-1.3879,-9.7076,1.2586,0.4829,-1.3313,90,5.901,113,6.905,-4.1897,-12.9249,-0.798,-0.785,0.337,85,12773.906,246990,-2.829,-3.3726,-7.4337,-1.2095,0.0081,-0.9367,59
6.187,119,6.9128,-2.6558,-12.8667,1.593,-0.2297,-1.6467,90,5.952,114,7.9176,0.8886,-13.7467,0.0893,0.1062,-0.2541,85,12773.958,246991,-3.0305,-2.5359,-8.8718,-0.9762,-0.0399,-0.7356,59
6.239,120,10.1021,-1.0434,-8.9355,0.733,-0.381,-1.877,90,6.004,115,4.6617,5.9754,-13.0206,0.7369,0.7566,-0.0797,85,12774.01,246992,-0.9525,0.142,-9.9214,-0.9183,0.0483,-0.4441,59
6.291,121,12.4297,-5.9592,-12.7714,-0.1424,-0.0094,-1.509,90,6.056,116,2.355,9.688,-10.4101,-0.1422,0.6508,-0.3484,85,12774.062,246993,1.9682,5.2303,-11.1431,-0.6164,0.0056,-0.0878,59
6.342,122,8.7,-9.547,-15.4934,-0.7813,0.6756,-0.4247,90,6.108,117,4.4447,9.7234,-8.1267,-0.7838,0.8926,-0.9407,85,12774.113,246994,2.0581,6.2547,-11.3748,0.2163,0.2768,0.5899,59
6.394,123,6.9446,-12.0886,-16.5223,-0.4151,-0.0449,0.3667,90,6.16,118,3.5739,10.3938,-6.9737,0.0997,1.3305,-1.3729,85,12774.165,246995,1.2761,4.4224,-10.771,0.7953,0.6028,1.1062,59
6.446,124,6.6809,-11.7247,-16.7771,-0.2202,-0.7021,0.9442,90,6.211,119,2.3499,11.2105,-6.3737,0.4301,1.2718,-1.6884,85,12774.217,246996,0.686,3.1102,-10.2788,1.2196,0.8332,1.4831,59
6.498,125,6.4209,-11.2928,-17.1529,-0.6496,-1.1817,1.3658,90,6.263,120,1.6457,10.2339,-5.5697,0.6016,1.2354,-1.9186,85,12774.269,246997,0.1284,2.1182,-9.8694,1.5357,0.9915,1.7581,59
6.55,126,4.4296,-9.829,-16.753,-0.8797,-1.5181,1.6735,90,6.315,121,2.3998,10.5771,-6.6386,1.1108,1.2738,-2.0864,85,12774.32,246998,1.1995,2.6817,-7.3297,1.0895,0.0828,1.939,59
6.601,127,1.7892,-8.3774,-15.9148,-1.3151,-1.2972,1.6929,90,6.367,122,4.2203,10.5776,-10.697,1.4824,0.8537,-1.5613,85,12774.372,246999,0.8962,2.2058,-7.7227,0.7518,-0.6026,2.0909,59
6.654,128,2.4738,-8.8291,-15.8442,-1.6372,-1.4138,1.259,90,6.419,123,4.0472,8.8524,-15.0113,0.4281,-0.001,-1.5095,85,12774.424,247000,0.7201,1.8582,-8.0263,0.4952,-1.1029,2.2017,59
6.705,129,6.8623,-7.8387,-17.685,-1.3808,-1.7012,0.5597,90,6.47,124,1.8268,11.7509,-11.5634,0.4418,0.4287,-1.4811,85,12774.476,247001,0.5897,1.6131,-8.2501,0.2944,-1.468,2.2826,59
6.757,130,4.9828,-2.6541,-16.6142,-0.3379,-1.3597,-0.0538,90,6.522,125,4.165,10.1437,-12.9222,-0.3162,-0.2814,-1.4434,85,12774.527,247002,0.477,1.4361,-8.4159,0.1377,-1.7345,2.3416,59
6.809,131,2.8925,-4.8382,-15.0864,-0.924,-0.3099,-0.3749,90,6.574,126,1.5092,9.8309,-13.3317,-0.3374,-0.4562,-1.1005,85,12774.579,247003,0.4117,1.3055,-8.5346,0.0099,-1.929,2.3847,59
6.86,132,3.6936,-4.3536,-15.9922,-0.2102,-0.8955,-0.9487,90,6.626,127,0.3609,10.367,-12.5298,0.2234,-0.5673,-0.5603,85,12774.631,247004,0.3582,1.2071,-8.6097,-0.0934,-2.071,2.4162,59
6.913,133,5.2069,-3.4411,-19.6684,-0.8308,-0.0266,-0.328,90,6.678,128,-4.1891,12.8932,-9.8987,0.6289,-0.0396,0.0866,85,12774.683,247005,0.3376,1.1365,-8.6575,-0.1808,-2.1746,2.4391,59
6.964,134,2.6073,-4.7554,-22.043,-1.2837,0.663,0.2331,90,6.73,129,-8.7274,13.2029,-6.4376,0.4809,0.4586,0.1885,85,12774.735,247006,2.0505,6.1605,-3.7552,-0.3308,-2.2139,2.0757,59
7.016,135,-0.1981,-7.4829,-24.0844,-1.3711,1.1663,0.5479,90,6.781,130,-10.1514,13.9658,-5.5624,-0.3291,-0.1447,-0.5488,85,12774.786,247007,1.8205,3.9968,-5.6434,-0.8048,-1.3361,1.8824,59
7.068,136,-5.0235,-6.7182,-25.5744,-0.3263,1.5337,0.9651,90,6.833,131,-9.2086,11.8392,-5.9713,-0.9193,-0.1273,-1.0869,85,12774.838,247008,4.195,1.2202,-6.0081,-1.265,-0.4608,1.7393,59
7.119,137,-6.6372,-6.905,-26.1416,0.4335,0.45,0.8947,90,6.885,132,-6.6056,7.1408,-6.8883,-1.0358,-0.3462,-1.124,85,12774.89,247009,5.3534,1.6076,-5.8172,-1.4351,0.2505,1.1683,59
7.171,138,-5.2532,-6.0721,-25.2328,0.9908,-0.3409,1.2711,90,6.937,133,-7.0601,6.5941,-7.7789,-0.8779,-0.2258,-0.8701,85,12774.942,247010,4.8017,1.127,-2.5255,-1.2181,0.7471,0.7211,59
7.223,139,-3.9565,-5.9182,-21.9479,1.2353,-0.8227,1.6044,90,6.989,134,-4.9394,5.9762,-7.5431,-0.8961,0.0144,-0.6853,85,12774.993,247011,3.4042,-0.3849,0.7202,-0.8738,0.4627,0.5015,59
7.275,140,-3.1114,-3.7617,-19.3114,1.5669,-0.9462,1.5232,90,7.04,135,-3.594,4.2475,-7.2798,-1.1849,-0.4802,0.1048,85,12775.045,247012,-1.3915,-0.2884,3.089,-0.5554,-0.3254,0.3582,59
7.327,141,-1.6056,-4.2301,-17.2767,1.3153,-0.9711,1.2668,90,7.092,136,0.1625,0.4524,-8.2742,-1.122,-1.0063,0.7419,85,12775.097,247013,-2.7593,1.026,4.761,-0.1645,-0.9006,0.1457,59
7.378,142,-1.879,-2.4183,-14.7195,1.3847,-0.614,1.1166,90,7.144,137,-1.9004,5.6394,-11.7097,-1.0971,-1.4071,1.2068,85,12775.148,247014,-1.1433,1.5177,4.7529,0.5538,-1.3204,-0.0133,59
7.43,143,0.1158,-1.3293,-12.2337,1.5993,-0.8911,0.1398,90,7.196,138,3.5327,-1.1449,-15.3246,-1.4808,-1.6997,1.5462,85,12775.2,247015,-1.5234,-0.8674,3.1951,1.0161,-1.4362,-0.2513,59
7.482,144,0.3044,1.5387,-11.5832,1.8416,-0.0031,-0.5731,90,7.248,139,7.4981,0.1774,-17.5411,-0.409,-1.9132,1.7631,85,12775.252,247016,-1.1845,-0.5375,-0.0225,1.0879,-0.9417,-0.4195,59
7.534,145,2.9085,-0.3893,-10.2956,2.0185,-0.6716,-1.0934,90,7.3,140,10.3922,-1.5434,-13.8931,0.3732,-1.6463,1.0718,85,12775.304,247017,0.2659,-0.1658,-1.9364,1.0931,-0.4947,-0.5761,59
7.586,146,7.1795,4.5174,-8.4312,2.1476,-1.1595,-1.4731,90,7.351,141,8.9981,4.2004,-11.912,0.9441,-0.5225,0.261,85,12775.355,247018,-0.8224,0.4346,-4.245,1.1346,-0.0472,-0.827,59
7.637,147,10.2967,0.428,-6.5398,0.89,-0.6824,-1.614,90,7.403,142,8.779,6.9059,-11.1208,1.2439,0.2639,-0.4959,85,12775.407,247019,-1.3407,-1.2423,-11.1237,1.4215,-0.3273,-1.0906,59
7.689,148,11.9292,-4.8853,-10.5604,-0.0278,-0.277,-0.5393,90,7.455,143,5.23,10.0875,-13.6499,1.5796,0.8717,-1.0483,85,12775.459,247020,-1.2666,-4.2714,-14.9284,1.7113,-0.8975,-1.2272,59
7.741,149,10.3504,-6.8236,-12.2945,-0.6977,0.1375,0.283,90,7.507,144,4.5096,11.6039,-15.8972,1.5315,-0.0365,-1.4515,85,12775.511,247021,-1.2481,-6.1196,-14.8686,1.6053,-0.8182,-1.5717,59
7.793,150,9.7762,-5.6103,-11.677,-1.1866,-0.5413,0.8832,90,7.558,145,8.1908,11.1392,-19.5423,1.1912,-0.6993,-1.7457,85,12775.562,247022,-0.7198,-4.3313,-13.4496,1.3912,-0.6948,-1.8232,59
7.844,151,6.9881,-3.8799,-13.1368,-1.5434,-0.9932,1.3212,90,7.61,146,10.7441,7.8775,-13.5196,1.5412,-1.183,-1.9605,85,12775.614,247023,3.7483,2.1699,-12.5464,1.5167,-0.1315,-1.5261,59
7.896,152,4.4805,-1.3605,-14.9733,-0.9255,-1.3942,1.1033,90,7.662,147,9.7894,5.8732,-14.2526,0.4448,-1.3649,-2.1172,85,12775.666,247024,2.9031,1.6845,-10.2427,0.7246,0.1797,-1.7354,59
7.948,153,6.6915,-3.7471,-18.74,-1.3528,-1.6869,0.6309,90,7.714,148,4.8447,5.3836,-11.9138,0.1496,-1.6683,-2.1333,85,12775.718,247025,2.0746,1.3494,-10.0361,0.1443,0.3914,-1.9426,59
8.0,154,1.8821,-7.9325,-14.3172,-0.7123,-1.8565,1.1371,90,7.766,149,1.5275,7.1176,-12.2999,0.0926,-1.8903,-1.9715,85,12775.77,247026,1.4559,1.0861,-9.8729,-0.2825,0.5427,-2.0939,59
8.052,155,1.1224,-2.7861,-13.4771,-0.203,-1.5865,1.5065,90,7.818,150,0.0831,7.0242,-12.2556,-0.6124,-2.0133,-2.0192,85,12775.821,247027,1.0022,0.9049,-9.7694,-0.598,0.6499,-2.2043,59
8.104,156,-3.407,-3.9516,-16.8217,0.1291,-1.627,1.2813,90,7.869,151,-0.8445,3.3596,-11.094,-1.127,-1.8906,-1.8359,85,12775.873,247028,0.5563,0.6667,-9.7959,-0.8364,0.7762,-2.2848,59
8.155,157,-2.429,-2.8104,-15.9746,0.7686,-1.8568,1.4321,90,7.921,152,-3.333,3.8162,-8.6331,-1.4986,-1.5549,-1.4783,85,12775.925,247029,2.1225,2.6829,-11.3512,-1.2495,1.0685,-2.3436,59
8.207,158,-3.8017,-0.6038,-15.2659,0.959,-1.5115,1.094,90,7.973,153,-5.0456,2.1529,-6.7819,-1.2652,-1.0741,-1.05,85,12775.977,247030,0.6661,3.4617,-9.4222,-0.6835,1.4623,-2.3865,59
8.259,159,-4.2905,0.1478,-13.6225,1.165,-1.1973,0.7103,90,8.025,154,-5.9671,1.0145,-5.7214,-1.2047,-0.7246,-0.4151,85,12776.028,247031,-0.4118,1.4771,-6.9152,-0.5573,1.7559,-2.4179,59
8.311,160,-6.3491,0.6974,-13.5044,0.7381,-0.2926,0.299,90,8.077,155,-5.7615,0.394,-4.8401,-1.0328,-0.446,0.2987,85,12776.08,247032,-1.2661,-1.7062,-6.7519,-1.0484,1.9702,-2.3521,59
8.362,161,-6.656,0.3307,-13.8992,0.5347,-0.0236,-0.1286,90,8.128,156,-4.3525,-0.3756,-4.5312,-0.0852,-0.0405,0.8834,85,12776.132,247033,-3.2208,-2.3272,-7.6484,-1.3992,2.1173,-2.3685,59
8.414,162,-6.9566,0.5968,-14.2717,0.2107,0.1994,-0.5126,90,8.18,157,-3.0343,1.2056,-7.4242,0.6095,0.6495,1.2629,85,12776.183,247034,-2.9252,-2.865,-8.7853,-1.5347,2.234,-2.323,59
8.466,163,-6.1256,0.2132,-14.2605,-0.1724,0.0888,-1.0258,90,8.232,158,-2.8737,3.2606,-8.9246,0.2413,1.1265,1.5871,85,12776.235,247035,-2.2444,-3.1715,-10.4006,-1.7956,1.9689,-2.3715,59
8.518,164,-5.0502,0.2506,-14.0029,0.2491,0.1114,-1.1829,90,8.284,159,-3.146,4.1805,-10.7482,-0.4508,1.5012,1.8237,85,12776.287,247036,-0.983,-3.3245,-12.3593,-1.8792,1.4148,-2.3425,59
8.57,165,-3.6714,0.5705,-13.2667,0.3893,-0.1843,-1.5385,90,8.336,160,-7.1356,4.9741,-14.7581,-1.009,1.5498,1.9964,85,12776.339,247037,-0.2767,-3.4956,-13.444,-1.5948,0.6546,-1.9617,59
8.621,166,1.2397,1.1864,-11.9244,0.8245,-0.8038,-1.798,90,8.387,161,-4.4066,-1.6305,-14.1266,-1.4164,0.4585,2.1224,85,12776.391,247038,-0.1794,-3.8245,-13.3359,-0.9089,-0.0724,-1.1848,59
8.673,167,5.2644,-4.3318,-11.0039,1.229,0.0958,-1.9873,90,8.439,162,1.7036,-6.4508,-16.1229,-1.7138,-0.3381,2.2144,85,12776.442,247039,-0.2964,-4.1815,-12.1436,-0.3536,-0.6935,-0.415,59
8.725,168,2.4435,-3.7458,-13.1306,1.5714,-0.475,-2.1256,90,8.491,163,6.1631,-2.19,-15.5455,-0.5791,0.0921,0.9298,85,12776.494,247040,-0.4965,-3.9338,-11.0728,-0.0234,-1.1631,0.1399,59
8.777,169,6.8402,2.6561,-11.4144,0.5624,-1.016,-2.2264,90,8.543,164,8.0773,-0.3506,-15.1431,0.2491,0.7339,-0.0078,85,12776.546,247041,0.0412,-2.8566,-9.389,0.116,-1.4574,0.5012,59
8.829,170,5.1471,-2.1525,-11.1789,-0.2669,-0.0614,-0.9528,90,8.595,165,6.1806,5.0709,-15.7142,0.8535,1.2147,-0.692,85,12776.598,247042,2.107,-0.3051,-7.458,0.1593,-1.7263,0.3916,59
8.88,171,6.7456,-5.6922,-14.0699,-0.4678,-0.7142,-0.513,90,8.646,166,3.2562,8.0668,-14.4535,0.9773,1.2277,-1.1915,85,12776.649,247043,3.3585,3.5978,-7.1904,0.4472,-1.923,-0.3842,59
8.932,172,5.5235,-6.5457,-13.9368,-0.8423,-0.3853,0.3022,90,8.698,167,2.8513,10.5651,-15.7954,1.385,0.9464,-1.556,85,12776.701,247044,3.0835,4.055,-8.5416,0.8458,-2.0666,-0.9565,59
8.984,173,4.2366,-9.0881,-15.999,-1.2922,-0.9197,0.8972,90,8.75,168,2.7288,9.4316,-17.0696,0.9885,0.0181,-1.822,85,12776.753,247045,2.3971,2.5702,-8.1046,0.9225,-2.1714,-1.3741,59
9.036,174,5.9529,-11.1832,-16.6992,-1.6205,-1.3406,1.3315,90,8.802,169,3.1715,7.6886,-19.7056,1.3926,-0.6595,-2.0161,85,12776.805,247046,1.8942,1.4767,-7.7736,0.9934,-2.2478,-1.679,59
9.087,175,7.8475,-9.9693,-14.8543,-1.7432,-1.6477,1.6484,90,8.854,170,3.6393,9.3082,-22.3218,0.7262,0.0799,-1.9091,85,12776.856,247047,-3.8491,3.7997,-13.6991,0.6356,-1.6769,-1.3154,59
9.139,176,6.1879,-12.0924,-17.1588,-0.5979,-1.8209,1.4264,90,8.906,171,1.4108,9.8233,-18.7169,0.6554,-0.6143,-2.0788,85,12776.908,247048,-2.709,2.7272,-12.6063,0.2791,-1.151,-1.1533,59
9.191,177,7.2625,-14.0233,-9.9321,-0.108,-1.9937,0.6373,90,8.957,172,-1.9979,10.5525,-15.7474,-0.2017,0.2307,-2.0308,85,12776.96,247049,-1.9194,1.9841,-11.8486,0.0207,-0.7687,-1.0344,59
9.243,178,1.323,-9.1055,-12.1327,-0.4059,-0.7727,1.117,90,9.009,173,-1.9202,11.6109,-13.2902,-0.8272,-0.3205,-2.1686,85,12777.012,247050,-1.3644,1.4519,-11.2864,-0.1675,-0.49,-0.9468,59
9.295,179,-1.1487,-8.6234,-16.1283,-0.6652,-1.2333,1.0957,90,9.061,174,-2.2995,10.0819,-12.2016,-1.2838,-0.2773,-2.2691,85,12777.063,247051,-0.9517,1.0596,-10.8747,-0.3054,-0.2867,-0.8828,59
9.346,180,-2.0148,-9.5539,-17.3706,-0.8574,-1.548,1.1846,90,9.113,175,-2.8643,7.4014,-10.6786,-1.5942,-0.0455,-2.1047,85,12777.115,247052,4.6638,4.6449,-15.1301,-0.3814,-0.6715,-1.2149,59
9.398,181,-3.6313,-7.1344,-17.1611,-0.6043,-1.7991,1.1627,90,9.165,176,-3.0793,4.7064,-9.9344,-1.4402,0.1629,-1.5892,85,12777.167,247053,-1.8277,-1.8678,-19.0681,-0.54,-0.4451,-1.3728,59
9.45,182,-3.2501,-5.8742,-16.1684,-0.4621,-1.9776,0.9878,90,9.216,177,-2.6847,3.2469,-9.9815,-1.3176,0.2349,-0.951,85,12777.218,247054,1.1521,-5.7337,-15.6869,-0.9363,-0.5088,-1.3741,59
9.502,183,-3.434,-4.036,-15.1277,-0.2669,-1.8543,0.7941,90,9.268,178,-0.8674,2.3155,-10.8635,-1.0115,-0.0043,-0.1841,85,12777.27,247055,3.2723,-8.1894,-11.7745,-1.3612,-0.7529,-0.9241,59
9.554,184,-2.8445,-2.8447,-13.8248,-0.311,-1.5817,0.4556,90,9.32,179,1.0112,2.3229,-10.6944,-1.2882,-0.3655,0.531,85,12777.322,247056,4.8123,-8.0025,-9.1376,-1.6713,-0.9228,-0.5852,59
9.606,185,-2.0427,-1.3375,-12.5005,-0.4046,-1.2525,-0.1263,90,9.372,180,1.5041,1.0393,-9.9291,-0.5371,-0.9394,1.0529,85,12777.374,247057,5.4321,-7.4936,-8.7402,-1.8977,-1.1673,-0.344,59
9.657,186,0.1426,-0.2852,-10.4572,-0.3119,-1.0834,-0.7673,90,9.424,181,3.3297,4.6766,-15.1865,-1.072,-1.3583,1.4339,85,12777.426,247058,4.1183,-5.4699,-9.0894,-2.0043,-1.4727,-0.1637,59
9.709,187,3.5647,0.6653,-9.1044,0.2515,-0.5772,-1.2351,90,9.475,182,7.3499,2.0338,-16.9927,-0.1107,-1.664,1.4095,85,12777.477,247059,2.5405,-3.5966,-9.8076,-1.6973,-1.4408,-0.1167,59
9.761,188,7.6585,-2.508,-8.8405,0.8579,0.1099,-1.5765,90,9.527,183,10.284,6.5075,-12.1617,0.591,-1.5435,1.133,85,12777.529,247060,1.8602,-2.2166,-10.2425,-1.1635,-1.2179,-0.1412,59
9.813,189,10.6463,0.7771,-8.1886,1.3005,-0.5891,-1.8257,90,9.579,184,10.4743,8.5782,-7.761,1.103,-0.4474,0.4865,85,12777.581,247061,1.179,-0.4095,-10.0619,-0.6429,-1.0864,-0.1415,59
9.865,190,12.8269,-1.473,-8.2193,0.2718,0.2523,-0.9953,90,9.631,185,11.3468,9.6808,-4.9287,1.4768,0.3518,-0.3313,85,12777.633,247062,-0.6502,3.6016,-9.195,0.027,-1.1006,-0.0554,59
9.916,191,13.7429,-6.2728,-8.8298,-0.479,0.5551,-0.0498,90,9.683,186,11.1351,10.4748,-3.5716,1.3845,0.9358,-0.9282,85,12777.684,247063,-5.5959,7.9597,-9.7709,0.6936,-0.5826,-0.0669,59
9.968,192,11.497,-7.9967,-9.5537,-1.027,0.9323,0.6403,90,9.734,187,10.0286,9.7993,-4.0083,1.6822,1.3621,-1.3638,85,12777.736,247064,-4.8553,5.9767,-7.6694,1.1167,-0.1112,0.617,59
10.02,193,8.5522,-9.861,-10.4745,-1.4269,0.9776,1.144,90,9.786,188,5.547,11.52,-4.7083,1.8995,1.6732,-1.6817,85,12777.788,247065,-3.4902,4.1519,-8.0752,1.0803,0.5297,0.9276,59
10.072,194,5.3859,-10.4395,-12.2355,-1.4685,0.2459,1.5116,90,9.838,189,4.85,11.0579,-5.4346,2.053,1.2111,-1.9138,85,12777.84,247066,-2.5485,2.7981,-8.3089,1.0628,0.9964,1.1558,59
10.124,195,2.9687,-9.4673,-14.58,-1.7462,-0.4899,1.7798,90,9.89,190,4.1909,10.9513,-6.5754,2.1701,1.3121,-2.0831,85,12777.891,247067,-2.4772,1.7593,-7.7775,1.291,0.4268,1.1228,59
10.175,196,0.231,-7.9424,-14.8718,-1.9497,-0.8819,1.9756,90,9.942,191,4.1903,10.9588,-9.0526,2.2556,1.1769,-1.9995,85,12777.943,247068,-1.8158,1.3292,-8.3032,1.5302,0.0116,1.267,59
10.227,197,-0.082,-7.9967,-15.2062,-2.1004,-1.3103,1.3177,90,9.993,192,3.2823,10.8697,-9.6526,1.0849,0.4072,-1.8796,85,12777.995,247069,-1.3753,1.0586,-8.5506,1.7006,-0.2965,1.3759,59
10.279,198,1.9505,-8.54,-14.7532,-2.2103,-1.4083,1.0986,90,10.045,193,2.0494,2.6724,-4.742,0.1118,0.0467,-1.2013,85,12778.047,247070,-1.0478,0.8323,-8.7456,1.8215,-0.5252,1.4565,59
10.331,199,2.487,-8.3256,-14.6981,-2.2906,-0.8632,0.7538,90,10.097,194,-0.5823,6.7509,-6.7247,0.4648,0.4662,-0.619,85,12778.098,247071,-0.8096,0.6749,-8.8895,1.9062,-0.6964,1.5153,59
10.382,200,1.1632,-9.0434,-14.8856,-1.268,-0.9613,0.2504,90,10.149,195,-1.677,6.4675,-6.9139,-0.1018,0.2827,-0.5615,85,12778.15,247072,-0.6338,0.5674,-8.9975,1.9655,-0.8261,1.5589,59
10.434,201,0.2606,-8.2694,-14.1975,-1.6028,-0.4996,0.2889,90,10.201,196,-3.9326,6.7063,-7.4063,-0.5408,0.0072,-0.5422,85,12778.202,247073,-0.5059,0.468,-9.0391,2.0052,-0.9251,1.5914,59
10.486,202,-1.3313,-8.0982,-14.3594,-1.0546,-0.2618,0.2031,90,10.253,197,-5.1112,6.2678,-7.5573,-0.8843,0.0852,-0.4481,85,12778.254,247074,-0.4133,0.4136,-9.0454,2.0301,-1.0014,1.6155,59
10.538,203,-2.497,-7.2237,-15.6071,-0.9688,-0.3087,0.1403,90,10.305,198,-5.2356,4.7805,-8.5387,-1.1442,-0.0849,-0.3193,85,12778.306,247075,-0.3492,0.378,-9.0484,2.0455,-1.0605,1.6341,59
10.59,204,-3.698,-6.0997,-14.2358,-0.7648,-0.1798,0.1453,90,10.356,199,-4.6953,4.909,-9.7669,-1.1855,-0.208,-0.3488,85,12778.357,247076,0.8813,-0.788,-8.081,1.7307,-1.0784,1.5001,59
10.641,205,-3.3673,-5.2806,-13.5973,-0.6152,-0.4622,0.1716,90,10.408,200,-3.1996,3.6459,-9.8319,-0.9093,-0.3639,-0.088,85,12778.409,247077,0.4041,-0.1617,-7.2805,1.4685,-0.9386,1.045,59
10.693,206,-2.8504,-4.2172,-12.7538,-0.5105,-0.468,0.1181,90,10.46,201,-2.1175,3.108,-9.4389,-0.9089,-0.8562,0.5212,85,12778.461,247078,1.0807,0.0298,-5.0703,1.0635,-0.8036,1.0556,59
10.745,207,-1.9872,-3.4142,-11.4088,-0.089,-0.4593,-0.0472,90,10.512,202,-1.6005,2.5732,-9.4614,-0.9348,-1.2975,1.0458,85,12778.512,247079,0.696,-0.2858,-3.848,0.6544,-0.585,0.9966,59
10.797,208,-0.8882,-3.0813,-10.6363,0.1145,-0.0193,-0.4101,90,10.564,203,0.719,1.902,-9.5698,-1.1148,-1.6197,1.4286,85,12778.564,247080,0.2694,0.1001,-2.7781,0.4442,-0.3138,0.8719,59
10.849,209,1.0005,-1.755,-10.2485,0.347,0.3533,-0.9744,90,10.615,204,5.4445,-3.8726,-14.5518,-1.4937,-1.8548,1.7081,85,12778.616,247081,0.8749,0.0955,-3.0322,0.4006,-0.1751,0.6576,59
10.9,210,5.787,-4.8734,-11.8697,0.1868,0.9403,-1.3863,90,10.667,205,8.8934,-4.7487,-11.3943,-0.4184,-0.9354,0.5602,85,12778.668,247082,1.1111,0.0444,-4.008,0.3951,-0.1753,0.5002,59
10.952,211,8.8783,-8.7545,-15.776,0.8107,1.3687,-1.6869,90,10.719,206,9.4875,1.0411,-7.9194,0.3664,-0.0036,-0.1858,85,12778.719,247083,0.5778,0.2526,-4.9632,0.0873,-0.3077,0.4431,59
11.004,212,11.5366,-7.2208,-18.2304,-0.0777,1.6813,-1.2286,90,10.771,207,7.3165,6.0867,-4.3825,-0.1056,0.6765,-0.2472,85,12778.771,247084,0.4631,1.6218,-7.4941,-0.0485,-0.2569,0.3807,59
11.056,213,9.845,-10.4678,-21.3019,-0.7341,1.9095,-0.4216,90,10.823,208,8.8572,6.6687,-4.0281,-0.2905,1.1728,-0.8367,85,12778.823,247085,1.1112,2.575,-10.998,0.2525,-0.5434,0.219,59
11.108,214,6.9223,-11.2909,-22.8827,-0.4406,0.8849,0.369,90,10.874,209,8.8759,9.6544,-5.5157,0.4325,1.535,-1.297,85,12778.875,247086,0.1304,0.4399,-14.4869,0.5805,-0.9303,-0.4753,59
11.159,215,6.6809,-13.1208,-23.3607,-0.5125,-0.0235,0.9459,90,10.926,210,8.3117,10.4316,-7.292,0.8785,1.7556,-1.633,85,12778.927,247087,0.2193,0.1998,-13.0576,0.5287,-1.0872,-1.023,59
11.211,216,9.0595,-13.5411,-22.9847,-0.6067,-0.6865,1.367,90,10.978,211,6.8048,9.8038,-9.5072,0.9001,1.0495,-1.8782,85,12778.978,247088,0.3012,0.0279,-12.0205,0.4966,-1.197,-1.4227,59
11.263,217,9.7512,-11.8001,-20.2404,-1.1182,-1.1704,1.6743,90,11.03,212,3.2214,8.5729,-10.2249,1.0749,0.2766,-2.0572,85,12779.03,247089,0.4306,-0.093,-11.0974,0.477,-1.2694,-1.7144,59
11.315,218,9.3857,-9.9932,-17.8638,-0.7233,-1.5235,1.8987,90,11.082,213,7.2709,4.1182,-4.8148,0.1739,-0.4708,-1.9786,85,12779.082,247090,0.7489,-0.0657,-15.6637,0.1936,-0.8713,-1.2541,59
11.367,219,6.5543,-6.8627,-17.3792,-1.01,-1.5372,2.0203,90,11.133,214,-0.3634,8.3325,-7.2598,0.7691,0.3355,-1.2649,85,12779.134,247091,0.8446,-0.1036,-13.6345,-0.5082,-0.2161,-0.8259,59
11.418,220,0.1994,-7.3401,-13.1857,-0.1677,-1.3409,2.0521,90,11.185,215,2.3493,7.0613,-2.6507,-0.0858,-0.4278,-1.1517,85,12779.185,247092,0.9244,-0.1238,-12.1592,-1.0488,0.2704,-0.218,59
11.47,221,-1.4853,-7.2579,-16.8073,-0.3691,-0.8002,1.604,90,11.237,216,-1.9626,6.3,-3.2839,-0.54,-0.0569,-1.2345,85,12779.237,247093,0.9727,-0.1417,-11.0834,-1.4433,0.6364,0.4539,59
11.522,222,-2.4238,-7.7402,-15.7483,0.3477,-0.9302,1.685,90,11.289,217,-3.0221,6.0403,-3.7193,-0.8789,0.4437,-1.1592,85,12779.289,247094,0.9875,-0.1701,-10.3001,-1.7313,0.9128,0.9916,59
11.574,223,-5.2042,-6.5056,-16.0565,0.5651,-1.0658,1.8192,90,11.341,218,-3.2517,4.6081,-4.137,-0.7928,0.501,-1.1346,85,12779.341,247095,1.5393,-0.7823,-10.2686,-1.9414,1.1252,1.3942,59
11.625,224,-4.8241,-5.0501,-14.6253,0.8667,-1.1262,1.5525,90,11.393,219,-3.7553,3.1776,-5.0273,-0.431,0.4949,-0.9984,85,12779.392,247096,-4.1081,4.7602,-9.0154,-1.6761,1.2982,1.6324,59
11.677,225,-4.414,-3.5273,-13.4574,0.8673,-1.1725,1.196,90,11.444,220,-3.597,2.0842,-6.2106,-0.3753,0.3645,-0.629,85,12779.444,247097,-3.5299,1.3473,-7.9457,-1.3326,1.1975,1.0595,59
11.729,226,-4.2706,-1.7451,-11.9618,0.588,-0.8735,0.8466,90,11.496,221,-2.2795,0.7268,-7.5401,-0.0444,-0.2061,0.0761,85,12779.496,247098,-1.5342,-2.5151,-6.4226,-0.8767,1.0736,1.1077,59
11.781,227,-3.5317,-0.358,-10.8456,0.3296,-0.7201,0.2754,90,11.548,222,-0.6573,-2.3416,-11.6754,0.344,-0.8213,0.7209,85,12779.547,247099,-2.307,-4.0997,-7.0611,-0.5518,1.0168,1.1528,59
11.833,228,-2.3692,0.4129,-10.2644,-0.102,-0.5521,-0.4741,90,11.6,223,0.8689,-0.0394,-12.9618,0.9228,-1.2721,1.1915,85,12779.599,247100,-1.7301,-4.0447,-7.9037,-0.386,0.9012,1.3783,59
11.884,229,-0.6426,0.579,-10.3786,-0.24,-0.0756,-1.0212,90,11.652,224,5.5539,1.0106,-17.3999,1.229,-1.6011,1.535,85,12779.651,247101,-1.3119,-3.6751,-8.2605,-0.236,0.6166,1.1254,59
11.936,230,-0.4195,2.0593,-10.6736,0.2704,0.4451,-1.4204,90,11.704,225,8.9732,2.9572,-16.6091,1.5687,-1.7917,1.677,85,12779.703,247102,-1.7787,-3.52,-9.3049,-0.2145,0.3018,0.5109,59
11.988,231,4.7506,5.5449,-15.709,0.523,-0.3444,-1.7118,90,11.755,226,11.4688,5.6108,-16.8642,1.8166,-1.4406,1.7137,85,12779.755,247103,-1.9997,-3.0463,-10.13,-0.4781,0.111,-0.0501,59
12.04,232,8.524,-1.1508,-15.4917,0.279,0.0899,-1.9244,90,11.807,227,11.7713,9.4219,-11.6275,1.1762,-1.1977,1.9161,85,12779.806,247104,-1.1331,-0.5243,-10.1501,-0.8171,0.0079,-0.4233,59
12.092,233,11.278,-3.2174,-14.0231,-0.4738,-0.1221,-0.9859,90,11.859,228,12.5479,8.1198,-8.8502,1.4457,-0.195,0.7948,85,12779.858,247105,0.6763,4.0519,-10.5287,-0.8488,-0.1482,-0.6475,59
12.143,234,11.3605,-7.5459,-15.3261,-1.0231,0.5933,-0.0429,90,11.911,229,12.0114,10.4702,-8.5792,1.7269,0.5367,-0.1063,85,12779.91,247106,2.1961,8.2883,-11.8526,-0.0982,-0.1703,-0.5423,59
12.195,235,11.1852,-10.5362,-15.2129,-0.1067,0.3157,0.6453,90,11.963,230,13.0032,11.7571,-8.5798,1.2265,1.0708,-0.764,85,12779.962,247107,1.8191,5.7154,-10.4957,0.4074,0.5644,0.2799,59
12.247,236,8.839,-9.9977,-15.2922,0.3802,0.9126,1.1476,90,12.014,231,12.9533,12.4503,-7.8017,0.8349,1.4606,-1.244,85,12780.013,247108,0.9062,3.6339,-9.9266,0.7908,1.1006,0.88,59
12.298,237,6.1018,-8.9701,-16.5203,-0.1007,0.459,1.5142,90,12.066,232,11.1626,11.8936,-7.3445,-0.0703,1.5864,-1.5943,85,12780.065,247109,-4.5702,-2.6057,-5.0393,0.4287,1.2101,1.3115,59
12.351,238,3.6589,-8.5296,-17.2479,-0.7509,0.1294,1.7818,90,12.118,233,9.2454,10.2401,-6.6307,-0.7146,1.5985,-1.8499,85,12780.117,247110,-3.0892,-2.1281,-6.2975,0.0525,0.3009,0.636,59
12.402,239,1.0736,-8.2545,-16.8363,-1.2254,-0.3901,1.9771,90,12.17,234,6.0123,8.4275,-6.0825,-0.4113,1.8403,-2.0365,85,12780.169,247111,-2.2461,-1.6196,-7.1071,-0.215,-0.3767,0.1444,59
12.454,240,0.984,-7.3953,-15.8926,-1.3619,-0.9541,1.7841,90,12.222,235,3.1729,7.5539,-5.9768,0.0133,1.4711,-2.0336,85,12780.22,247112,-1.6448,-1.2274,-7.6977,-0.4064,-0.8708,-0.2142,59
12.506,241,1.9091,-6.5312,-14.6165,-1.6402,-0.5812,1.6419,90,12.273,236,1.514,5.3806,-6.7712,0.6347,1.24,-1.6975,85,12780.272,247113,-1.1959,-0.9492,-8.1395,-0.5421,-1.2318,-0.4768,59
12.558,242,-0.3382,-7.16,-14.4789,-1.8745,0.2582,1.7375,90,12.325,237,0.6006,4.6381,-7.7245,1.1349,1.0258,-1.116,85,12780.324,247114,-0.8587,-0.7421,-8.4744,-0.6368,-1.4969,-0.669,59
12.61,243,-0.1783,-6.017,-13.786,-0.9972,-0.2515,1.1442,90,12.377,238,-0.1914,4.9904,-8.9327,1.2141,0.5999,-0.6271,85,12780.376,247115,-0.625,-0.5757,-8.7025,-0.7026,-1.6914,-0.8101,59
12.661,244,-1.2248,-4.44,-13.1658,-0.8571,0.3753,0.8509,90,12.429,239,1.1658,2.437,-5.265,0.4204,-0.2293,0.0307,85,12780.428,247116,-0.4613,-0.4582,-8.8483,-0.7478,-1.8343,-0.9137,59
12.713,245,-2.6004,-3.1694,-13.7008,-0.7718,0.5419,0.3241,90,12.481,240,0.7235,6.5252,-6.8945,0.9776,-0.0603,0.4323,85,12780.479,247117,-0.3327,-0.3906,-8.9551,-0.7776,-1.9394,-0.9908,59
12.765,246,-2.5986,-2.6681,-14.0579,-0.6033,0.0661,-0.3023,90,12.532,241,1.0163,7.7137,-6.4642,1.0851,-0.1944,0.4281,85,12780.531,247118,-0.2468,-0.3509,-9.0158,-0.7951,-2.0175,-1.0473,59
12.816,247,0.0638,-2.7053,-8.5398,0.2341,-0.3469,-0.8958,90,12.584,242,0.2917,8.8357,-7.1546,0.7298,-0.7347,0.2894,85,12780.583,247119,-0.1686,-0.3434,-9.0652,-0.8033,-2.075,-1.0882,59
12.868,248,-0.2294,-4.5258,-12.8528,-0.5066,0.2026,-1.1131,90,12.636,243,0.0811,9.5591,-7.8364,0.8681,-0.3875,-0.0174,85,12780.635,247120,-0.1048,-0.3485,-9.0897,-0.8049,-2.117,-1.1178,59
12.92,249,-0.0761,-4.9379,-15.1107,-0.106,0.1516,-1.0749,90,12.688,244,-2.0188,10.1014,-8.0685,0.9937,-0.2187,0.1129,85,12780.686,247121,-0.0606,-0.3598,-9.1109,-0.8016,-2.1485,-1.1388,59
12.972,250,0.3056,-5.2551,-16.8477,-0.44,-0.1441,-0.9033,90,12.74,245,-4.0685,10.9583,-8.959,1.0403,0.3027,0.4432,85,12780.738,247122,-2.4882,-1.587,-6.1678,-0.9237,-2.0068,-1.2246,59
13.024,251,-0.7315,-5.5538,-17.5796,-0.6589,0.4502,-0.8545,90,12.791,246,-4.6704,11.1653,-9.0979,0.8842,0.5428,0.7329,85,12780.79,247123,0.8749,0.9034,-6.508,-1.352,-1.6288,-0.9126,59
13.075,252,-2.7717,-5.9146,-18.8646,-0.4879,0.8633,-0.8255,90,12.843,247,-5.5957,10.9522,-9.351,0.6183,0.6281,1.041,85,12780.841,247124,2.9029,-2.3644,-5.8832,-1.0823,-1.5054,-0.7712,59
13.127,253,-2.1919,-6.6664,-19.3775,-0.2513,0.5735,-0.9045,90,12.895,248,-5.8167,11.391,-9.9913,0.4912,0.575,1.187,85,12780.893,247125,3.9082,-5.1586,-5.2029,-0.8154,-1.0077,-0.5041,59
13.179,254,-2.5562,-7.2387,-19.4428,-0.1688,0.6822,-1.1035,90,12.947,249,-7.2767,11.485,-9.798,0.358,0.6716,0.8638,85,12780.945,247126,4.7402,-6.4066,-5.6142,-0.4556,-0.3338,0.0396,59
13.231,255,-2.4669,-6.9275,-19.6548,0.0415,0.4458,-1.3423,90,12.999,250,-8.8798,11.8389,-9.3442,0.0892,0.3863,0.1835,85,12780.997,247127,3.4926,-7.298,-4.9455,-0.2455,0.0817,0.3243,59
13.282,256,-3.6016,-7.5285,-19.8214,-0.0367,0.592,-1.272,90,13.051,251,-8.7537,11.9071,-8.9003,-0.321,0.0717,-0.5488,85,12781.048,247128,3.2385,-7.5628,-3.5199,-0.2002,0.1226,0.576,59
13.334,257,-5.3827,-8.0281,-20.9683,0.1897,0.0281,-0.9271,90,13.102,252,-7.8834,11.2431,-8.3207,-0.8634,-0.1963,-1.0869,85,12781.1,247129,2.6473,-8.1106,-2.8058,-0.1634,-0.2659,0.3431,59
13.386,258,-4.736,-8.2382,-21.0782,0.4501,-0.6488,-0.2968,90,13.154,253,-7.4928,9.3684,-8.5774,-1.1184,-0.1037,-1.4797,85,12781.152,247130,1.6592,-8.1596,-2.314,-0.1377,-0.6661,-0.0302,59
13.438,259,-4.1041,-8.0463,-20.2137,0.7073,-1.139,0.3401,90,13.206,254,-6.9132,7.2791,-9.212,-1.0423,-0.3285,-1.4364,85,12781.204,247131,1.3397,-8.6227,-1.6189,-0.0769,-0.7955,-0.2387,59
13.49,260,-3.86,-6.8962,-19.4149,1.0937,-1.247,0.8066,90,13.258,255,-5.6212,7.4958,-8.147,-0.0928,-0.434,-1.1014,85,12781.256,247132,0.7014,-9.3571,-0.5126,-0.0434,-0.8696,-0.2149,59
13.541,261,-2.7795,-5.4772,-18.464,1.1478,-1.2668,0.8409,90,13.31,256,-5.8185,6.9964,-8.4575,0.034,-0.4039,-0.7528,85,12781.307,247133,-1.3814,-10.0513,0.8913,0.1289,-0.6337,0.1969,59
13.593,262,-3.1042,-4.1394,-16.8344,1.1825,-0.8048,0.8604,90,13.361,257,-5.8581,6.8685,-8.1192,0.2623,-0.3167,-0.4309,85,12781.359,247134,-1.9608,-10.3107,1.1981,0.449,-0.0011,0.7853,59
13.645,263,-3.6756,-3.8323,-15.8227,0.9234,-0.4175,0.7024,90,13.413,258,-5.6831,6.6766,-7.616,0.4099,-0.2319,-0.0513,85,12781.411,247135,-1.9211,-8.8844,0.0924,0.7802,0.6795,1.2448,59
13.697,264,-4.1445,-3.7458,-15.4336,0.4535,-0.0022,0.4553,90,13.465,259,-5.4298,7.0563,-7.6439,0.4867,-0.1791,0.3245,85,12781.463,247136,-1.5003,-7.0829,-1.7323,0.956,1.0397,1.3258,59
13.749,265,-4.3461,-3.7973,-15.6458,0.1948,0.2715,0.1844,90,13.517,260,-5.3198,7.3929,-7.7596,0.5223,-0.2235,0.7122,85,12781.514,247137,-1.8364,-6.4142,-3.0763,1.2283,1.1212,1.1503,59
13.8,266,-3.9484,-4.5241,-15.8071,0.1005,0.4669,0.0042,90,13.569,261,-5.7566,8.1647,-7.7879,0.5846,-0.21,0.945,85,12781.566,247138,-1.7122,-5.9992,-3.6409,1.2247,1.1545,0.715,59
13.852,267,-3.6513,-4.8686,-15.9219,0.0461,0.7322,-0.2011,90,13.62,262,-5.863,8.9989,-7.849,0.5097,-0.1503,0.9559,85,12781.618,247139,-0.9565,-5.9175,-4.3715,0.9779,0.8906,0.3359,59
13.904,268,-4.0252,-5.4413,-16.6334,0.0137,0.8939,-0.4327,90,13.672,263,-5.788,9.6751,-8.0929,0.4567,-0.0984,0.8398,85,12781.67,247140,-1.4175,-5.8798,-4.5433,0.5358,0.4276,0.0146,59
13.956,269,-4.2257,-5.9911,-17.0988,-0.0541,0.919,-0.5715,90,13.724,264,-6.6247,10.5335,-7.9228,0.4684,0.0027,0.5456,85,12781.721,247141,-1.9492,-5.6457,-4.3887,0.1694,0.0977,-0.2284,59
14.008,270,-4.2551,-6.8399,-17.5276,-0.0376,0.8062,-0.5337,90,13.776,265,-8.9395,12.8182,-8.0282,0.2594,-0.1046,-0.0179,85,12781.773,247142,-1.6398,-5.6241,-4.0635,0.0392,-0.0489,-0.382,59
14.059,271,-4.5776,-7.5394,-17.864,0.0419,0.5638,-0.3479,90,13.828,266,-8.5638,13.9744,-7.8541,-0.4824,-0.4453,-0.6995,85,12781.825,247143,-1.3153,-5.61,-3.8587,-0.0402,-0.1251,-0.4525,59
14.111,272,-6.419,-8.9375,-18.663,-0.1273,0.3926,-0.215,90,13.879,267,-7.1802,12.8546,-7.4645,-1.0321,-0.5031,-1.1969,85,12781.876,247144,-1.5576,-6.0847,-3.32,-0.0898,-0.2899,-0.5692,59
14.163,273,-6.6867,-10.3877,-20.2702,0.2677,-0.3828,0.2246,90,13.931,268,-6.5459,10.7889,-7.4868,-1.4333,-0.2615,-1.5599,85,12781.928,247145,-2.045,-6.7159,-2.4569,-0.1503,-0.4032,-0.6671,59
14.215,274,-5.8096,-10.5853,-20.2275,0.8698,-0.9487,0.8406,90,13.983,269,-5.3255,7.1779,-7.9592,-1.6545,0.0189,-1.6523,85,12781.98,247146,-2.1058,-6.9132,-1.7253,-0.1357,-0.3582,-0.6032,59
14.267,275,-4.9119,-9.3248,-18.8687,1.1549,-1.3617,1.2901,90,14.035,270,-4.026,4.3249,-8.5925,-1.4289,0.1018,-1.231,85,12782.032,247147,-2.3066,-7.1396,-0.8989,0.006,-0.2842,-0.4403,59
14.318,276,-4.1316,-6.7685,-16.5739,0.8892,-1.3246,1.5591,90,14.087,271,-2.5699,2.6105,-9.5842,-1.1206,-0.0874,-0.5692,85,12782.083,247148,-3.8221,-8.3938,1.0982,0.069,-0.1333,-0.3012,59
14.37,277,-2.605,-4.2556,-14.5822,0.7564,-1.1066,1.2863,90,14.138,272,-1.5034,1.7678,-10.1247,-0.5281,-0.212,0.2378,85,12782.135,247149,-4.1725,-10.0816,3.3649,0.1123,0.0324,0.0323,59
14.422,278,-1.4621,-2.2871,-12.5815,0.5577,-0.6608,0.7648,90,14.19,273,-0.7837,2.6159,-10.3055,0.0821,-0.5456,0.839,85,12782.187,247150,-3.8539,-9.9559,3.13,0.514,0.7014,0.6993,59
14.474,279,-0.3342,-0.6794,-11.5639,0.3098,-0.1899,0.084,90,14.242,274,0.3819,4.7767,-9.4793,0.4472,-1.049,1.2777,85,12782.239,247151,-2.2852,-9.1421,1.3168,0.8129,1.2006,1.1861,59
14.526,280,0.3863,-0.066,-11.9288,-0.0885,0.4736,-0.6138,90,14.294,275,-0.0341,5.899,-8.1571,-0.3536,-1.4383,1.5979,85,12782.29,247152,-0.6658,-6.8608,-1.8779,0.7617,1.1596,1.3007,59
14.577,281,1.3874,-1.0897,-12.6505,-0.2688,1.0281,-1.1231,90,14.346,276,2.6459,1.9847,-10.3664,-0.9381,-1.7224,1.8316,85,12782.342,247153,-0.6941,-4.2787,-4.9534,0.6432,0.883,1.0855,59
14.629,282,2.7667,-3.521,-12.8939,-0.2282,1.4328,-1.4948,90,14.397,277,6.8508,-0.3597,-11.0143,-0.1128,-1.9298,2.0022,85,12782.394,247154,-0.3383,-2.6303,-7.4867,0.419,0.767,0.8127,59
14.681,283,4.0283,-7.113,-13.8636,0.5015,1.7281,-1.7661,90,14.449,278,7.8967,0.3226,-10.2002,0.5894,-0.7293,0.8279,85,12782.446,247155,0.5872,-1.4164,-9.2029,0.1769,0.6699,0.6009,59
14.733,284,7.9968,-6.1215,-12.3321,1.0404,1.8058,-1.9641,90,14.501,279,7.2925,5.5345,-9.7501,1.1019,0.1468,-0.0822,85,12782.497,247156,1.898,-0.5409,-10.2276,-0.0569,0.5101,0.3834,59
14.785,285,8.4345,-8.0426,-14.7173,0.0819,2.0004,-1.2955,90,14.553,280,5.6754,8.0554,-8.2869,0.6873,0.7342,-0.6965,85,12782.549,247157,4.3183,-0.2987,-10.2639,-0.2168,0.0811,0.1576,59
14.836,286,9.2625,-9.7651,-17.2215,-0.6176,1.0921,-1.024,90,14.605,281,5.7807,8.7594,-8.752,1.1693,1.1444,-1.1947,85,12782.601,247158,5.6645,-0.1096,-10.2699,-0.069,-0.4784,-0.1586,59
14.888,287,8.2165,-8.7136,-17.7597,-0.1771,0.8158,-0.0707,90,14.657,282,4.6901,11.4283,-9.5462,1.5251,0.8091,-1.5583,85,12782.653,247159,3.9266,-0.1276,-9.8312,0.5955,-0.717,-0.2387,59
14.94,288,7.143,-8.1869,-18.4353,-0.6826,-0.0609,0.625,90,14.709,283,5.3141,10.3457,-13.8957,0.8552,-0.0821,-1.8237,85,12782.704,247160,2.8969,-0.1415,-9.5337,1.0932,-0.8361,-0.3211,59
14.992,289,6.5059,-6.8862,-18.7868,-1.1107,-0.7138,1.1028,90,14.76,284,5.251,12.2087,-17.3373,1.1281,-0.7326,-2.0174,85,12782.756,247161,2.1542,-0.1232,-9.2468,1.4549,-0.9202,-0.3816,59
15.043,290,5.8931,-4.9648,-19.9595,-1.468,-1.1903,0.5834,90,14.812,285,4.5237,14.2373,-20.5934,0.8016,0.1444,-2.1588,85,12782.808,247162,6.8462,-5.3478,-14.7743,1.0013,-0.5957,-0.258,59
15.095,291,9.3579,-8.8213,-11.9762,-0.6479,-1.5381,0.9335,90,14.864,286,4.7215,14.2461,-17.2415,0.4267,-0.5673,-2.2619,85,12782.86,247163,5.0018,-4.01,-13.4456,1.0664,0.2517,-0.1337,59
15.147,292,5.818,-8.8696,-6.1496,-0.7805,-0.5896,1.3579,90,14.916,287,0.5154,14.5434,-15.0958,-0.3686,0.265,-2.2595,85,12782.911,247164,3.6396,-3.0183,-12.0727,1.1335,0.8723,0.135,59
15.199,293,3.1118,-7.9987,-8.2829,-0.9339,-1.0515,1.4859,90,14.968,288,0.0954,14.1938,-13.466,-0.949,0.1376,-2.3354,85,12782.963,247165,2.7462,-2.2132,-11.2504,1.2062,1.3253,0.4413,59
15.251,294,1.4339,-7.8599,-12.3788,-0.3915,-1.4368,1.5416,90,15.019,289,-0.6024,11.7092,-12.1516,-1.3727,0.1318,-2.3909,85,12783.015,247166,2.2442,1.7946,-14.1586,1.5543,1.656,0.9959,59
15.303,295,-0.2935,-8.0773,-13.5975,-0.3408,-1.718,1.6172,90,15.071,290,-1.5743,8.5789,-10.5679,-1.398,0.2376,-2.1672,85,12783.067,247167,-1.6086,-3.9481,-17.7746,1.8082,1.8973,1.4026,59
15.354,296,-1.365,-7.2117,-13.9533,-0.1544,-1.923,1.7161,90,15.123,291,-2.5571,6.0249,-9.9388,-1.1878,0.4239,-1.6637,85,12783.118,247168,0.9425,-3.1388,-20.941,1.9936,2.0734,1.6258,59
15.406,297,-1.9766,-6.2284,-13.9373,-0.0877,-1.8624,1.6266,90,15.175,292,-2.7292,5.079,-9.4043,-1.0149,0.3798,-1.0079,85,12783.17,247169,-1.8174,-0.9227,-19.0301,1.7809,1.9188,1.1985,59
15.458,298,-2.2319,-4.925,-13.4745,0.04,-1.6961,1.3107,90,15.227,293,-2.2304,4.3424,-9.4143,-0.8046,0.1952,-0.2286,85,12783.222,247170,-4.8591,1.3657,-19.1963,1.9138,2.0891,1.2626,59
15.51,299,-2.555,-3.6638,-12.6818,0.0746,-1.3281,0.9072,90,15.279,294,-1.0995,3.3282,-9.7479,-0.3698,0.0383,0.4985,85,12783.274,247171,-5.6114,3.2007,-18.5118,2.0707,2.2134,1.2674,59
15.562,300,-2.2411,-2.8009,-11.7866,0.0503,-0.9131,0.3512,90,15.33,295,-1.1446,0.61,-9.9387,-0.5205,-0.4334,1.0292,85,12783.326,247172,-4.4391,2.7113,-16.8314,2.1583,2.3041,0.9798,59
15.613,301,-1.0432,-2.0128,-11.6546,-0.0608,-0.37,-0.4048,90,15.382,296,4.0844,2.4169,-10.6863,0.2433,-0.989,1.4166,85,12783.378,247173,-2.3576,1.5331,-15.5228,1.8571,2.1964,0.5901,59
15.665,302,0.5403,-1.0883,-10.7276,0.2717,0.4124,-0.9706,90,15.434,297,7.9007,-0.1425,-15.7391,-0.5025,-1.3945,1.6992,85,12783.429,247174,-0.9328,0.9108,-14.9144,1.4236,1.759,0.3916,59
15.717,303,2.0797,-1.6142,-10.101,0.8727,0.9834,-1.3835,90,15.486,298,10.686,-4.0881,-16.7095,0.305,-1.6904,0.6667,85,12783.481,247175,-0.1361,0.6611,-14.1929,1.0532,1.3555,0.3163,59
15.769,304,6.5746,-5.0731,-12.0053,1.3113,0.6626,-1.6848,90,15.538,299,12.7188,2.1473,-14.8033,0.8943,-1.7134,-0.1723,85,12783.533,247176,0.3985,0.3769,-13.0835,0.7158,0.9813,0.1711,59
15.821,305,9.8552,-2.1468,-8.8065,1.6314,-0.1789,-1.9048,90,15.589,300,11.8348,6.8941,-11.8778,1.3245,-0.5867,-0.209,85,12783.585,247177,0.8105,-0.5794,-10.5135,0.2455,0.5583,-0.1102,59
15.872,306,12.2496,-5.4444,-8.6116,0.5133,-0.5716,-1.9587,90,15.641,301,11.6013,7.4712,-10.1352,0.4062,-0.1376,-0.4293,85,12783.636,247178,2.5128,-2.7824,-7.9627,-0.4102,-0.0659,-0.3554,59
15.924,307,11.4912,-9.1713,-11.3229,-0.3028,-0.2077,-0.8107,90,15.693,302,11.3697,7.8893,-9.6281,0.5545,0.5786,-0.9997,85,12783.688,247179,2.3919,-3.8318,-3.5936,-0.9769,-0.7112,-0.1317,59
15.976,308,10.6749,-10.4753,-12.1325,0.0404,-0.4997,0.085,90,15.745,303,11.3566,8.752,-9.742,0.8336,1.1014,-1.416,85,12783.74,247180,1.5638,-2.375,-5.1147,-0.7856,-0.9332,0.5795,59
16.028,309,9.7157,-8.7805,-12.4851,-0.5689,-0.437,0.7387,90,15.797,304,10.8778,8.6763,-9.9155,0.8219,1.2934,-1.7198,85,12783.792,247181,1.1759,-1.4337,-6.3779,-0.5997,-1.1143,1.0987,59
16.079,310,8.3567,-8.4139,-14.5298,-1.0926,-0.9714,1.2157,90,15.848,305,9.8486,8.8065,-9.9668,1.2716,1.3052,-1.9416,85,12783.843,247182,0.9338,-0.7071,-7.3565,-0.474,-1.2451,1.4775,59
16.131,311,8.1238,-7.8806,-15.8942,-1.2577,-1.3783,1.5604,90,15.9,306,9.5082,9.7388,-10.1617,1.5998,0.9179,-2.1034,85,12783.895,247183,1.0161,-0.3998,-11.2771,-0.9739,-0.5578,0.7411,59
16.183,312,7.2433,-5.7264,-16.0653,-0.9692,-1.6753,1.473,90,15.952,307,8.628,10.3795,-9.5852,1.6864,0.6109,-2.2215,85,12783.947,247184,0.7277,-0.1821,-10.6364,-1.3543,-0.0402,0.2094,59
16.235,313,6.951,-5.3454,-16.4554,-1.3847,-1.892,1.1156,90,16.004,308,5.535,9.3703,-9.7088,1.1788,0.6357,-2.2995,85,12783.999,247185,0.5199,-0.0325,-10.216,-1.6349,0.3329,-0.1792,59
16.287,314,6.5391,-5.1353,-16.6692,-1.688,-2.0495,0.9677,90,16.056,309,3.471,8.5722,-10.87,0.3476,-0.2087,-2.1071,85,12784.05,247186,0.3666,0.079,-9.927,-1.8402,0.6015,-0.4624,59
16.338,315,5.3859,-5.1155,-16.825,-1.9094,-1.9391,0.8281,90,16.107,310,1.6997,8.5703,-11.5114,-0.246,-0.825,-1.7247,85,12784.102,247187,0.2521,0.15,-9.7164,-1.9934,0.7935,-0.6688,59
16.39,316,3.5638,-5.2643,-17.0015,-1.9024,-1.9348,0.7327,90,16.159,311,0.1932,0.9942,-10.3689,-0.8456,-1.1328,-0.5934,85,12784.154,247188,0.1768,0.2069,-9.5424,-2.1079,0.9289,-0.8193,59
16.442,317,3.4424,-4.0827,-12.6081,-0.7491,-1.5459,0.2974,90,16.211,312,-1.7092,6.05,-10.9117,-0.8415,-0.3383,0.2322,85,12784.205,247189,0.1093,0.2539,-9.4283,-2.1906,1.0237,-0.9296,59
16.494,318,1.4342,-3.3621,-14.2489,-0.8599,-0.5458,0.3826,90,16.263,313,-1.3724,9.7424,-8.7376,-0.4507,-0.6669,0.4026,85,12784.257,247190,0.05,0.298,-9.3517,-2.2546,1.0883,-1.01,59
16.546,319,1.9733,-3.3961,-15.1963,-0.2626,-0.2943,0.2525,90,16.315,314,-2.3961,9.4025,-7.6644,-0.5047,-0.6942,0.3642,85,12784.309,247191,-0.0147,0.3314,-9.2724,-2.3018,1.1319,-1.07,59
16.597,320,0.1666,-3.4562,-17.1252,-0.1008,0.4676,0.2861,90,16.367,315,-1.7156,9.1747,-8.0165,-0.6189,-0.7357,0.3764,85,12784.361,247192,-0.0622,0.3554,-9.2183,-2.3391,1.1587,-1.1141,59
16.649,321,-0.1322,-4.2807,-18.5268,0.2993,0.2462,0.204,90,16.418,316,-1.4562,9.131,-7.9856,-0.6685,-0.7182,0.4132,85,12784.412,247193,-0.3308,0.7815,-8.8198,-2.3845,1.1898,-0.9692,59
16.701,322,0.6128,-4.5928,-18.733,0.2896,0.3388,0.1802,90,16.47,317,-1.598,8.8411,-7.5171,-0.7007,-0.6624,0.3892,85,12784.464,247194,-3.2815,3.4613,-6.605,-2.4182,1.0001,-1.321,59
16.753,323,1.0742,-4.2566,-18.6098,0.2623,0.355,0.2114,90,16.522,318,-1.5575,8.9887,-7.3273,-0.3446,-0.5363,0.3279,85,12784.516,247195,-3.7575,3.9578,-5.0531,-2.2243,0.876,-1.6402,59
16.805,324,0.8178,-4.1287,-18.7281,0.2474,0.37,0.221,90,16.574,319,-0.4048,9.176,-7.0571,-0.1086,-0.5654,0.1713,85,12784.568,247196,-6.7287,3.4482,-5.0244,-1.7913,0.9898,-1.873,59
16.857,325,0.7321,-4.5026,-18.3878,0.2271,0.2755,0.1343,90,16.626,320,0.8745,8.6576,-6.8355,-0.1697,-0.4908,0.0993,85,12784.62,247197,-7.1414,5.5319,-4.2632,-1.3626,0.9132,-1.4905,59
16.908,326,1.3308,-4.6282,-17.9396,0.349,0.123,0.0469,90,16.677,321,1.6221,7.5315,-6.9572,-0.1849,-0.1854,0.2521,85,12784.671,247198,-7.231,3.8726,-4.5335,-0.9138,0.8289,-1.3437,59
16.96,327,2.7031,-4.243,-16.9022,0.4012,-0.1674,-0.0564,90,16.729,322,1.9493,6.5512,-7.665,0.2821,0.0871,0.7284,85,12784.723,247199,-7.7077,3.5428,-4.8722,-0.6254,0.573,-1.1158,59
17.012,328,3.9681,-4.1093,-15.5768,0.577,-0.1173,-0.1467,90,16.781,323,2.6986,6.6069,-8.898,0.5627,0.2665,1.197,85,12784.775,247200,-8.1746,3.718,-4.8633,-0.3415,0.3127,-0.7001,59
17.064,329,4.6508,-3.8379,-14.4936,1.0671,0.1835,-0.4854,90,16.833,324,4.1565,6.6856,-10.0077,0.5186,0.3331,1.539,85,12784.827,247201,-7.9926,3.9608,-4.8165,-0.2078,0.2051,-0.3725,59
17.115,330,4.9854,-3.9844,-13.5629,1.4349,0.8164,-1.0162,90,16.885,325,6.0643,6.137,-11.0311,0.6229,-0.0206,1.7886,85,12784.879,247202,-7.8838,4.8397,-4.9053,-0.0638,0.2028,-0.2219,59
17.167,331,6.2155,-2.9918,-13.143,1.3509,1.2782,-1.4168,90,16.936,326,9.3457,5.9127,-12.6426,1.1264,-0.6407,1.9708,85,12784.93,247203,-7.6353,5.0233,-5.0935,-0.003,0.3385,-0.4513,59
17.219,332,9.5931,-3.7303,-13.2587,0.5892,1.6153,-1.7091,90,16.988,327,11.0426,6.3692,-13.3001,1.4938,-0.2424,2.1037,85,12784.982,247204,-7.1479,5.0686,-5.3741,-0.0746,0.4981,-0.6413,59
17.271,333,12.0583,-4.4992,-15.0367,0.0641,1.8614,-1.9225,90,17.04,328,10.7552,6.0216,-13.0668,1.6988,-0.505,2.2008,85,12785.034,247205,-6.3973,4.8135,-5.7684,-0.133,0.5239,-0.7266,59
17.323,334,10.8512,-5.7025,-14.4866,-0.3306,2.0409,-1.8888,90,17.092,329,11.0704,6.5528,-12.0486,1.3988,-0.7958,2.0365,85,12785.086,247206,-6.3229,4.3728,-6.2665,-0.0997,0.4625,-0.7105,59
17.374,335,9.3828,-5.2115,-13.86,0.2327,1.2281,-1.4586,90,17.144,330,10.2478,7.0825,-10.0239,0.4104,-0.9364,1.9324,85,12785.137,247207,-6.4641,4.0222,-6.5854,0.052,0.305,-0.512,59
17.426,336,9.9913,-4.9721,-13.8457,0.3294,0.613,-0.7805,90,17.195,331,9.4096,6.5892,-8.628,-0.3805,-1.0578,1.5169,85,12785.189,247208,-6.6737,3.645,-6.6841,0.2661,0.08,-0.2168,59
17.478,337,9.5014,-3.9954,-13.4651,0.2712,0.3596,-0.0686,90,17.247,332,9.7789,5.4173,-8.5085,-0.9577,-0.7248,0.7968,85,12785.241,247209,-7.3986,3.1987,-6.7619,0.4976,-0.174,0.1226,59
17.53,338,8.791,-3.4712,-13.2328,0.042,0.0392,0.4504,90,17.299,333,10.1379,4.4031,-8.7478,-1.379,-0.138,0.0747,85,12785.293,247210,-7.9146,2.7708,-6.374,0.7013,-0.5332,0.3437,59
17.581,339,8.9868,-3.4005,-13.2303,0.2426,-0.4721,0.7055,90,17.351,334,11.0515,4.0569,-9.2813,-1.6865,0.4559,-0.4977,85,12785.344,247211,-8.2591,2.2051,-5.8895,0.6877,-0.9099,0.4067,59
17.633,340,9.615,-2.8423,-13.2882,0.7262,-0.8435,0.9974,90,17.403,335,10.9123,3.6666,-13.9503,-1.9109,0.9556,0.3021,85,12785.396,247212,-8.4764,1.8611,-5.5131,0.4457,-1.23,0.2639,59
17.685,341,10.4058,-2.0842,-13.2323,0.887,-1.2818,1.3503,90,17.455,336,10.8831,0.2114,-13.4027,-1.4201,0.5087,0.3687,85,12785.448,247213,-8.2941,1.6645,-5.1592,0.111,-1.4274,-0.04,59
17.737,342,11.0402,-1.5457,-13.1904,0.6351,-1.6048,1.6621,90,17.507,337,10.373,-0.0011,-13.3476,-0.3647,1.0503,-0.2168,85,12785.499,247214,-7.8152,1.4234,-4.5397,-0.2618,-1.6122,-0.4517,59
17.789,343,11.1229,-1.3924,-13.0874,0.3776,-1.8406,1.8015,90,17.559,338,9.2482,0.1909,-13.858,0.4056,1.4457,-0.8446,85,12785.551,247215,-7.2326,1.0047,-3.824,-0.6653,-1.8353,-0.8603,59
17.84,344,10.4738,-1.4762,-12.8692,0.4196,-2.0127,1.6711,90,17.61,339,8.4445,2.6797,-13.8313,0.9677,1.5585,-1.3028,85,12785.603,247216,-6.1791,0.2083,-3.0607,-1.1439,-2.0026,-1.3001,59
17.892,345,9.74,-1.4627,-12.5899,0.7515,-2.1383,1.3554,90,17.662,340,7.5986,3.6784,-12.7834,0.7357,0.998,-1.5796,85,12785.655,247217,-5.0801,-0.511,-2.2947,-1.5128,-2.1246,-1.6249,59
17.944,346,9.3769,-1.2199,-12.2592,1.0326,-2.0647,0.9265,90,17.714,341,7.0036,3.5536,-11.9405,-0.1431,0.3462,-1.1227,85,12785.706,247218,-5.5886,-0.0039,-1.882,-0.9096,-1.671,-1.1051,59
17.996,347,8.5353,-1.2541,-11.7072,0.9848,-1.6827,0.4554,90,17.766,342,6.8802,3.0424,-10.9368,-0.7844,-0.2299,-0.4412,85,12785.758,247219,-4.769,0.1193,-2.0126,-0.3846,-1.2343,-0.8516,59
18.048,348,7.906,-1.5151,-11.1782,0.8024,-1.2323,-0.1101,90,17.818,343,7.1612,2.0298,-10.179,-0.9762,-0.5155,0.1846,85,12785.81,247220,-3.4484,-0.3104,-0.9196,0.1474,-1.0224,-0.699,59
18.099,349,8.1341,-2.0398,-10.6686,0.555,-0.6167,-0.6934,90,17.869,344,7.806,1.3936,-9.7676,-0.2601,-0.6356,0.702,85,12785.862,247221,-2.4017,-0.3593,-0.6441,0.5384,-0.9285,-0.5341,59
18.151,350,8.8586,-2.6318,-10.389,0.2989,0.1109,-1.1812,90,17.921,345,8.6223,1.588,-9.7066,0.4819,-0.5146,1.1584,85,12785.914,247222,-1.8048,-0.0041,-0.5081,0.8675,-0.8342,-0.3577,59
18.203,351,9.7023,-2.5843,-10.448,-0.1057,0.7633,-1.4301,90,17.973,346,9.3645,2.2934,-9.7977,1.0234,-0.273,1.5108,85,12785.965,247223,-1.8103,0.1091,-0.0045,1.051,-0.8244,-0.2088,59
18.255,352,10.0839,-2.4744,-10.9331,-0.7531,1.2395,-1.3228,90,18.025,347,9.5825,2.9139,-10.1187,1.3738,-0.01,1.768,85,12786.017,247224,-1.0802,0.5678,0.134,1.0305,-0.8203,-0.1539,59
18.307,353,10.2099,-2.6591,-11.418,-1.227,1.5422,-1.0292,90,18.077,348,9.5861,3.4507,-10.4642,1.2723,0.1305,1.8766,85,12786.069,247225,-0.4567,1.1317,-0.0604,1.0243,-0.7912,-0.0331,59
18.359,354,9.9996,-2.6947,-11.8829,-1.44,1.6711,-0.6976,90,18.128,349,9.1736,3.4523,-10.7749,1.0057,0.246,1.6183,85,12786.121,247226,0.0612,1.6029,-0.2271,0.8487,-0.675,-0.0271,59
18.41,355,9.5274,-2.5106,-12.1649,-1.2477,1.582,-0.4764,90,18.18,350,8.7326,3.3122,-10.7608,1.0231,0.2379,1.0314,85,12786.172,247227,0.3807,1.8646,-0.3268,0.659,-0.5292,-0.0431,59
18.462,356,9.0421,-2.4113,-12.2918,-0.9912,1.4155,-0.3707,90,18.232,351,8.1847,3.6905,-10.6448,1.2377,0.1827,0.3218,85,12786.224,247228,0.648,2.1459,-0.3572,0.5063,-0.3968,-0.0419,59
18.514,357,8.4543,-2.2599,-12.3462,-0.7905,1.1435,-0.2782,90,18.284,352,7.9021,6.8574,-10.7,0.9495,-0.1133,-0.4515,85,12786.276,247229,0.887,2.3277,-0.4257,0.3791,-0.2985,-0.0311,59
18.566,358,7.9717,-2.6264,-12.7871,-0.7364,0.6855,-0.1074,90,18.336,353,8.6488,8.8416,-10.9271,0.013,-0.4429,-1.0159,85,12786.328,247230,1.0293,2.4831,-0.4455,0.2948,-0.2359,-0.033,59
18.617,359,8.3205,-4.1626,-13.7061,-0.1,-0.1683,0.108,90,18.387,354,8.9638,9.5716,-12.1594,-0.6705,-0.7831,-1.4278,85,12786.38,247231,1.1371,2.627,-0.4786,0.2541,-0.206,-0.0446,59
18.669,360,8.742,-4.4887,-14.4137,0.2846,-0.7922,0.7237,90,18.439,355,9.5806,8.9876,-13.0293,-1.1694,-1.2161,-1.7285,85,12786.431,247232,1.2467,2.7429,-0.5344,0.2372,-0.2108,-0.0561,59
18.721,361,8.9194,-5.6647,-15.4916,0.1294,-1.2475,1.2048,90,18.491,356,9.5427,7.8167,-13.1838,-1.5335,-1.3387,-1.9479,85,12786.483,247233,1.3762,2.8626,-0.5379,0.2381,-0.2344,-0.0697,59
18.773,362,10.5213,-6.1841,-15.5847,0.7567,-1.5798,1.556,90,18.543,357,8.8333,7.5965,-11.8909,-1.7993,-1.0788,-2.108,85,12786.535,247234,1.4731,2.9895,-0.5677,0.2534,-0.2713,-0.0916,59
18.825,363,10.7747,-5.9374,-14.6543,1.2267,-1.811,1.8123,90,18.595,358,7.1389,6.476,-10.0973,-1.9932,-0.4548,-2.0391,85,12786.587,247235,1.5822,3.1015,-0.6343,0.2698,-0.3108,-0.109,59
18.876,364,9.7308,-5.0417,-13.022,1.5697,-1.6559,1.9993,90,18.646,359,5.4133,6.0201,-8.6549,-1.9523,0.0173,-1.7821,85,12786.638,247236,1.7259,3.2472,-0.7172,0.2864,-0.3496,-0.1265,59
18.928,365,8.2372,-4.4054,-11.4893,1.82,-1.359,1.9372,90,18.698,360,3.0886,5.8033,-7.0452,-2.0269,0.1757,-1.4118,85,12786.69,247237,1.8664,3.3911,-0.8,0.2963,-0.3833,-0.1384,59
18.98,366,6.5788,-4.6449,-10.4381,1.7274,-1.0407,1.6822,90,18.75,361,1.7766,5.5184,-6.1096,-1.9561,-0.0414,-1.0222,85,12786.742,247238,2.0266,3.5378,-0.8926,0.2985,-0.4064,-0.1459,59
19.032,367,5.1654,-5.4121,-9.741,1.9324,-0.8763,1.3108,90,18.802,362,1.1291,5.3183,-4.8879,-1.8902,-0.1258,-0.7426,85,12786.793,247239,2.1781,3.688,-1.0101,0.2836,-0.4061,-0.1481,59
19.083,368,3.7787,-5.9622,-8.8694,1.9102,-0.7599,1.0481,90,18.854,363,0.2334,5.339,-3.7967,-1.58,-0.1801,-0.5526,85,12786.845,247240,2.274,3.8245,-1.1183,0.2408,-0.3556,-0.1303,59
19.135,369,2.6684,-7.0773,-8.0232,1.7612,-0.6565,0.7301,90,18.906,364,-0.1064,5.0746,-3.0798,-1.3037,-0.2155,-0.3687,85,12786.897,247241,2.3724,3.9317,-1.2255,0.1819,-0.2707,-0.0935,59
19.187,370,1.9235,-6.9978,-7.272,1.6417,-0.4598,0.6342,90,18.957,365,-0.2015,4.9582,-2.9067,-0.8724,-0.2213,-0.2207,85,12786.949,247242,2.4738,4.0096,-1.2684,0.1165,-0.1713,-0.057,59
19.239,371,1.9564,-7.2742,-6.2977,1.6037,-0.6327,0.2633,90,19.009,366,-0.8778,4.3528,-3.1567,-0.4098,-0.2088,-0.087,85,12787.0,247243,2.554,4.0616,-1.2705,0.0709,-0.1053,-0.036,59
19.291,372,1.746,-7.3808,-5.4997,1.5326,-0.4167,-0.1256,90,19.061,367,-1.2229,5.1514,-2.012,0.0628,-0.2875,-0.0526,85,12787.052,247244,2.5987,4.0984,-1.2683,0.0494,-0.0759,-0.0189,59
