right_hand_timestamp,right_hand_index,right_hand_accel_x,right_hand_accel_y,right_hand_accel_z,right_hand_gyro_x,right_hand_gyro_y,right_hand_gyro_z,right_hand_battery_percentage,left_hand_timestamp,left_hand_index,left_hand_accel_x,left_hand_accel_y,left_hand_accel_z,left_hand_gyro_x,left_hand_gyro_y,left_hand_gyro_z,left_hand_battery_percentage,ball_timestamp,ball_index,ball_accel_x,ball_accel_y,ball_accel_z,ball_gyro_x,ball_gyro_y,ball_gyro_z,ball_battery_percentage
0.673,13,0.7351,-7.5201,-9.2461,1.343,0.3264,-0.9662,95,0.168,3,2.2573,9.5521,-9.7325,-1.1871,1.1151,-0.0064,92,4044.046,78190,-4.5275,2.4686,-1.1274,-0.1917,-0.0329,-0.04,61
0.725,14,1.0639,-7.2084,-8.536,0.6298,-0.1534,-1.0354,95,0.22,4,1.4912,9.314,-11.1237,-0.7608,1.4929,0.1097,92,4044.097,78191,-4.8228,2.3471,-1.2985,-0.1215,-0.0586,-0.014,61
0.777,15,1.9567,-7.3251,-8.0755,0.0721,-0.2921,-1.0583,95,0.271,5,0.6996,9.5287,-12.285,-0.6499,1.5577,0.2362,92,4044.149,78192,-5.1018,2.2112,-1.1911,-0.111,-0.0462,-0.0232,61
0.828,16,2.6706,-6.9289,-7.9231,-0.0658,-0.3403,-1.2169,95,0.323,6,-0.302,9.1679,-12.2649,-1.0555,1.4074,0.4213,92,4044.201,78193,-5.1069,2.3741,-1.1422,-0.0825,-0.0244,-0.0057,61
0.88,17,3.7308,-6.4257,-7.856,-0.1573,-0.5166,-1.5633,95,0.375,7,-0.9491,8.56,-11.9567,-1.1061,1.1352,0.6439,92,4044.252,78194,-4.9691,2.4741,-1.298,0.0301,-0.0035,0.0597,61
0.932,18,4.9796,-5.8982,-8.0545,-0.7922,-0.6459,-1.4492,95,0.427,8,-1.2775,8.0592,-11.6718,-0.6984,0.7981,0.829,92,4044.304,78195,-4.5677,1.7751,-2.3703,0.1035,0.0002,0.0748,61
0.984,19,5.7069,-7.2517,-11.5525,-0.633,-1.0951,-0.8799,95,0.479,9,-1.2738,7.7772,-11.2939,-0.5733,0.4976,0.9993,92,4044.356,78196,-3.3126,1.3105,-4.3107,0.1471,-0.0127,0.0605,61
1.035,20,8.5081,-10.4903,-7.3041,0.0919,-1.4686,-0.7173,95,0.53,10,-0.6129,7.35,-10.8313,-0.4586,0.2457,1.3156,92,4044.408,78197,-2.4228,0.9829,-5.7665,0.1783,-0.0217,0.0497,61
1.087,21,9.5844,-11.5649,-5.0488,-0.1973,-1.7412,-0.7922,95,0.582,11,0.0218,6.6012,-11.5104,-0.1796,0.0571,1.6256,92,4044.46,78198,-1.7655,0.7315,-6.8408,0.1999,-0.0284,0.0411,61
1.139,22,8.2589,-11.1194,-8.1458,0.189,-0.7293,-0.4386,95,0.634,12,1.3769,7.857,-12.8777,0.5407,-0.1439,1.8454,92,4044.511,78199,-1.2852,0.5597,-7.5923,0.215,-0.0329,0.0345,61
1.191,23,8.6001,-11.73,-10.5723,0.1089,-1.0814,0.2311,95,0.686,13,2.607,7.756,-15.5419,0.587,-0.7777,2.0122,92,4044.563,78200,-0.9394,0.4314,-8.1394,0.2254,-0.0352,0.0284,61
1.243,24,9.459,-10.3697,-9.077,0.2658,-0.7898,0.7871,95,0.738,14,5.1965,5.1174,-18.1345,0.4322,-1.2403,2.0843,92,4044.615,78201,-0.693,0.3563,-8.5226,0.2309,-0.0361,0.0228,61
1.294,25,8.0018,-10.038,-9.3871,0.1842,-0.6087,1.204,95,0.789,15,8.7115,3.8649,-10.5875,-0.2627,-0.564,2.1252,92,4044.667,78202,-0.5311,0.3501,-8.7789,0.2333,-0.0362,0.0169,61
1.346,26,6.6949,-9.9291,-10.1747,0.4927,-0.6349,1.3447,95,0.841,16,8.4165,7.1408,-12.4105,-0.2931,-1.0843,1.4586,92,4044.718,78203,-1.6164,0.9754,-5.9361,-0.0575,-0.0137,-0.0433,61
1.398,27,5.9443,-9.5481,-10.1277,0.8329,-0.491,1.5534,95,0.893,17,7.2808,8.7616,-15.1093,0.0796,-0.2655,0.609,92,4044.77,78204,-1.2359,0.7472,-6.8222,-0.4975,0.0883,-0.263,61
1.45,28,4.2932,-8.9632,-9.8527,0.9147,-0.2254,1.7548,95,0.945,18,8.8765,10.0537,-14.7968,0.166,-0.279,-0.2331,92,4044.822,78205,-0.9261,0.5684,-7.5266,-0.8192,0.1601,-0.4321,61
1.502,29,3.8662,-7.9607,-9.1159,0.9611,0.012,1.779,95,0.997,19,8.2043,10.0621,-15.5715,-0.3934,-0.3753,-0.7995,92,4044.874,78206,-0.7049,0.4355,-8.0488,-1.0543,0.2099,-0.5551,61
1.554,30,3.4881,-8.2335,-8.5886,0.8608,0.2125,1.6031,95,1.048,20,6.9794,9.6328,-15.0459,-0.9449,-0.4785,-1.267,92,4044.925,78207,-0.5432,0.3312,-8.4306,-1.2272,0.2446,-0.6454,61
1.605,31,3.0982,-7.5303,-8.347,1.061,0.2274,1.1582,95,1.1,21,5.7749,8.1951,-15.0593,-1.3684,-0.5839,-1.4945,92,4044.977,78208,-3.1761,-0.3772,-10.3509,-1.4181,0.3445,-0.6749,61
1.657,32,4.9047,-5.1794,-6.015,1.4487,0.6158,0.1971,95,1.152,22,4.2712,7.3083,-15.2517,-1.3854,-0.5295,-1.6076,92,4045.029,78209,-7.5496,-2.4113,-4.9911,-0.5687,-0.1044,-0.5726,61
1.709,33,5.0059,-6.1948,-6.2058,0.8438,1.1319,-0.5313,95,1.204,23,3.1674,6.9724,-14.3136,-1.1452,-0.3896,-1.6791,92,4045.081,78210,-9.178,-4.4294,-3.3441,-0.2172,-0.297,-0.2286,61
1.761,34,2.9886,-8.4101,-7.8121,0.7715,1.4737,-0.9183,95,1.256,24,2.5778,7.1673,-12.759,-1.0173,-0.4045,-1.592,92,4045.132,78211,-9.6187,-2.26,-2.1477,0.1633,-0.3619,0.085,61
1.812,35,1.2997,-8.3384,-8.4202,1.138,0.9893,-0.9668,95,1.308,25,2.649,7.6553,-11.5755,-1.415,-0.2909,-0.9723,92,4045.184,78212,-10.2696,-1.1102,0.1117,0.6538,-0.1416,0.5457,61
1.864,36,1.3824,-7.7482,-7.3873,1.2634,0.4569,-0.9533,95,1.359,26,4.098,5.0107,-9.0624,-1.4174,0.2752,-0.2013,92,4045.236,78213,-10.3886,0.6656,-0.0735,1.1154,0.147,0.8906,61
1.916,37,1.5125,-7.1564,-6.8058,0.6839,0.3158,-0.8005,95,1.411,27,3.8851,7.5691,-8.8948,-0.8009,0.88,0.1267,92,4045.288,78214,-9.6842,1.7872,0.0617,1.4879,0.5065,1.0664,61
1.968,38,1.4249,-6.4088,-6.4445,0.3765,0.1103,-0.7018,95,1.463,28,3.0718,8.7856,-10.191,-1.2608,1.3213,0.3448,92,4045.34,78215,-8.0964,1.4276,-0.2325,1.7598,0.6805,1.26,61
2.02,39,0.8899,-5.2483,-6.4611,0.3728,-0.1664,-0.7566,95,1.515,29,1.7095,8.4724,-11.3345,-1.062,1.1966,0.4402,92,4045.391,78216,-6.7979,1.1563,-1.2065,1.758,0.6746,1.472,61
2.071,40,0.6715,-4.4459,-6.4253,0.2002,-0.5609,-1.0355,95,1.567,30,0.9587,8.5726,-11.3803,-0.5983,1.075,0.5093,92,4045.443,78217,-5.8846,1.6619,-2.2012,1.5489,0.6949,1.5467,61
2.123,41,1.1949,-4.1544,-6.7693,-0.4668,-0.796,-1.2464,95,1.618,31,0.4111,8.7551,-10.7875,-0.512,0.858,0.4605,92,4045.495,78218,-5.3653,1.9763,-3.543,1.412,0.6674,1.5508,61
2.175,42,2.3685,-6.9986,-7.5755,-1.018,-1.2481,-0.9402,95,1.67,32,0.1608,8.4562,-10.2582,-0.4743,0.65,0.3015,92,4045.547,78219,-4.8423,1.777,-4.8268,1.2364,0.533,1.3397,61
2.227,43,6.3935,-10.3056,-12.1149,-1.4204,-1.5802,-0.0096,95,1.722,33,-0.2844,7.4013,-9.8435,-0.6026,0.5899,0.3462,92,4045.599,78220,-3.531,1.34,-6.1821,1.081,0.3546,1.1087,61
2.279,44,7.7746,-11.4111,-14.2268,-1.5231,-1.8227,0.6697,95,1.774,34,-0.5109,5.9423,-9.704,-0.8547,0.3818,0.7705,92,4045.65,78221,-2.5738,1.0376,-7.1427,0.963,0.2237,0.9358,61
2.33,45,9.1571,-12.9163,-13.1346,-1.218,-0.6478,0.9758,95,1.826,35,-0.916,4.6675,-9.7551,-0.8864,0.1084,1.2277,92,4045.702,78222,-1.8721,0.8133,-7.8442,0.876,0.127,0.8086,61
2.382,46,6.8364,-12.7663,-13.513,-0.92,-0.9052,1.2817,95,1.877,36,0.0397,4.5269,-11.4411,0.0131,-0.572,1.5614,92,4045.754,78223,-1.3516,0.6601,-8.3555,0.8114,0.0563,0.7143,61
2.434,47,4.7219,-10.8736,-13.3702,-0.4066,-0.5655,1.2416,95,1.929,37,4.9479,8.6308,-16.196,0.6813,-1.0901,1.0816,92,4045.805,78224,-0.978,0.5521,-8.7258,0.7623,0.0042,0.6442,61
2.486,48,4.0407,-9.7359,-12.0521,-0.0926,-0.3901,1.1059,95,1.981,38,6.8822,8.3409,-19.7604,0.9835,-1.4683,0.3175,92,4045.857,78225,-0.709,0.4936,-8.9928,0.7256,-0.0334,0.5914,61
2.538,49,3.639,-9.2925,-11.8177,0.2038,-0.4021,0.9442,95,2.033,39,9.9418,11.4144,-11.7742,1.2,-1.3545,-0.4328,92,4045.909,78226,-0.5008,0.4885,-9.2283,0.6947,-0.0615,0.5437,61
2.589,50,2.2833,-8.5207,-12.0209,0.2079,-0.2264,0.7698,95,2.085,40,3.3299,12.18,-13.2397,1.0501,-1.2641,-0.4395,92,4045.961,78227,4.9929,5.6876,-8.8156,0.6747,-0.0236,0.5693,61
2.641,51,2.1341,-8.2981,-10.8852,0.1052,-0.3358,0.6707,95,2.136,41,2.6252,10.6561,-14.415,0.5359,-0.9531,-0.6349,92,4046.012,78228,3.7115,4.0968,-9.6445,0.3108,0.0706,0.1222,61
2.693,52,1.0168,-8.7035,-10.2167,0.2442,-0.1252,0.8531,95,2.188,42,3.4675,9.594,-14.0893,0.0489,-1.0162,-0.5393,92,4046.064,78229,2.6909,3.052,-9.6562,0.047,0.141,-0.2047,61
2.745,53,0.8025,-9.1266,-9.8415,0.3699,-0.102,1.0342,95,2.24,43,3.6201,8.6933,-14.6896,-0.3083,-1.1119,-0.3509,92,4046.116,78230,1.9651,2.2919,-9.6855,-0.1464,0.1911,-0.4433,61
2.796,54,0.8902,-9.1996,-9.5708,0.5297,-0.083,1.0674,95,2.292,44,1.8884,7.6669,-15.1324,-0.3058,-0.6852,-0.3296,92,4046.168,78231,1.4273,1.7385,-9.7082,-0.2893,0.2267,-0.6186,61
2.848,55,2.261,-7.3969,-7.4068,0.7549,-0.0312,0.808,95,2.344,45,0.3273,6.8802,-15.1423,-0.1993,-0.5619,-0.3653,92,4046.219,78232,1.0356,1.3308,-9.7261,-0.3944,0.2514,-0.7468,61
2.9,56,3.0974,-6.5118,-7.4187,0.4927,0.6597,0.4965,95,2.395,46,-1.0263,7.4838,-15.2184,-0.2628,-0.6346,-0.4743,92,4046.271,78233,-4.4757,6.0262,-4.5351,-0.425,-0.0797,-0.3436,61
2.952,57,2.1304,-9.1137,-9.2436,0.9201,1.1639,0.2263,95,2.447,47,-1.3664,8.7127,-15.1976,-0.3549,-0.8201,-0.6418,92,4046.323,78234,-5.9702,7.2083,-4.354,0.2399,0.253,0.4135,61
3.004,58,0.2238,-9.2194,-10.608,1.3459,1.4864,-0.137,95,2.499,48,-0.6056,8.8723,-14.6372,-0.6707,-1.0146,-0.6949,92,4046.375,78235,-4.6272,6.1289,-6.0746,0.5313,0.144,0.6712,61
3.056,59,-1.4002,-8.5561,-10.9709,1.1239,0.9538,-0.265,95,2.551,49,1.5849,8.4246,-12.45,-1.1695,-0.7158,-0.5682,92,4046.426,78236,-4.5057,5.8792,-6.5228,0.61,-0.0138,0.6155,61
3.107,60,-1.5867,-8.0854,-10.1856,1.1749,0.4265,-0.5316,95,2.603,50,3.8526,7.2257,-11.6694,-1.0086,0.1566,-0.5721,92,4046.478,78237,-5.1219,6.0309,-6.7047,0.653,0.0724,0.4475,61
3.159,61,-1.5675,-7.5195,-9.0509,1.2202,0.1505,-0.7217,95,2.655,51,3.6399,8.7151,-14.0127,-1.4161,0.7934,-0.3436,92,4046.53,78238,-4.6704,6.4779,-7.2644,0.725,0.2296,0.2841,61
3.211,62,-1.4612,-6.5629,-8.2606,0.9199,-0.0461,-0.7893,95,2.706,52,2.0177,8.6708,-15.2568,-1.7136,1.2581,0.0024,92,4046.581,78239,-3.718,7.064,-8.6204,0.7426,0.2557,0.3312,61
3.263,63,-1.8056,-6.0035,-7.9885,0.5182,-0.2197,-0.9374,95,2.758,53,0.5869,8.5484,-15.5166,-1.2832,1.2641,0.041,92,4046.633,78240,-3.3573,8.4063,-9.2547,0.6851,0.203,0.5044,61
3.315,64,-2.7999,-5.078,-8.2171,0.6792,-0.4807,-1.2502,95,2.81,54,-0.4967,8.2527,-15.0288,-1.0365,1.5494,-0.0145,92,4046.685,78241,-3.4151,9.5033,-9.6024,0.7376,0.1745,0.6875,61
3.366,65,-2.1266,-4.7858,-8.9051,0.3401,-1.0201,-1.5207,95,2.862,55,-1.219,8.1686,-14.2183,-0.7026,1.3957,0.036,92,4046.737,78242,-3.8467,9.4225,-9.6936,0.9084,0.1379,0.7502,61
3.418,66,0.6322,-5.9848,-8.9231,-0.1549,-1.4139,-1.713,95,2.914,56,-1.5775,8.2394,-13.4591,-0.6603,0.9831,0.3398,92,4046.789,78243,-2.8057,6.9491,-9.6955,1.0286,0.0875,0.7183,61
3.47,67,4.8445,-9.5657,-10.8865,-0.7904,-1.3792,-0.6769,95,2.965,57,-2.0715,7.6456,-13.2299,-0.4881,0.761,0.5663,92,4046.84,78244,-2.0417,5.1446,-9.7124,1.1146,0.048,0.6949,61
3.522,68,6.1865,-10.5556,-14.4902,-0.7681,-1.676,0.1826,95,3.017,58,-3.6475,5.3779,-13.3146,-0.9945,0.7606,1.0203,92,4046.892,78245,-1.4747,3.8337,-9.7194,1.1775,0.0166,0.6769,61
3.574,69,9.5715,-6.5286,-7.9845,-0.0142,-1.8925,0.0408,95,3.069,59,-3.1231,4.2657,-13.1739,-1.4059,-0.1157,1.41,92,4046.944,78246,-1.0509,2.8682,-9.7317,1.2221,-0.008,0.6624,61
3.625,70,2.2246,-7.5079,-8.7641,0.067,-0.6988,0.1289,95,3.121,60,-0.1002,4.7831,-13.6821,-0.8063,-0.7571,1.6945,92,4046.996,78247,-0.7469,2.1683,-9.748,1.2537,-0.0271,0.6506,61
3.677,71,3.9532,-8.0114,-9.4109,0.4526,-0.8707,0.3685,95,3.173,61,3.9694,8.8178,-16.3643,0.0833,-1.2027,0.9477,92,4047.048,78248,-0.5373,1.6605,-9.7695,1.2753,-0.0427,0.6402,61
3.729,72,2.479,-7.5445,-10.4715,0.784,-1.0753,0.3761,95,3.224,62,6.4414,10.5813,-19.8832,0.3255,-1.5504,0.0987,92,4047.099,78249,-0.3847,1.2896,-9.7945,1.2901,-0.0567,0.6311,61
3.781,73,1.4878,-6.8723,-11.2302,0.5836,-0.8323,0.2748,95,3.276,63,8.7156,11.8043,-22.4515,0.6111,-1.8042,-0.4996,92,4047.151,78250,-0.2629,1.0352,-9.8383,1.2999,-0.07,0.6225,61
3.832,74,1.8217,-7.3584,-11.0084,0.0908,-0.7226,0.2946,95,3.328,64,0.9902,9.9244,-24.3259,-0.1002,-0.6377,-1.0066,92,4047.203,78251,-0.1718,0.8627,-9.9262,1.3054,-0.0816,0.615,61
3.884,75,0.9207,-7.3747,-11.2062,-0.0627,-0.2699,0.3456,95,3.38,65,2.0114,10.2695,-21.5483,-0.4795,-0.6797,-0.6812,92,4047.255,78252,-0.1454,0.085,-9.1238,0.8779,-0.2024,0.1379,61
3.936,76,0.657,-8.3397,-10.8618,-0.1967,-0.1632,0.2993,95,3.432,66,1.3494,9.2659,-20.2437,-0.6003,-1.1489,-0.4596,92,4047.306,78253,-0.0781,0.1109,-9.3542,0.5753,-0.2785,-0.2074,61
3.988,77,0.1303,-8.7098,-11.0802,-0.0678,-0.0548,0.2709,95,3.483,67,0.7168,8.1778,-19.225,-0.4927,-0.7205,-0.343,92,4047.358,78254,-0.0348,0.1156,-9.5082,0.355,-0.3353,-0.4605,61
4.04,78,-0.1138,-9.2656,-11.1153,-0.0595,-0.0612,0.4106,95,3.535,68,0.4209,7.3317,-18.6686,-0.4347,-0.5045,-0.2655,92,4047.41,78255,-0.0079,0.1246,-9.6263,0.1949,-0.3772,-0.6462,61
4.091,79,0.1227,-9.5963,-10.9551,0.0311,-0.0382,0.6107,95,3.587,69,-0.5434,6.7726,-17.9776,-0.1786,-0.253,-0.2451,92,4047.462,78256,0.0072,0.1354,-9.7161,0.0785,-0.4084,-0.7826,61
4.143,80,1.6994,-8.0088,-9.1013,0.6761,0.2202,0.3713,95,3.639,70,-1.2985,6.684,-17.1891,-0.0762,-0.198,-0.1329,92,4047.513,78257,-5.2263,-5.159,-15.1168,-0.0283,-0.4264,-0.8901,61
4.195,81,3.7154,-7.8508,-8.9216,0.2986,0.8431,0.1224,95,3.691,71,-2.2956,7.4381,-17.0977,-0.0717,-0.2014,-0.1039,92,4047.565,78258,-6.3391,1.1594,-16.0194,0.0778,-0.2652,-0.6274,61
4.247,82,3.6001,-10.9275,-10.2437,0.7881,1.2978,-0.1682,95,3.742,72,-2.6724,7.9075,-17.1957,-0.2642,-0.4336,-0.1644,92,4047.617,78259,-4.723,1.2837,-16.0967,0.4425,0.3588,-0.2888,61
4.299,83,2.7381,-11.1561,-11.8192,1.2495,1.6296,-0.564,95,3.794,73,-1.8397,8.2541,-16.4449,-0.5612,-0.7857,-0.1564,92,4047.669,78260,-3.2485,1.155,-15.7749,0.5451,0.4519,-0.0601,61
4.35,84,0.7429,-10.1177,-12.1498,1.4217,1.7423,-0.5679,95,3.846,74,0.3161,9.2768,-14.8128,-1.0896,-0.5515,-0.1453,92,4047.72,78261,-2.8546,2.2203,-15.5368,0.5536,0.3388,-0.0084,61
4.402,85,-0.274,-9.2601,-11.7266,1.275,1.4081,-0.554,95,3.898,75,2.6052,8.4003,-13.0845,-0.3924,0.2766,-0.7912,92,4047.772,78262,-2.5698,3.1072,-15.6816,0.5044,0.2688,-0.1234,61
4.454,86,-0.17,-8.9806,-10.9138,1.242,0.8274,-0.5703,95,3.95,76,3.3239,9.9642,-15.9186,-0.9664,0.8809,-0.9946,92,4047.824,78263,-2.4864,3.9992,-15.7582,0.3472,0.1901,-0.1665,61
4.506,87,-0.2569,-8.4036,-10.0357,1.0219,0.3721,-0.5133,95,4.002,77,1.7933,9.4181,-17.2027,-1.3853,1.322,-0.4203,92,4047.875,78264,-2.1545,4.1881,-15.8849,0.2729,0.2061,-0.1268,61
4.558,88,-0.6673,-7.5486,-9.2456,0.9442,-0.1276,-0.4748,95,4.054,78,0.5624,7.5642,-17.1091,-1.4485,1.3399,-0.0002,92,4047.927,78265,-1.5979,4.8051,-16.8408,0.2288,0.1227,-0.0037,61
4.609,89,-1.2446,-6.7282,-8.8797,0.7851,-0.5975,-0.5098,95,4.105,79,0.0402,8.1208,-16.2823,-0.7956,1.5107,0.0637,92,4047.979,78266,-2.0384,6.0193,-17.6343,0.341,0.0266,0.1119,61
4.661,90,-1.3288,-6.107,-9.1323,0.7653,-1.0662,-0.7176,95,4.157,80,-0.6038,7.8589,-15.5469,-0.8181,1.4639,0.2011,92,4048.031,78267,-2.7909,6.2047,-17.5421,0.5409,0.0745,0.1969,61
4.713,91,-0.0119,-6.1647,-9.2101,0.0632,-1.4475,-0.737,95,4.209,81,-0.8896,8.0769,-14.3807,-0.6832,1.027,0.4529,92,4048.082,78268,-2.02,4.6273,-15.3146,0.5999,0.1589,0.3125,61
4.765,92,4.8447,-9.1912,-11.5758,-0.3388,-1.7258,-0.4139,95,4.261,82,-1.3207,7.7743,-13.5457,-0.6227,0.6625,0.6739,92,4048.134,78269,-1.4616,3.4098,-13.8822,0.6386,0.2172,0.4015,61
4.817,93,6.7758,-7.4186,-14.3236,-0.2578,-1.9289,-0.1567,95,4.313,83,-2.1562,6.7098,-13.5841,-0.782,0.5719,1.0127,92,4048.186,78270,-1.0551,2.5331,-12.8235,0.6677,0.2583,0.4657,61
4.868,94,10.0016,-0.0245,-14.5289,-0.1457,-0.7455,0.219,95,4.364,84,-3.0914,4.7417,-15.0585,-0.9802,0.0078,1.4045,92,4048.238,78271,-0.7479,1.894,-12.0602,0.689,0.2871,0.5117,61
4.92,95,8.9384,-0.2075,-16.4545,0.534,-1.2134,0.6057,95,4.416,85,-0.5936,5.6246,-15.0853,-0.4935,-0.6669,1.6905,92,4048.29,78272,-0.5142,1.426,-11.514,0.7049,0.3058,0.5442,61
4.972,96,6.4888,-3.1736,-16.062,0.6136,-0.2032,0.6712,95,4.468,86,4.4857,7.9818,-17.1556,0.3115,-1.1594,1.5314,92,4048.341,78273,-0.348,1.0766,-11.115,0.7163,0.3176,0.5673,61
5.023,97,5.7609,-3.3009,-13.427,0.3719,-0.8175,0.893,95,4.52,87,6.1195,6.5351,-20.4607,-0.1804,-1.5189,1.4628,92,4048.393,78274,-0.2298,0.839,-10.8444,0.7246,0.3247,0.5833,61
5.075,98,4.3144,-4.4208,-12.4755,0.3847,-0.6012,0.866,95,4.572,88,3.8039,4.1328,-22.873,-0.4738,-0.4295,0.6155,92,4048.445,78275,-0.1219,0.646,-10.6823,0.7303,0.3265,0.5942,61
5.127,99,4.4702,-5.7439,-11.8865,0.3465,-0.5622,0.7885,95,4.624,89,6.4694,3.9774,-20.8433,-0.5487,-0.9861,0.4057,92,4048.497,78276,-0.0107,0.4991,-10.6262,0.7358,0.326,0.6019,61
5.179,100,4.3615,-7.8321,-11.2497,0.2648,-0.4214,0.999,95,4.675,90,3.3987,4.9171,-19.8607,-0.5955,-0.1849,-0.0818,92,4048.548,78277,-0.0949,0.5135,-10.3106,0.5749,0.3104,0.6438,61
5.231,101,3.5931,-9.2408,-10.8922,0.4696,-0.2015,1.3977,95,4.727,91,3.5223,5.5119,-17.5774,-0.5654,-0.2945,-0.2968,92,4048.6,78278,-0.0273,0.4083,-10.2029,0.461,0.2969,0.6719,61
5.282,102,3.3722,-9.638,-10.6555,0.6832,-0.1993,1.6968,95,4.779,92,3.165,5.9011,-17.0306,-0.5408,-0.4998,-0.3469,92,4048.652,78279,0.0171,0.3286,-10.1598,0.3781,0.2858,0.6927,61
5.334,103,3.1524,-11.2733,-10.4959,0.7031,-0.2381,1.9096,95,4.831,93,2.4246,5.9696,-16.9587,-0.514,-0.4533,-0.4346,92,4048.704,78280,0.0563,0.2566,-10.1274,0.3179,0.2767,0.7072,61
5.386,104,5.0312,-8.4949,-7.8982,1.1876,0.3898,1.636,95,4.882,94,1.9389,7.0658,-16.7174,-0.4935,-0.5184,-0.6049,92,4048.755,78281,0.0866,0.2103,-10.0958,0.2739,0.2694,0.7176,61
5.438,105,3.9067,-6.8306,-7.8516,1.5411,0.9669,0.5649,95,4.934,95,1.2999,8.652,-16.5462,-0.5873,-0.6993,-0.9321,92,4048.807,78282,4.2872,-5.1044,-14.3908,0.4552,-0.0544,0.6895,61
5.49,106,2.2767,-6.2674,-7.8505,1.2316,1.1904,-0.2628,95,4.986,96,1.8617,9.2839,-16.5637,-0.7833,-1.025,-1.2972,92,4048.859,78283,1.5196,-3.4168,-16.8299,0.7503,-0.0471,0.6271,61
5.541,107,1.2025,-7.2785,-9.7397,0.2215,0.8516,-0.3992,95,5.038,97,2.6122,9.5133,-15.4198,-1.0692,-0.8737,-1.4437,92,4048.91,78284,1.1309,-3.018,-17.6,0.9552,0.1781,0.5624,61
5.593,108,0.2663,-7.4348,-9.0217,0.8361,0.7199,-0.8601,95,5.09,98,4.1581,8.7773,-11.2812,-1.2931,-0.0085,-1.4618,92,4048.962,78285,1.5092,-3.7615,-17.2505,1.1612,0.3899,0.4688,61
5.645,109,-0.6574,-6.2257,-7.5165,1.1535,0.6619,-1.1124,95,5.142,99,4.3023,8.5049,-11.7482,-1.6238,0.6729,-1.3151,92,4049.014,78286,1.7997,-3.0988,-17.324,1.0069,0.3566,0.3869,61
5.697,110,-1.1414,-6.5137,-7.2687,0.6009,0.3151,-1.1041,95,5.193,100,3.2556,8.9886,-14.4504,-1.7802,1.1702,-1.0562,92,4049.066,78287,2.2672,-2.2401,-17.8037,0.8628,0.2354,0.3507,61
5.749,111,-1.5192,-6.8609,-7.3706,0.7939,-0.2653,-1.1013,95,5.245,101,2.2885,8.6942,-15.0341,-1.9793,1.3648,-0.5953,92,4049.117,78288,2.3781,-2.064,-18.949,0.9323,0.2911,0.2621,61
5.8,112,-1.371,-5.6749,-6.8264,1.2412,-0.6313,-0.9628,95,5.297,102,1.055,7.6174,-14.4159,-2.0517,1.5951,-0.0359,92,4049.169,78289,2.7046,-2.4858,-20.055,1.1966,0.5195,0.2028,61
5.852,113,-2.609,-4.3123,-7.4119,0.3074,-0.8558,-0.7086,95,5.349,103,0.2144,7.772,-13.9208,-1.588,1.7282,0.3686,92,4049.221,78290,2.5955,-2.4611,-20.6145,1.545,0.7661,0.2618,61
5.904,114,-1.252,-6.5295,-7.5789,-0.4531,-1.2939,-0.8958,95,5.401,104,-0.6735,8.0713,-13.3679,-1.0484,1.3869,0.6428,92,4049.273,78291,1.9815,-2.4065,-19.9973,1.763,0.8596,0.3611,61
5.956,115,1.7337,-6.3993,-9.1184,-0.7776,-1.6137,-1.3289,95,5.453,105,-0.8632,8.2386,-12.4642,-0.9029,0.8397,0.9663,92,4049.324,78292,1.4688,-1.7723,-17.2067,1.7766,0.7984,0.579,61
6.008,116,6.3217,-5.0395,-12.5191,-0.8931,-1.8471,-1.2892,95,5.504,106,-1.3361,7.4524,-11.9689,-1.1184,0.6059,1.1809,92,4049.376,78293,1.1141,-1.3484,-15.1676,1.7881,0.7476,0.737,61
6.059,117,7.1898,-8.8758,-7.6931,-1.2153,-2.0139,-0.8122,95,5.556,107,-1.8966,6.6756,-12.2528,-1.0926,0.2663,1.3923,92,4049.428,78294,0.8511,-1.052,-13.6731,1.7851,0.6964,0.8485,61
6.111,118,-0.2849,-11.6756,-10.4816,-1.5402,-1.1066,-0.6888,95,5.608,108,-0.6519,6.9844,-12.7293,-0.3245,-0.4004,1.6747,92,4049.48,78295,0.6332,-0.796,-12.6007,1.7788,0.6539,0.9296,61
6.163,119,4.8484,-12.3905,-11.4884,-1.3703,-0.6724,-0.8629,95,5.66,109,2.3768,7.157,-13.8138,0.0393,-0.9649,1.8876,92,4049.531,78296,0.4767,-0.6193,-11.8014,1.7761,0.6199,0.9895,61
6.215,120,1.3525,-14.2409,-10.2138,-0.9032,-0.3175,0.0469,95,5.712,110,4.6985,7.7687,-16.1204,-0.6514,-1.3769,2.0431,92,4049.583,78297,0.3763,-0.4909,-11.2256,1.7771,0.592,1.035,61
6.266,121,4.2662,-11.4427,-10.077,-0.1344,-0.3143,0.7109,95,5.763,111,7.4907,1.7368,-19.7052,0.1287,-1.6776,1.968,92,4049.635,78298,0.2823,-0.4164,-10.797,1.7811,0.5698,1.0687,61
6.318,122,5.0923,-11.7098,-11.0016,0.0661,0.0596,1.1955,95,5.815,112,1.2323,-3.2034,-17.5441,0.7656,-0.5453,1.3511,92,4049.687,78299,0.2125,-0.4011,-10.4646,1.7877,0.5503,1.0958,61
6.37,123,6.1317,-11.3407,-11.2249,0.2768,0.1951,1.5491,95,5.867,113,5.8183,-0.8911,-19.9307,0.5207,-0.739,1.6384,92,4049.739,78300,0.1542,-0.4164,-10.1666,1.7963,0.5352,1.1169,61
6.422,124,6.0421,-10.5971,-11.3137,0.683,0.3153,1.8073,95,5.919,114,-1.4236,4.6765,-20.0444,1.0518,0.0351,0.5094,92,4049.791,78301,-0.7203,0.4168,-15.3005,1.8523,0.4185,1.0205,61
6.474,125,4.0176,-8.9153,-10.7576,0.9622,0.6803,1.9957,95,5.971,115,3.8799,5.7181,-19.9331,0.2085,-0.6471,-0.1647,92,4049.842,78302,-0.5089,0.2962,-13.8605,1.9219,0.3525,0.95,61
6.525,126,2.4009,-8.2364,-10.2759,1.2269,0.5952,2.1135,95,6.022,116,4.8482,5.7434,-20.3474,-0.4807,-1.1449,-0.7971,92,4049.894,78303,-0.3605,0.2012,-12.6532,1.9741,0.3019,0.8997,61
6.577,127,0.9189,-7.1949,-9.5465,1.1797,0.5905,2.0399,95,6.074,117,5.3882,5.7039,-19.633,-0.6034,-0.7704,-1.2682,92,4049.946,78304,-0.2516,0.1188,-11.7752,2.0136,0.2625,0.8635,61
6.629,128,-0.0908,-7.5965,-8.8198,1.0285,0.5083,1.8333,95,6.126,118,5.4215,6.2238,-18.7914,-1.0843,-1.0967,-1.6119,92,4049.998,78305,-0.1907,0.0653,-11.1365,2.043,0.2323,0.8376,61
6.681,129,-1.2983,-8.0743,-8.2329,1.2351,0.3424,1.5015,95,6.178,119,4.1598,5.947,-18.0414,-1.4714,-1.3269,-1.8628,92,4050.049,78306,-2.0243,-5.2102,-14.4459,1.5255,-0.2002,0.2297,61
6.732,130,0.4661,-7.8322,-5.0109,1.5758,0.4887,1.0313,95,6.23,120,2.9399,5.5546,-16.8685,-1.5742,-1.3266,-2.0393,92,4050.101,78307,-2.7122,-7.68,-9.6129,0.4521,-0.1839,0.1158,61
6.784,131,0.1597,-7.3402,-3.7236,1.8244,1.0391,0.563,95,6.281,121,1.9532,5.4205,-15.8411,-1.5282,-1.2704,-2.0169,92,4050.153,78308,-1.3333,-3.6768,-4.6589,0.7922,-0.0633,0.226,61
6.836,132,-1.8046,-7.5456,-5.6222,2.0059,1.4408,0.0146,95,6.333,122,0.2893,6.1059,-14.9158,-1.2232,-1.0259,-1.8123,92,4050.204,78309,-2.7003,-5.869,-2.004,1.2521,-0.0838,0.5037,61
6.888,133,-3.8434,-7.0587,-7.3593,2.1384,1.1353,-0.1595,95,6.385,123,0.3282,7.2463,-14.2202,-1.105,-0.8887,-1.3118,92,4050.256,78310,-2.6072,-7.4567,-1.3381,1.527,0.1465,0.3886,61
6.94,134,-4.7704,-6.0198,-7.6587,1.9056,0.6256,-0.247,95,6.437,124,0.9207,10.6155,-10.183,-1.4469,0.0236,-1.4425,92,4050.308,78311,-2.4944,-7.6071,-1.4261,1.7875,0.2539,0.4229,61
6.991,135,-5.5017,-4.2897,-7.6843,1.5341,0.1804,-0.4105,95,6.489,125,2.0053,10.9544,-9.5649,-1.7361,0.6963,-1.7392,92,4050.36,78312,-2.5812,-7.2027,-0.5101,1.9784,0.1866,0.6852,61
7.043,136,-5.6078,-3.157,-7.4933,0.9126,-0.3652,-0.6545,95,6.54,126,0.3475,9.987,-12.1215,-1.9471,1.1873,-1.6292,92,4050.411,78313,-2.4819,-6.6439,-0.2028,2.1178,0.1431,0.8695,61
7.095,137,-5.5537,-2.2395,-7.5058,0.1597,-0.865,-0.9249,95,6.592,127,-1.2141,8.743,-14.4153,-2.1011,1.2437,-1.2509,92,4050.463,78314,-2.2387,-5.6885,-1.1168,2.2196,0.164,0.8638,61
7.147,138,-5.3253,-1.6328,-7.4868,-0.5608,-1.3007,-1.3263,95,6.644,128,-2.3577,7.7903,-14.1796,-2.2129,0.9489,-0.731,92,4050.515,78315,-1.9614,-4.5483,-1.7512,2.2938,0.1442,0.8101,61
7.199,139,-4.4453,-1.3975,-7.8875,-1.0685,-1.6186,-1.6431,95,6.696,129,-3.0289,7.0711,-13.0337,-2.194,0.7119,-0.2235,92,4050.567,78316,-1.7238,-3.3093,-1.857,2.1353,0.0961,0.6995,61
7.251,140,-2.2624,-4.8834,-9.2072,-1.4572,-1.8507,-1.8743,95,6.748,130,-3.5334,6.5016,-11.8478,-1.7974,0.601,0.2544,92,4050.618,78317,-1.7435,-2.6985,-2.2264,1.7099,-0.009,0.4745,61
7.302,141,1.9416,-3.9866,-11.435,-1.7396,-2.02,-2.0431,95,6.8,131,-3.94,5.9495,-10.9711,-1.0614,0.4548,0.7414,92,4050.67,78318,-1.2516,-1.9427,-4.2728,1.1704,-0.0938,0.1487,61
7.354,142,6.4734,-8.0714,-16.3423,-1.2138,-2.1163,-1.731,95,6.851,132,-4.278,5.2605,-10.3754,-0.975,0.2121,1.2065,92,4050.722,78319,-0.9165,-1.4548,-5.6698,0.7571,-0.1508,-0.0871,61
7.406,143,2.9893,-2.0215,-13.4808,-1.2902,-0.8622,-1.1098,95,6.903,133,-4.1705,4.0946,-10.9541,-1.3916,-0.3561,1.5459,92,4050.774,78320,-0.689,-1.0273,-6.682,0.397,-0.1835,-0.2714,61
7.458,144,5.939,0.3346,-11.4761,-1.4576,0.05,-0.7274,95,6.955,134,-2.2876,4.3665,-12.2177,-0.3959,-0.9326,1.7937,92,4050.826,78321,-0.504,-0.7159,-7.4642,0.111,-0.2043,-0.4125,61
7.509,145,3.6735,-0.0854,-12.3901,-0.6689,-0.2544,-0.4348,95,7.007,135,3.2018,7.5625,-15.303,0.3828,-1.3533,1.9745,92,4050.877,78322,-0.3634,-0.5014,-8.0405,-0.0977,-0.2199,-0.516,61
7.561,146,1.9256,-3.2102,-11.6351,-0.4316,0.2527,0.1039,95,7.059,136,6.9674,7.3898,-19.1086,-0.1281,-1.6604,2.1064,92,4050.929,78323,-0.2584,-0.3545,-8.4355,-0.2511,-0.2311,-0.5915,61
7.613,147,1.8618,-4.6572,-11.1101,-0.0265,-0.26,0.5539,95,7.111,137,10.0041,5.2975,-21.8862,0.3353,-1.8845,1.3414,92,4050.981,78324,-0.1871,-0.2402,-8.7274,-0.3641,-0.2386,-0.6473,61
7.665,148,2.6765,-5.2148,-10.5247,0.0927,-0.1565,0.9245,95,7.163,138,1.6314,9.1932,-19.6396,0.7383,-1.6131,1.2413,92,4051.033,78325,-0.1573,-0.1214,-8.9113,-0.4479,-0.2439,-0.6893,61
7.717,149,3.1641,-7.3425,-10.4755,0.1816,-0.0689,1.3507,95,7.214,139,2.8517,7.8889,-18.5582,0.6453,-0.5568,0.7959,92,4051.084,78326,-0.3729,3.6285,-3.9404,-0.291,-0.1994,-0.5289,61
7.768,150,3.1457,-8.2776,-9.8868,0.4293,0.0262,1.6625,95,7.266,140,1.6025,7.463,-16.6504,0.519,-1.06,0.3743,92,4051.136,78327,-0.2233,2.6391,-5.6471,-0.3463,0.1742,-0.3903,61
7.82,151,2.0913,-8.3345,-9.3159,0.6161,0.1323,1.89,95,7.318,141,0.884,8.1393,-16.4261,0.4404,-0.6091,-0.0464,92,4051.188,78328,-0.1249,1.9246,-6.7144,-0.4765,0.4439,-0.2611,61
7.872,152,1.3226,-8.2596,-9.2958,0.7603,0.0711,2.056,95,7.37,142,1.8822,8.3053,-16.557,0.0414,-0.5384,-0.4815,92,4051.239,78329,-0.0627,1.414,-7.4631,-0.572,0.6408,-0.1312,61
7.924,153,0.5744,-8.3013,-9.8095,1.2292,-0.225,1.867,95,7.422,143,2.2005,8.2699,-16.5476,-0.3071,-0.7601,-0.7807,92,4051.292,78330,-0.0252,1.0371,-8.0127,-0.642,0.7846,-0.0385,61
7.975,154,1.7225,-8.158,-6.8995,1.5715,-0.3263,1.2509,95,7.473,144,2.0775,8.8182,-17.0861,-0.7163,-0.9178,-1.1744,92,4051.343,78331,-0.3383,0.597,-8.7436,-0.7003,1.2613,-0.0925,61
8.027,155,2.4142,-4.5189,-3.7347,1.7501,0.4443,0.476,95,7.525,145,1.7601,8.8583,-17.1659,-1.1032,-1.0953,-1.4926,92,4051.395,78332,-3.9702,-3.017,-3.8181,-0.074,0.9347,-0.0499,61
8.079,156,1.0941,-5.6427,-5.2683,1.4942,1.0067,-0.0292,95,7.577,146,1.5844,8.2323,-16.3734,-1.3918,-1.1498,-1.6654,92,4051.447,78333,-4.9854,0.2577,-2.9631,0.027,0.8596,-0.0702,61
8.131,157,-1.0329,-6.0481,-7.0044,1.7649,0.9812,-0.454,95,7.629,147,1.4399,7.8132,-14.421,-1.6443,-1.1131,-1.6283,92,4051.498,78334,-4.6476,2.6388,-3.904,0.0281,0.5943,0.0707,61
8.183,158,-2.4087,-5.6084,-7.5207,1.8803,0.3587,-0.7314,95,7.681,148,2.0792,8.3312,-12.636,-1.8801,-0.5961,-1.5083,92,4051.55,78335,-5.4075,3.3954,-3.8517,0.3236,0.3553,0.669,61
8.234,159,-3.2567,-4.5321,-6.8866,1.4479,-0.3768,-0.973,95,7.732,149,3.101,8.6682,-11.7253,-2.0522,0.244,-1.5074,92,4051.602,78336,-6.1125,3.3276,-3.2818,0.6008,0.3486,0.7821,61
8.286,160,-3.3361,-4.1599,-5.5631,0.8194,-0.8579,-1.2432,95,7.784,150,1.9368,8.1302,-12.1783,-2.1778,0.8572,-0.9702,92,4051.654,78337,-6.407,3.7697,-2.5691,0.8811,0.3735,0.8357,61
8.338,161,-3.7198,-3.7409,-5.0515,0.0425,-1.025,-1.4338,95,7.836,151,0.3001,7.5981,-12.7352,-1.9266,1.1517,-0.3459,92,4051.705,78338,-7.0845,4.4359,-1.5284,1.3169,0.3108,1.1438,61
8.39,162,-3.5849,-3.9949,-5.1388,-0.3417,-1.4174,-1.6263,95,7.888,152,-0.4573,7.968,-13.1303,-1.7467,1.2933,0.3129,92,4051.757,78339,-7.1184,4.4104,-1.175,1.635,0.3345,1.3936,61
8.442,163,-3.6548,-4.0788,-6.156,-0.8799,-1.6511,-1.5435,95,7.94,153,-1.0231,7.6864,-13.201,-1.4879,1.3599,0.8316,92,4051.809,78340,-6.7967,4.0256,-1.7754,1.8445,0.4189,1.4992,61
8.493,164,-3.0601,-4.3359,-7.0385,-0.5346,-1.8744,-1.6267,95,7.991,154,-1.2648,7.7947,-12.5691,-0.8467,1.2743,1.1828,92,4051.861,78341,-6.1043,3.3859,-2.9237,1.9242,0.4566,1.5422,61
8.545,165,-1.9623,-4.696,-8.651,-1.0676,-2.0374,-1.5571,95,8.043,155,-1.7274,8.0377,-11.7775,-0.5317,1.1607,1.5282,92,4051.912,78342,-4.7202,2.6011,-5.0055,1.8568,0.3899,1.4582,61
8.597,166,3.4261,-8.6251,-9.7173,-1.4565,-2.1563,-1.0697,95,8.095,156,-2.0394,8.3194,-11.1057,-0.3109,0.8794,1.7583,92,4051.964,78343,-3.481,1.9741,-6.2242,1.7871,0.3418,1.3942,61
8.649,167,4.8701,-11.2258,-12.2876,-1.3733,-2.2242,-0.3817,95,8.147,157,-2.6398,7.7754,-10.3514,-0.6862,0.5896,1.9418,92,4052.016,78344,-2.5722,1.5073,-7.1275,1.7355,0.3042,1.3466,61
8.701,168,8.6107,-13.3908,-16.9645,-0.7945,-2.2926,0.3981,95,8.199,158,-2.3567,6.5082,-10.8719,-0.7136,0.2497,2.0826,92,4052.068,78345,-1.8908,1.1702,-7.7895,1.6971,0.2736,1.3104,61
8.753,169,6.0711,-14.9709,-19.5022,-0.3121,-0.9908,0.9672,95,8.25,159,-1.9139,6.757,-11.5991,0.1362,0.2615,2.1771,92,4052.119,78346,-1.3992,0.9352,-8.2808,1.668,0.2492,1.2829,61
8.804,170,4.3107,-14.333,-16.7063,-0.2119,-1.3925,0.9063,95,8.302,160,1.3607,8.0549,-13.7337,0.7711,-0.4603,1.9436,92,4052.171,78347,-1.0324,0.7607,-8.6356,1.646,0.2285,1.2607,61
8.856,171,0.4881,-11.7045,-16.8603,0.2,-0.5479,0.8543,95,8.354,161,3.1976,11.2057,-15.9986,1.106,-0.7125,1.3324,92,4052.223,78348,-0.7573,0.6421,-8.9127,1.6286,0.2117,1.2431,61
8.908,172,0.907,-9.7538,-15.7701,-0.4937,-0.9162,0.957,95,8.406,162,7.2527,7.9541,-19.6163,0.6749,-1.1927,1.1001,92,4052.275,78349,-0.549,0.5836,-9.144,1.6154,0.1967,1.2283,61
8.96,173,1.9785,-10.4054,-14.1151,-0.6465,-0.7301,1.0208,95,8.458,163,-0.3767,11.1321,-15.8487,0.7626,-0.1914,0.1165,92,4052.326,78350,-0.3815,0.5684,-9.3293,1.6051,0.1829,1.2154,61
9.012,174,0.8047,-9.642,-14.127,-0.4277,-0.3097,0.8148,95,8.51,164,4.644,13.4516,-14.4088,1.1344,-0.8124,-0.5311,92,4052.378,78351,0.2436,0.2637,-9.2362,0.7447,0.1025,0.7184,61
9.063,175,0.3631,-8.6376,-13.932,-0.4238,-0.1681,0.5286,95,8.561,165,-0.1702,9.6196,-16.7758,0.4665,-0.9699,-0.838,92,4052.43,78352,0.1811,0.2646,-9.2833,0.1091,0.0474,0.3537,61
9.115,176,-0.0672,-8.1201,-13.5756,-0.3831,-0.1326,0.258,95,8.613,166,0.2874,7.4947,-17.3521,0.1518,-0.9057,-0.8425,92,4052.482,78353,0.1492,0.2773,-9.3699,-0.3543,0.0049,0.0867,61
9.167,177,-0.1818,-8.4679,-13.2202,-0.3717,0.0239,0.0903,95,8.665,167,0.8493,6.7434,-16.8309,-0.1912,-0.9192,-0.6326,92,4052.533,78354,0.1235,0.2671,-9.439,-0.693,-0.0267,-0.1086,61
9.219,178,-0.5058,-9.3776,-13.2317,-0.2156,0.0779,0.0394,95,8.717,168,0.5708,5.541,-16.6302,-0.313,-0.8306,-0.3716,92,4052.585,78355,0.1021,0.2601,-9.485,-0.9409,-0.0518,-0.2524,61
9.271,179,-0.1286,-11.6254,-12.4737,0.3142,-0.0047,0.1518,95,8.768,169,-0.177,4.8764,-16.3532,-0.2559,-0.5707,-0.139,92,4052.637,78356,0.0746,0.2701,-9.5145,-1.1228,-0.072,-0.3588,61
9.322,180,1.7734,-11.5605,-12.1729,0.9037,-0.08,0.0652,95,8.82,170,-0.831,4.8933,-15.9873,-0.1552,-0.3812,0.0451,92,4052.689,78357,5.4128,5.5282,-4.3807,-1.208,-0.2968,0.0394,61
9.374,181,3.42,-7.4561,-10.336,1.3339,0.6241,-0.2478,95,8.872,171,-1.4407,4.9155,-16.5021,0.0656,-0.1898,0.1703,92,4052.741,78358,2.6244,9.1541,-4.7182,-1.0088,-0.3438,0.102,61
9.426,182,3.4537,-7.3883,-10.5186,1.2131,1.1379,-0.5704,95,8.924,172,-2.1928,6.228,-17.3182,0.1622,-0.152,0.2434,92,4052.792,78359,1.7671,10.026,-5.8937,-0.085,-0.3709,-0.0038,61
9.478,183,2.898,-8.7818,-11.7816,1.5597,1.5129,-1.0914,95,8.976,173,-2.2482,8.7548,-17.7175,-0.125,-0.4397,0.0423,92,4052.844,78360,1.8778,9.2185,-5.6298,0.6118,0.0466,-0.0236,61
9.529,184,1.4128,-9.2217,-12.4996,1.1468,1.7811,-1.1947,95,9.028,174,-1.1406,10.5456,-17.3187,-0.7713,-0.6636,-0.3039,92,4052.896,78361,1.3817,7.9475,-6.1231,0.9071,0.1249,-0.1011,61
9.581,185,-0.4189,-9.401,-11.9452,0.8597,1.4021,-1.228,95,9.079,175,0.979,7.543,-15.0551,-1.2429,-0.1379,-0.5877,92,4052.948,78362,0.621,7.0787,-6.9931,0.902,0.1056,-0.2057,61
9.633,186,-0.791,-8.8181,-10.914,1.1873,0.9593,-1.3063,95,9.131,176,1.3471,7.8095,-13.8364,-1.0282,0.5784,-0.9685,92,4052.999,78363,0.2787,6.6101,-7.8396,0.6966,0.1307,-0.2389,61
9.685,187,-1.3635,-7.9873,-10.2881,0.748,0.4269,-1.2659,95,9.183,177,0.7952,7.5079,-15.5858,-1.4305,1.1013,-0.7046,92,4053.051,78364,0.1624,6.6453,-8.5813,0.3891,0.1458,-0.2457,61
9.737,188,-0.6454,-8.8256,-8.8104,0.4773,-0.2647,-1.1666,95,9.235,178,-0.6252,7.1676,-16.7655,-1.6456,1.4061,-0.4136,92,4053.103,78365,0.0444,7.18,-8.9679,0.1637,0.0974,-0.2365,61
9.788,189,0.3364,-8.875,-6.765,1.0227,-0.6834,-1.136,95,9.287,179,-1.5382,7.1013,-16.5006,-1.4409,1.3776,-0.1266,92,4053.155,78366,-0.2959,9.2371,-9.282,0.1357,0.0122,-0.1991,61
9.84,190,0.5758,-6.3595,-5.666,1.0635,-0.5748,-0.8573,95,9.338,180,-2.02,6.9687,-15.754,-1.2483,1.1581,0.0982,92,4053.206,78367,-1.023,11.3074,-9.3772,0.2289,-0.0813,-0.1245,61
9.892,191,0.1678,-6.1368,-5.8928,0.1879,-0.4382,-0.5629,95,9.39,181,-2.5016,6.6447,-14.9658,-1.1684,0.874,0.4338,92,4053.258,78368,-0.9635,10.3531,-9.4399,0.3937,-0.2745,0.0268,61
9.944,192,0.4849,-6.8798,-7.0125,-0.5146,-0.4329,-0.329,95,9.442,182,-2.4662,6.85,-14.5545,-1.0729,0.417,0.9074,92,4053.31,78369,-0.6826,7.6414,-9.505,0.5224,-0.4875,0.2001,61
9.996,193,4.7523,-9.4117,-11.3685,-1.0105,-0.9853,0.0506,95,9.494,183,-1.4795,8.175,-13.961,-0.3919,0.1113,1.2214,92,4053.362,78370,-0.4786,5.668,-9.5517,0.6143,-0.6438,0.3261,61
10.047,194,5.6092,-8.6631,-16.2396,-0.8494,-1.3884,0.5053,95,9.546,184,-1.5468,8.6867,-12.9958,-0.2984,0.0022,1.0594,92,4053.413,78371,-0.3239,4.2268,-9.5884,0.6791,-0.7593,0.4167,61
10.099,195,7.3663,-9.4388,-9.2613,-0.7765,-0.4885,0.1118,95,9.597,185,-1.6161,8.1101,-12.4441,-0.5568,-0.1645,0.9266,92,4053.465,78372,-0.2021,3.172,-9.6252,0.724,-0.844,0.4818,61
10.151,196,5.4269,-10.502,-9.6137,-0.4697,-1.0161,0.3662,95,9.649,186,-1.6721,6.9031,-13.6294,-0.9154,-0.5056,1.0188,92,4053.517,78373,-0.1057,2.4108,-9.6622,0.7548,-0.9069,0.5282,61
10.203,197,4.2853,-8.7945,-10.094,-0.0123,-0.2416,0.5211,95,9.701,187,2.7056,7.9113,-17.4232,0.0036,-1.0416,1.4089,92,4053.568,78374,-0.0424,1.8645,-9.6852,0.7751,-0.9533,0.5616,61
10.255,198,3.9036,-7.9903,-10.0295,-0.3632,-0.4731,0.7482,95,9.753,188,4.0727,7.3837,-20.6561,-0.3332,-1.4329,1.6937,92,4053.62,78375,-0.0047,1.4811,-9.7078,0.7877,-0.9885,0.5839,61
10.306,199,3.0149,-8.1814,-9.9644,-0.4023,-0.2433,0.8274,95,9.805,189,5.0062,4.3138,-23.0155,0.4286,-1.7185,1.8982,92,4053.672,78376,0.0194,1.2034,-9.8643,0.7781,-1.018,0.5877,61
10.358,200,2.9275,-8.5661,-10.0106,-0.427,-0.3629,0.7858,95,9.857,190,8.5726,8.4753,-22.4534,0.9197,-1.9269,1.3867,92,4053.724,78377,0.0614,1.4227,-10.136,0.7681,-1.0424,0.5884,61
10.41,201,2.5244,-8.9019,-9.8099,-0.3757,-0.2885,0.7348,95,9.909,191,0.7358,11.5125,-20.807,0.7219,-1.7252,0.7847,92,4053.776,78378,0.11,1.0606,-10.4449,0.8865,-0.7476,-0.0659,61
10.462,202,2.3869,-9.3847,-9.5523,-0.1571,-0.2555,0.6981,95,9.96,192,1.2729,10.3003,-19.2941,-0.0209,-0.8573,0.1032,92,4053.827,78379,0.1741,0.8444,-10.2581,0.9726,-0.528,-0.5436,61
10.514,203,2.3695,-10.4555,-9.5725,0.3913,-0.1851,0.5489,95,10.012,193,2.7709,9.0948,-18.582,-0.6787,-1.1018,-0.2414,92,4053.879,78380,0.2056,0.6738,-10.1201,1.0341,-0.3648,-0.8931,61
10.565,204,3.0334,-9.3424,-8.1503,0.9571,0.3168,0.2889,95,10.064,194,2.7312,7.7779,-17.9661,-0.8655,-0.8673,-0.3091,92,4053.931,78381,0.2342,0.545,-10.0391,1.0787,-0.2436,-1.1487,61
10.617,205,3.4382,-8.5172,-7.4258,0.8426,0.9136,0.2913,95,10.116,195,2.437,7.0161,-17.3448,-0.8512,-0.6212,-0.3676,92,4053.983,78382,0.2464,0.4494,-9.9771,1.1106,-0.1523,-1.3359,61
10.669,206,2.8887,-7.9177,-7.9094,0.7261,1.3134,0.2316,95,10.168,196,2.2563,7.1423,-16.3109,-0.6884,-0.4487,-0.4102,92,4054.034,78383,-5.0517,-4.9299,-8.5064,1.1661,-0.1214,-1.3774,61
10.721,207,1.9876,-8.1722,-8.6046,0.8465,1.2904,-0.147,95,10.219,197,2.1732,8.6459,-15.3552,-0.6736,-0.3062,-0.3647,92,4054.086,78384,-2.545,-3.8261,-6.8304,0.4966,0.2527,-0.9386,61
10.772,208,1.5121,-7.6672,-8.4466,1.1225,1.1847,-0.6395,95,10.271,198,2.7615,9.1309,-13.5817,-1.1716,0.1833,-0.5027,92,4054.138,78385,-2.3661,-0.323,-11.2752,0.1182,0.2879,-0.6437,61
10.824,209,1.3881,-7.5446,-7.8877,1.0823,1.0893,-0.9987,95,10.323,199,2.9124,8.475,-12.027,-1.5351,0.8128,-0.6869,92,4054.19,78386,-2.2639,1.6911,-13.1345,0.7597,0.2401,-0.345,61
10.876,210,1.2851,-7.6359,-7.2437,0.8029,0.989,-1.2177,95,10.375,200,2.8062,7.624,-11.9143,-1.6618,1.2658,-0.6333,92,4054.241,78387,-2.123,2.0863,-13.6178,1.2283,0.1155,-0.0807,61
10.928,211,1.1861,-7.6722,-6.6509,0.6024,0.9234,-1.3158,95,10.427,201,2.222,7.4387,-12.3916,-1.0867,1.0855,-0.2543,92,4054.293,78388,-2.4736,2.4483,-14.1118,1.3217,-0.134,0.0179,61
10.979,212,1.3415,-6.9713,-6.1879,0.428,0.7328,-1.3249,95,10.478,202,2.0206,7.1922,-12.2363,-1.1057,1.1962,0.2703,92,4054.345,78389,-2.9464,2.9367,-14.8935,1.1795,-0.1952,0.0139,61
11.031,213,1.0675,-6.6613,-6.1596,0.3841,0.4841,-1.3978,95,10.53,203,1.915,7.5156,-11.8822,-0.609,1.2355,0.5191,92,4054.397,78390,-3.1976,3.0738,-15.673,1.0024,-0.0718,-0.0631,61
11.083,214,-0.6457,-6.8295,-7.8033,0.015,0.4236,-1.3805,95,10.582,204,1.5646,8.1163,-11.6477,-0.2697,1.2634,0.7461,92,4054.448,78391,-2.5095,3.1126,-15.9749,0.7705,0.0017,-0.1373,61
11.135,215,-0.6933,-8.195,-9.8659,-0.6664,-0.2594,-0.8205,95,10.634,205,1.5904,8.7165,-11.1564,-0.1203,1.1592,0.9117,92,4054.5,78392,-1.7989,2.2872,-14.3567,0.6423,-0.0491,-0.2394,61
11.187,216,0.1064,-10.3617,-13.0902,-0.9748,-0.8586,-0.2761,95,10.686,206,1.7068,8.8637,-10.6963,-0.2296,1.1167,1.0456,92,4054.552,78393,-1.2938,1.6934,-13.1952,0.5487,-0.0874,-0.3144,61
11.238,217,1.8297,-10.6764,-17.5493,-1.116,-1.296,-0.0891,95,10.737,207,1.3298,8.4709,-10.7309,0.0304,1.1608,1.0366,92,4054.603,78394,-0.9237,1.2684,-12.3379,0.4806,-0.117,-0.3698,61
11.29,218,5.3182,-12.9898,-15.2335,-0.2811,-1.6152,-0.7107,95,10.789,208,-1.1455,7.6224,-11.3062,0.2077,1.2795,0.9471,92,4054.655,78395,-0.6544,0.9563,-11.725,0.4309,-0.1396,-0.4109,61
11.342,219,2.4065,-14.6782,-12.0812,-0.8587,-1.6984,-0.1644,95,10.841,209,-1.3918,7.6323,-13.8422,0.8189,0.7684,0.9513,92,4054.707,78396,-0.4675,0.7199,-11.2781,0.3946,-0.157,-0.4415,61
11.394,220,2.3135,-12.1982,-15.2864,-0.5542,-0.5572,-0.2563,95,10.893,210,-0.0337,8.1218,-18.0425,1.126,-0.1119,1.1494,92,4054.759,78397,-0.3319,0.5375,-10.962,0.3687,-0.1723,-0.4638,61
11.446,221,2.5465,-8.0727,-13.0337,-0.0424,-1.076,-0.6167,95,10.945,211,1.9846,7.4074,-21.108,0.4078,-0.7543,1.5043,92,4054.811,78398,-0.2243,0.4087,-10.759,0.3513,-0.1857,-0.4805,61
11.497,222,3.775,-9.6479,-12.3502,0.2032,-0.1061,-0.5609,95,10.996,212,6.3673,10.7331,-12.7578,-0.3824,-1.2232,1.7633,92,4054.862,78399,-5.3952,3.0412,-15.8779,0.1381,-0.3388,-0.4429,61
11.549,223,5.4086,-9.6965,-11.9761,0.0867,-0.6472,-0.0633,95,11.049,213,9.5661,12.6435,-10.0859,-0.3035,-1.5654,1.9323,92,4054.914,78400,-4.09,2.1701,-12.3443,-0.0569,-0.6457,-0.5247,61
11.601,224,5.3125,-9.5058,-11.1143,0.1886,-0.3564,0.2063,95,11.1,214,7.6449,10.0811,-15.1242,0.2638,-0.9761,1.09,92,4054.966,78401,-2.985,1.5816,-11.6288,-0.1981,-0.87,-0.5849,61
11.653,225,5.7038,-9.9388,-11.21,0.1571,-0.2319,0.5431,95,11.152,215,7.2244,10.3916,-13.689,0.8642,-0.7388,0.6286,92,4055.018,78402,-2.1821,1.1455,-11.1165,-0.2992,-1.0353,-0.6292,61
11.705,226,5.5526,-9.7855,-10.4617,0.2323,-0.222,0.8724,95,11.204,216,7.2584,8.5242,-13.5022,0.9667,-0.2716,0.2381,92,4055.069,78403,-1.5945,0.8341,-10.7553,-0.3714,-1.1575,-0.6625,61
11.756,227,4.9353,-9.9935,-10.2807,0.5197,0.0629,1.2318,95,11.256,217,6.983,9.3465,-14.3219,0.8162,-0.1229,-0.1539,92,4055.121,78404,-1.1768,0.5999,-10.4867,-0.4222,-1.2485,-0.6876,61
11.808,228,5.8554,-9.6923,-8.864,0.2396,0.1421,1.5757,95,11.308,218,6.4931,9.846,-14.6075,0.5417,-0.1808,-0.5649,92,4055.173,78405,-0.8708,0.4308,-10.2858,-0.4571,-1.3162,-0.7067,61
11.86,229,7.3194,-6.1185,-4.4724,-0.4926,0.7861,1.8225,95,11.359,219,5.9343,9.8124,-14.4687,0.0631,-0.2165,-0.8601,92,4055.225,78406,3.5163,5.6455,-8.4892,-0.3633,-1.3887,-0.6682,61
11.912,230,5.6965,-6.5704,-2.8232,-1.0369,1.2562,1.5216,95,11.411,220,6.0817,9.4658,-14.1463,-0.3385,-0.3303,-1.0237,92,4055.276,78407,-2.6652,3.129,-8.8167,-0.5001,-1.2043,0.0443,61
11.964,231,4.7139,-0.3609,-6.8675,-0.5781,1.5992,0.4354,95,11.463,221,5.3206,9.6681,-14.7678,-0.4191,-0.3022,-1.2015,92,4055.328,78408,-4.4081,4.048,-10.2013,-1.0428,-0.8985,0.4843,61
12.015,232,3.6896,-5.4611,-13.0087,-1.095,0.9081,-0.3068,95,11.515,222,4.9397,9.7005,-14.1909,-0.3843,-0.3692,-1.4017,92,4055.38,78409,-3.7341,3.6524,-9.9018,-1.0809,-0.5224,0.1485,61
12.067,233,3.5829,-6.9111,-14.9933,-0.1248,0.007,0.0392,95,11.567,223,4.7851,10.7837,-11.0032,-0.0809,-0.2781,-1.697,92,4055.432,78410,-6.4043,3.3259,-11.4995,-0.9584,-0.7412,0.1206,61
12.119,234,1.3921,-3.7475,-17.9554,-0.0391,-0.6642,0.3198,95,11.618,224,4.7664,10.2613,-14.0649,0.3059,-0.0647,-1.9249,92,4055.483,78411,-9.8231,3.5072,-13.2707,-0.7932,-0.4794,-0.0345,61
12.171,235,6.0723,-3.4588,-21.1012,-0.3613,-0.1403,0.6407,95,11.67,225,2.5346,2.2284,-13.4865,-0.4568,0.6318,-0.8539,92,4055.535,78412,-10.0815,4.3538,-14.2255,-0.3896,0.1099,-0.3264,61
12.223,236,3.9896,-3.1216,-21.5437,-0.1478,-0.7574,0.5338,95,11.722,226,4.0702,6.0396,-17.7829,0.3383,1.1402,-0.3694,92,4055.587,78413,-10.6634,3.9064,-14.5394,0.1329,0.3207,-0.4215,61
12.274,237,1.5013,-5.0861,-19.4546,-0.2458,0.1236,0.2887,95,11.774,227,1.5744,3.5796,-20.9186,-0.4042,0.1595,0.3097,92,4055.639,78414,-11.4508,2.8867,-14.8494,0.5613,0.636,-0.4131,61
12.326,238,1.503,-6.5553,-16.9383,-0.2606,-0.2554,0.2625,95,11.826,228,-0.8992,4.3855,-23.2071,-0.5103,-0.5562,0.8909,92,4055.691,78415,-11.4475,2.2256,-15.3011,0.6745,1.097,-0.4619,61
12.378,239,1.3866,-7.2662,-15.3008,-0.1226,-0.3264,0.0589,95,11.878,229,4.2627,-2.0601,-24.8267,-0.5953,-1.0786,1.2491,92,4055.742,78416,-11.4375,2.3536,-16.0416,0.614,1.4233,-0.4453,61
12.43,240,1.3191,-6.994,-14.2259,0.171,-0.3628,-0.2334,95,11.929,230,6.0757,-2.9185,-24.6465,-0.9825,-1.4599,0.8748,92,4055.794,78417,-10.8798,2.7927,-16.8176,0.745,1.5609,-0.4555,61
12.481,241,1.527,-7.2685,-13.3981,0.1765,-0.4258,-0.4951,95,11.981,231,2.3547,0.7153,-21.8449,-0.7582,-0.3864,0.39,92,4055.846,78418,-8.2299,3.8587,-16.1469,0.971,1.3195,-0.8445,61
12.533,242,1.2099,-9.3065,-12.8674,0.114,-0.5185,-0.4262,95,12.033,232,2.4578,2.4255,-19.6804,-0.4893,-0.5648,0.349,92,4055.897,78419,-5.8755,2.8638,-14.4058,1.1479,1.0721,-1.2924,61
12.585,243,1.1509,-11.981,-11.969,0.3425,-0.5739,0.1963,95,12.085,233,1.4844,3.2122,-18.8123,-0.413,-0.3632,0.3612,92,4055.949,78420,-4.1524,2.1374,-13.1254,1.2765,0.8975,-1.6193,61
12.637,244,1.3379,-12.9932,-11.7772,0.8219,-0.5907,0.8199,95,12.137,234,1.8444,3.9969,-18.1649,-0.1664,0.0042,0.4986,92,4056.001,78421,-2.8899,1.5971,-12.202,1.3691,0.7745,-1.8579,61
12.689,245,1.9326,-12.3779,-11.9442,1.223,-0.6781,1.275,95,12.188,235,1.5037,4.0042,-17.4511,-0.0064,0.307,0.5688,92,4056.053,78422,-1.969,1.1866,-11.5172,1.4368,0.6899,-2.032,61
12.74,246,3.8222,-10.3726,-10.3598,1.567,-0.7065,1.065,95,12.24,236,-0.4457,6.8536,-17.4186,0.2412,0.492,0.4693,92,4056.105,78423,-6.5797,-4.3918,-5.8844,0.968,0.3745,-2.1591,61
12.792,247,4.9708,-5.727,-7.8909,1.818,0.1668,0.5468,95,12.292,237,-1.5962,9.1077,-18.0296,-0.126,0.0095,-0.0358,92,4056.156,78424,-6.17,-5.7469,-8.8445,0.9316,0.0716,-1.4356,61
12.844,248,4.9089,-8.0387,-8.3681,1.9901,0.8041,-0.0917,95,12.344,238,-1.6302,10.101,-18.8511,-0.5179,-0.6622,-0.7125,92,4056.208,78425,-5.1754,-6.6892,-9.8287,0.8414,0.1753,-1.0094,61
12.896,249,2.4277,-9.0816,-9.1981,2.1269,1.2693,-0.7384,95,12.395,239,-0.5028,10.69,-19.0056,-1.03,-1.156,-1.2064,92,4056.26,78426,-2.7892,-6.8428,-11.5874,0.7084,0.1078,-0.628,61
12.948,250,-0.2614,-8.9955,-8.5109,1.9912,1.2673,-0.8736,95,12.447,240,2.5375,10.6547,-15.664,-1.4318,-1.2462,-1.3121,92,4056.312,78427,-2.0596,-6.7504,-12.6084,0.5633,-0.102,-0.2855,61
12.999,251,-1.9704,-7.6593,-8.0962,2.0573,1.2537,-0.9446,95,12.499,241,3.5276,5.1334,-11.7519,-1.725,-0.2304,-0.8105,92,4056.363,78428,-2.0736,-6.1083,-12.8824,0.5022,-0.4363,0.0051,61
13.051,252,-3.0848,-6.4656,-7.6598,1.9231,1.1172,-0.9854,95,12.551,242,4.6889,7.7897,-11.8567,-0.6435,0.5109,-0.3009,92,4056.415,78429,-1.9085,-5.7561,-12.9076,0.4726,-0.8604,0.2779,61
13.103,253,-3.514,-5.9011,-6.8516,1.18,0.7471,-0.956,95,12.603,243,2.8663,10.8997,-13.093,-1.1497,1.052,-0.2033,92,4056.467,78430,-2.9603,-7.4259,-14.5452,0.471,-1.1275,0.5532,61
13.155,254,-3.5261,-6.1067,-6.1588,0.3242,0.2109,-0.8154,95,12.655,244,0.8326,10.8495,-14.0626,-1.5191,1.4394,0.093,92,4056.519,78431,-5.04,-10.2037,-17.0097,0.218,-0.7487,0.3093,61
13.207,255,-3.4484,-5.9729,-5.4099,0.2221,-0.2783,-0.7406,95,12.706,245,-1.2676,9.1083,-14.6786,-1.1255,1.4832,0.4116,92,4056.57,78432,-5.8473,-11.3392,-17.9124,-0.4018,0.1421,-0.4477,61
13.258,256,-3.4473,-5.2351,-5.3269,0.202,-0.6902,-0.7052,95,12.758,246,-3.0484,8.927,-14.0135,-0.5456,1.2722,0.6095,92,4056.622,78433,-5.5204,-10.0262,-17.5533,-0.9328,0.7924,-1.0028,61
13.31,257,-3.2438,-5.009,-5.7174,-0.1868,-1.1731,-0.7527,95,12.81,247,-3.626,9.2065,-12.613,-0.6112,0.661,0.7177,92,4056.674,78434,-3.8329,-7.4015,-15.4748,-0.9545,1.267,-1.4079,61
13.362,258,-2.9424,-4.9387,-6.3424,-0.8137,-1.5255,-0.8614,95,12.862,248,-3.8461,9.2515,-10.8351,-0.4563,0.2775,0.6849,92,4056.726,78435,-2.7858,-5.1921,-13.7596,-0.9862,1.5994,-1.7036,61
13.414,259,-1.1382,-8.8022,-8.1814,-0.9564,-1.7827,-1.2813,95,12.914,249,-3.804,9.0852,-9.4885,-0.0735,-0.0116,0.5902,92,4056.777,78436,-2.016,-3.581,-12.4845,-1.0188,1.8413,-1.9194,61
13.466,260,3.7101,-7.4809,-11.281,-1.2886,-1.9704,-0.717,95,12.965,250,-3.6661,8.4368,-9.3762,0.2122,-0.2408,0.5567,92,4056.829,78437,-1.4577,-2.3964,-11.5647,-1.0535,2.0178,-2.077,61
13.517,261,4.7486,-4.9643,-14.0519,-1.479,-2.1074,-0.633,95,13.017,251,-3.5298,7.6396,-9.6886,0.4367,-0.5879,0.7673,92,4056.881,78438,-1.0404,-1.5259,-10.8888,-1.0887,2.1474,-2.1919,61
13.569,262,8.0878,1.6871,-7.6646,-0.5876,-0.8603,-0.5444,95,13.069,252,-3.3375,6.4822,-10.7332,0.4018,-1.0327,1.2254,92,4056.933,78439,-0.7221,-0.8762,-10.3864,-1.1257,2.2398,-2.2758,61
13.621,263,6.5935,-3.9664,-7.5122,-1.052,-1.1178,-0.4563,95,13.121,253,-1.9628,7.3385,-12.616,0.965,-1.4263,1.5597,92,4056.984,78440,-0.4845,-0.3947,-10.0096,-1.1622,2.3059,-2.337,61
13.673,264,5.2502,-7.2643,-9.3842,-0.9308,-0.227,0.0527,95,13.173,254,2.2856,7.5591,-16.0603,0.9347,-1.7137,1.8037,92,4057.036,78441,-0.2997,-0.0252,-9.724,-1.2014,2.355,-2.3817,61
13.725,265,4.2757,-7.9863,-8.8505,-0.5473,-0.4689,0.7125,95,13.225,255,5.0338,5.0255,-18.9793,1.3539,-1.9234,1.9818,92,4057.088,78442,-0.1641,0.2504,-9.5006,-1.2405,2.3894,-2.4144,61
13.776,266,4.105,-8.55,-9.4018,-0.0587,-0.6125,1.1965,95,13.276,256,8.5928,8.9947,-11.2041,0.9682,-1.6131,1.3867,92,4057.14,78443,-0.0588,0.4919,-9.3042,-1.2823,2.413,-2.4382,61
13.828,267,2.9965,-9.3126,-9.3682,0.36,-0.5183,1.5499,95,13.328,257,9.3532,11.8916,-9.7224,1.0705,-1.85,1.5747,92,4057.191,78444,5.3155,5.6901,-4.2272,-0.6521,1.9048,-1.8169,61
