right_hand_timestamp,right_hand_index,right_hand_accel_x,right_hand_accel_y,right_hand_accel_z,right_hand_gyro_x,right_hand_gyro_y,right_hand_gyro_z,right_hand_battery_percentage,left_hand_timestamp,left_hand_index,left_hand_accel_x,left_hand_accel_y,left_hand_accel_z,left_hand_gyro_x,left_hand_gyro_y,left_hand_gyro_z,left_hand_battery_percentage,ball_timestamp,ball_index,ball_accel_x,ball_accel_y,ball_accel_z,ball_gyro_x,ball_gyro_y,ball_gyro_z,ball_battery_percentage
0.239,4,-0.4938,-2.292,-19.491,0.7826,-1.864,0.7827,91,0.106,2,3.8327,4.2777,-10.1763,0.2156,-1.8954,1.2624,87,13143.969,254145,-9.0999,0.5253,-1.712,1.0436,-0.8197,0.8294,59
0.291,5,0.9291,-2.4088,-18.3762,1.2455,-1.2943,0.8428,91,0.158,3,7.717,8.4489,-9.0332,0.7195,-2.056,1.5868,87,13144.021,254146,-9.1203,1.0401,-1.5803,1.4355,-0.9753,1.207,59
0.343,6,0.7283,-2.0673,-17.8453,1.5549,-0.2622,0.6969,91,0.209,4,7.3852,8.4131,-9.445,1.1969,-0.8215,0.4749,87,13144.072,254147,-8.6602,0.8815,-2.3681,1.7216,-0.9439,1.5173,59
0.394,7,0.3987,-1.6008,-17.9761,1.5435,0.491,0.4638,91,0.261,5,4.1547,8.3182,-13.7025,1.5453,0.0795,-0.0222,87,13144.124,254148,-7.4754,0.5816,-3.4138,1.9304,-0.669,1.628,59
0.446,8,0.1384,-1.7025,-18.7312,1.5579,1.0408,0.1023,91,0.313,6,2.9226,8.0924,-15.374,0.4858,-0.2529,0.5118,87,13144.176,254149,-5.428,0.2082,-4.6405,2.0827,-0.2437,1.6522,59
0.498,9,-0.6912,-2.8013,-20.5122,1.1871,1.442,-0.4514,91,0.365,7,2.6576,6.6049,-16.3253,0.9992,-0.0647,0.6582,87,13144.228,254150,-3.7626,-0.2974,-5.7861,2.194,0.1086,1.5085,59
0.55,10,-0.8021,-2.968,-21.6614,0.557,1.5599,-0.6584,91,0.417,8,3.6548,7.6284,-19.3876,1.401,-0.7146,0.1248,87,13144.279,254151,-2.6472,-2.3444,-6.7239,2.2526,0.376,1.3052,59
0.602,11,0.2107,-2.7939,-22.564,-0.2708,1.0458,-0.4694,91,0.468,9,6.4267,6.6578,-19.9752,1.6511,-1.1942,-0.1259,87,13144.331,254152,-2.0995,-3.9662,-7.2278,1.8546,0.6429,1.4429,59
0.653,12,0.3135,-2.7047,-22.3612,-0.875,1.1841,-0.3235,91,0.52,10,5.6254,6.6562,-20.1921,1.6125,-1.5442,-0.2551,87,13144.383,254153,-1.4301,-5.0571,-8.3583,1.092,0.9368,1.7288,59
0.705,13,-0.1637,-1.9226,-22.1944,-0.3032,0.8651,-0.2227,91,0.572,11,8.4441,8.3255,-22.6769,1.1979,-1.7997,-0.826,87,13144.435,254154,-0.8535,-3.6945,-8.6429,0.3778,1.1376,1.9374,59
0.757,14,0.1964,-0.6654,-24.195,0.4531,-0.0379,-0.8113,91,0.624,12,6.0834,6.5656,-21.8706,0.3142,-1.276,-0.8912,87,13144.487,254155,-0.423,-2.6645,-8.8693,-0.1367,1.2925,2.0897,59
0.809,15,4.3982,2.2095,-23.3601,1.0051,-0.697,-1.2672,91,0.676,13,3.9344,5.8348,-21.2973,0.0732,-1.0095,-0.9303,87,13144.538,254156,4.8562,3.3864,-4.6531,-0.4398,0.8266,1.5986,59
0.86,16,3.6682,1.4094,-24.5266,0.0562,-1.177,-0.7385,91,0.727,14,2.0364,6.5054,-20.7386,-0.0008,-1.1156,-0.9532,87,13144.59,254157,3.5144,2.5977,-4.6574,-0.4905,0.164,1.1638,59
0.912,17,4.1659,1.5932,-24.532,0.3707,-1.5284,-1.2141,91,0.779,15,1.2434,6.1108,-19.9958,-0.2027,-1.3809,-0.9246,87,13144.642,254158,2.6169,1.9501,-5.9767,-0.5278,-0.322,0.8452,59
0.964,18,2.854,0.8712,-21.5753,-0.1297,-0.8016,-0.2099,91,0.831,16,-0.2054,6.4287,-19.103,-0.1555,-1.197,-1.1246,87,13144.694,254159,1.9653,1.4669,-6.9467,-0.5548,-0.6764,0.6114,59
1.016,19,1.6982,0.0661,-19.9071,-0.6165,-0.0036,-0.8283,91,0.883,17,-1.5293,6.6024,-18.9922,-0.2764,-1.3091,-1.3143,87,13144.745,254160,1.4956,1.1129,-7.6384,-0.5749,-0.9345,0.4405,59
1.068,20,-0.2134,-0.7871,-19.9117,-0.5367,0.609,-0.5522,91,0.935,18,-2.32,6.3455,-18.6389,-0.5214,-1.5118,-1.3148,87,13144.797,254161,1.1603,0.8663,-8.1496,-0.59,-1.1227,0.3155,59
1.119,21,-0.8566,-0.7626,-20.6341,-0.1307,-0.2248,-0.5209,91,0.986,19,-2.5446,5.7619,-17.3902,-0.8452,-1.526,-1.2332,87,13144.849,254162,6.2052,-0.5759,-8.2438,-0.5559,-0.8379,0.7008,59
1.171,22,-0.8253,-0.7931,-20.7678,0.2032,-0.8334,-0.2731,91,1.038,20,-2.536,4.6147,-16.1693,-0.9806,-1.4376,-1.0145,87,13144.901,254163,4.6375,2.1507,-7.527,-0.2964,-0.7488,0.8779,59
1.223,23,-1.0176,-0.7893,-20.4685,0.382,-0.86,-0.3604,91,1.09,21,-2.1103,4.1645,-14.7269,-1.1844,-1.2199,-0.5208,87,13144.952,254164,5.3533,3.3977,-7.6588,-0.0278,-0.6791,1.0796,59
1.275,24,-2.7465,-1.2791,-20.3014,0.4778,-1.0639,-0.0934,91,1.142,22,-1.0803,4.7812,-13.2641,-0.9099,-1.0138,0.2172,87,13145.004,254165,6.1596,4.7796,-7.6448,0.1328,-0.6159,1.1968,59
1.326,25,-2.3186,-1.2777,-19.737,0.4853,-1.4437,-0.0857,91,1.194,23,-0.1663,5.2508,-12.8778,-1.3441,-0.0788,0.7587,87,13145.056,254166,6.3278,5.8158,-7.6865,0.2065,-0.4706,1.2565,59
1.378,26,-2.0965,-1.4751,-18.7484,0.2612,-1.3186,0.018,91,1.245,24,0.448,4.2675,-13.1079,-1.49,0.5915,1.2191,87,13145.108,254167,6.8576,6.2346,-8.0035,0.1862,-0.4112,1.5027,59
1.43,27,-2.1093,-2.0408,-17.4309,0.1182,-1.0529,0.1431,91,1.297,25,2.0057,6.2937,-13.6405,-0.5839,1.1108,1.5551,87,13145.159,254168,7.5749,6.3871,-8.0642,0.2008,-0.4642,1.7523,59
1.482,28,-1.7327,-2.3068,-16.8328,0.5618,-0.9828,0.4617,91,1.349,26,1.6547,9.6016,-15.0868,-0.1071,1.4898,1.8004,87,13145.211,254169,7.7917,6.0759,-7.9734,0.2409,-0.6243,1.9308,59
1.534,29,-0.7448,-2.8939,-16.3505,0.662,-0.6904,0.9389,91,1.401,27,0.5524,11.4267,-15.6652,-0.3201,1.7664,1.9794,87,13145.263,254170,7.2867,5.2453,-8.1501,0.3175,-0.7962,2.0065,59
1.585,30,0.0651,-2.9708,-16.64,1.1575,0.1704,0.5472,91,1.453,28,-0.3687,11.1405,-15.6039,-0.667,1.7097,1.9982,87,13145.315,254171,6.3785,4.1647,-8.5766,0.3992,-0.9033,1.9579,59
1.637,31,0.0511,-2.059,-17.6833,1.5192,0.8068,-0.2757,91,1.505,29,0.3966,10.5027,-15.8445,-0.2001,1.1498,1.9483,87,13145.366,254172,5.2113,3.1474,-8.798,0.4267,-0.9236,1.7706,59
1.689,32,0.7433,-2.4031,-19.3822,1.3495,1.2712,-0.8763,91,1.556,30,2.3642,9.3277,-16.4552,-0.8261,0.5091,1.8874,87,13145.418,254173,3.6324,1.8297,-8.9178,0.4063,-0.8409,1.5294,59
1.741,33,0.2002,-4.4224,-20.9572,0.5244,1.6102,-1.1972,91,1.608,31,4.7536,7.3603,-16.6862,-0.3566,-0.3011,1.6841,87,13145.47,254174,2.5496,1.2773,-9.0402,0.2806,-0.7344,1.3517,59
1.793,34,-0.3928,-4.3493,-22.9867,-0.2947,1.8576,-1.2002,91,1.66,32,6.5321,5.9859,-17.5862,0.0932,-0.8924,1.1096,87,13145.522,254175,1.9635,0.9653,-9.2783,0.1777,-0.6305,1.2311,59
1.844,35,-0.9115,-3.7507,-23.2992,-0.8924,2.0382,-1.1383,91,1.712,33,8.8847,4.629,-18.5266,-0.032,-1.324,0.9885,87,13145.573,254176,1.5285,0.7364,-9.4587,0.1023,-0.5537,1.1435,59
1.896,36,-1.3513,-2.7373,-23.3223,-1.3287,2.0106,-0.8077,91,1.764,34,11.4042,-1.2774,-21.4613,-0.2896,-0.5494,0.0351,87,13145.625,254177,1.2365,0.5597,-9.6018,0.0464,-0.4954,1.0801,59
1.948,37,0.3932,-3.4223,-25.0182,-0.6204,0.7981,-0.6204,91,1.815,35,4.9004,4.1655,-19.4253,-0.0448,0.2781,-0.0906,87,13145.677,254178,1.0318,0.4314,-9.6994,0.0061,-0.4518,1.0345,59
2.0,38,2.2624,-2.4444,-26.24,0.2216,1.1655,-1.1279,91,1.867,36,3.5097,5.766,-20.8249,-0.5197,-0.4697,-0.7525,87,13145.728,254179,0.9026,0.3233,-9.7725,-0.0236,-0.4176,1.002,59
2.052,39,6.3405,-1.0921,-25.5128,0.0074,0.1813,-1.4983,91,1.919,37,3.2046,7.3358,-20.787,-0.9368,-1.0155,-1.2356,87,13145.78,254180,6.0171,-5.0219,-15.0348,-0.2447,-0.427,0.9612,59
2.103,40,9.6844,-5.9948,-26.6169,0.6798,0.477,-1.1632,91,1.971,38,2.4358,7.3945,-19.889,-1.3241,-1.4138,-1.5882,87,13145.832,254181,4.5218,-3.8901,-13.5065,0.0009,-0.1136,0.8324,59
2.155,41,7.0859,-1.4348,-21.5469,-0.1813,0.0351,-0.2175,91,2.023,39,1.5963,7.0868,-18.2178,-1.6438,-1.6668,-1.8455,87,13145.884,254182,3.3675,-2.8473,-12.5173,0.1824,0.1181,0.7397,59
2.207,42,4.7474,-2.4381,-22.6732,0.5051,0.708,0.3929,91,2.074,40,0.1353,5.8999,-16.586,-1.6423,-1.5495,-2.0023,87,13145.936,254183,2.5351,-2.0718,-11.7896,0.3157,0.2876,0.6718,59
2.259,43,-1.0126,-1.026,-24.5444,-0.1153,-0.1526,0.021,91,2.126,41,-1.0042,5.2924,-15.1116,-1.6719,-1.3808,-1.8599,87,13145.987,254184,2.9424,-1.5437,-12.8797,0.4159,0.4046,0.6226,59
2.311,44,-0.1997,-3.5754,-23.3038,0.31,-0.7807,0.2931,91,2.178,42,-1.9456,4.2777,-13.8488,-1.6425,-1.1573,-1.5933,87,13146.039,254185,3.5088,-1.4648,-7.0394,0.5296,0.4523,0.6219,59
2.362,45,-0.2008,-2.9247,-21.5949,0.4754,-1.2391,-0.0538,91,2.23,43,-2.4455,3.3972,-12.7079,-1.6154,-0.9694,-0.8974,87,13146.091,254186,5.6577,-1.2799,-7.3133,0.4503,0.379,1.1168,59
2.414,46,-0.6863,-2.7201,-19.9929,0.295,-1.5147,0.0301,91,2.282,44,-1.7932,3.4944,-11.9526,-1.859,-1.0614,0.0104,87,13146.143,254187,5.8129,-4.7648,-8.1183,0.4516,0.4029,1.4908,59
2.466,47,-1.2112,-2.7643,-17.9292,0.1825,-1.1923,-0.0959,91,2.334,45,-1.2842,3.4585,-11.6815,-2.0368,-0.6668,0.673,87,13146.194,254188,7.2201,-6.262,-8.5506,0.5091,0.3479,1.7637,59
2.518,48,-2.3919,-3.1089,-16.5553,0.3802,-0.8882,-0.1325,91,2.385,46,-1.2288,4.4626,-11.0647,-2.1288,-0.9743,1.1566,87,13146.246,254189,7.2443,-6.8534,-9.0118,0.6475,0.1924,1.9629,59
2.569,49,-2.3527,-2.9195,-15.6076,0.7374,-0.841,0.2311,91,2.437,47,-1.4837,6.7232,-9.4766,-2.2337,-0.8473,1.5095,87,13146.298,254190,6.247,-7.1919,-9.3096,0.6675,0.1313,2.1083,59
2.621,50,-1.7104,-3.1676,-15.1784,0.6621,-0.5927,0.4375,91,2.489,48,-1.602,4.4391,-6.9704,-2.3103,-1.291,1.7671,87,13146.35,254191,4.4254,-6.6176,-9.2505,0.557,0.1474,2.2144,59
2.673,51,-1.2232,-3.1949,-14.4901,0.2961,-0.1199,0.746,91,2.541,49,3.7505,5.7972,-5.8926,-1.0144,-1.4078,0.8362,87,13146.401,254192,2.8568,-5.9796,-9.1802,0.4122,0.1932,2.2919,59
2.725,52,-1.097,-2.2643,-13.7842,0.8905,0.1001,-0.0936,91,2.593,50,3.2217,5.2103,-6.0017,-0.0686,-0.3484,-0.0761,87,13146.453,254193,1.5212,-5.1823,-9.0081,0.2445,0.2311,2.2378,59
2.776,53,1.2779,-1.492,-12.6016,1.1827,0.6749,-0.7435,91,2.644,51,1.9976,6.0163,-6.0974,0.6216,0.4248,-0.7199,87,13146.505,254194,0.5553,-4.0196,-8.9594,0.1875,0.3012,2.0659,59
2.828,54,3.9496,-4.8569,-17.1937,0.3458,1.175,-1.2177,91,2.696,52,0.3878,6.5101,-7.548,1.1254,0.911,-0.506,87,13146.557,254195,0.4362,-3.0921,-9.2283,0.2455,0.3613,1.7617,59
2.88,55,7.6569,-6.8733,-20.5452,-0.425,1.54,-1.5639,91,2.748,53,0.7721,7.2769,-9.6174,1.4931,0.5071,0.0243,87,13146.608,254196,0.2176,-2.1694,-9.0964,0.2369,0.3592,1.3664,59
2.932,56,5.5155,-8.5633,-22.7255,-0.9876,1.8064,-0.4647,91,2.8,54,2.72,7.4987,-13.117,1.7615,0.0002,-0.0954,87,13146.66,254197,1.0619,-0.5135,-9.2747,0.257,0.3514,0.9984,59
2.984,57,3.6348,-6.8595,-23.1305,-1.3981,2.0008,0.3374,91,2.852,55,4.1943,6.7977,-15.5633,1.5913,-0.6725,-0.312,87,13146.712,254198,1.885,0.6934,-9.644,0.4143,0.2257,0.8064,59
3.035,58,1.9211,-5.2251,-24.1624,-1.6977,2.1427,0.5596,91,2.904,56,4.3482,5.3737,-16.6737,1.6591,-1.1635,-0.4023,87,13146.764,254199,1.3503,0.4724,-9.6477,0.6684,0.0055,0.6971,59
3.087,59,-0.9113,-4.9965,-23.7054,-1.6016,1.0161,-0.2384,91,2.956,57,8.0933,7.1324,-20.109,1.6789,-0.508,-0.6421,87,13146.815,254200,0.9597,0.3054,-9.6358,0.8539,-0.1574,0.6175,59
3.139,60,-0.4357,-3.8937,-25.2977,-0.4948,0.0723,-0.6079,91,3.007,58,5.7312,7.4221,-20.2065,0.6878,-0.1492,-0.5382,87,13146.867,254201,0.6504,0.1433,-9.6153,0.9905,-0.2781,0.5611,59
3.191,61,4.7388,2.5482,-26.4599,0.3132,-0.6166,-1.1188,91,3.059,59,3.4582,7.309,-20.3866,0.3008,0.0929,-0.6676,87,13146.919,254202,2.4745,0.2385,-5.6177,0.8138,-0.4844,0.4058,59
3.243,62,3.9858,2.3201,-27.0096,-0.4488,-1.1194,-0.6466,91,3.111,60,1.1671,8.4387,-20.7799,0.3184,-0.3395,-0.9316,87,13146.971,254203,1.7994,0.1436,-6.6561,0.71,-0.5768,0.286,59
3.294,63,4.7404,2.865,-25.3476,-0.0145,-1.4863,-1.147,91,3.163,61,1.4889,7.5973,-20.6717,-0.4476,-0.9204,-1.1274,87,13147.022,254204,1.3387,0.0821,-7.4819,0.6345,-0.6442,0.1987,59
3.346,64,3.0594,2.0791,-19.8721,0.3688,-0.5271,-0.5124,91,3.215,62,0.5805,7.1925,-19.5629,-0.7337,-0.8638,-1.4245,87,13147.074,254205,1.0122,0.0416,-8.0821,0.5802,-0.6935,0.1356,59
3.398,65,1.6964,1.5626,-19.1054,-0.2898,0.2977,-0.8303,91,3.266,63,-0.9255,6.6978,-18.1534,-0.8001,-0.9992,-1.524,87,13147.126,254206,0.7556,0.0167,-8.5281,0.5407,-0.7291,0.0909,59
3.45,66,0.231,-1.114,-19.954,-0.8889,0.8649,-0.8019,91,3.318,64,-1.5939,6.1591,-16.848,-0.9355,-1.1225,-1.3452,87,13147.178,254207,0.5656,-0.0097,-8.8599,0.5125,-0.7552,0.0581,59
3.501,67,-1.4072,-2.3248,-20.7097,-0.1069,-0.0381,-0.6219,91,3.37,65,-2.1061,5.8426,-15.8426,-0.9148,-0.9678,-1.1567,87,13147.229,254208,-3.6007,-2.2719,-14.4919,0.1527,-0.4819,0.1441,59
3.553,68,-1.0423,-2.4605,-20.8416,0.2144,-0.6971,-0.2419,91,3.422,66,-2.0085,5.7853,-14.4919,-1.0792,-0.8875,-0.8444,87,13147.281,254209,-2.0849,-6.916,-10.3393,0.0564,-0.6975,0.4108,59
3.605,69,-1.2276,-2.5973,-20.1202,0.3738,-0.7599,-0.1689,91,3.474,67,-1.7668,5.2167,-13.4748,-1.2475,-0.4977,-0.434,87,13147.333,254210,-4.7316,-5.3507,-8.7197,-0.1113,-0.4841,0.4826,59
3.657,70,-2.182,-2.7081,-19.0398,0.6365,-0.6596,0.1184,91,3.525,68,-1.0933,4.0301,-12.87,-1.1172,-0.5272,0.2313,87,13147.385,254211,-6.6884,-5.3515,-6.7001,0.1353,-0.1849,0.9144,59
3.709,71,-2.294,-2.6331,-17.799,0.8068,-0.8214,0.1412,91,3.577,69,0.6115,5.1443,-12.5834,-0.3692,-0.2346,0.6174,87,13147.437,254212,-7.1782,-5.7894,-5.1824,0.3046,0.2098,1.3431,59
3.76,72,-2.2209,-3.1202,-16.9445,0.8904,-0.8111,0.4431,91,3.629,70,0.2981,6.0472,-13.4701,-0.9495,0.5079,0.8998,87,13147.488,254213,-7.1483,-5.1438,-5.0455,0.4331,0.4869,1.6559,59
3.812,73,-1.8444,-3.4586,-16.4532,0.8181,-0.9869,0.6483,91,3.681,71,-0.9684,5.4385,-14.2473,-0.8388,1.0498,1.3221,87,13147.54,254214,-6.8799,-4.1046,-5.3099,0.5616,0.6406,1.8843,59
3.864,74,-1.2598,-3.7071,-16.1404,0.4895,-0.9984,1.0928,91,3.733,72,0.4292,8.7775,-14.1379,-0.2476,1.1353,1.6303,87,13147.592,254215,-6.4416,-2.7578,-5.8539,0.729,0.7187,1.9875,59
3.916,75,-0.6466,-3.335,-15.5016,0.9731,-0.6639,0.8981,91,3.784,73,-0.8857,10.088,-13.9264,-0.7275,1.5077,1.8553,87,13147.644,254216,-6.1879,-1.837,-6.3388,0.9088,0.8062,2.0115,59
3.967,76,-0.2257,-2.3193,-15.3348,1.2839,0.1979,-0.0197,91,3.836,74,-0.5498,9.5012,-14.0094,0.0869,1.1056,2.0194,87,13147.695,254217,-5.4105,-1.2647,-6.8459,0.9823,0.9373,1.9275,59
4.019,77,-0.1157,-2.8098,-17.7401,0.8615,0.8268,-0.105,91,3.888,75,1.9235,10.5949,-14.2744,-0.0206,0.9216,2.0698,87,13147.747,254218,-3.8117,-0.5283,-7.5195,0.9806,1.0498,1.7797,59
4.071,78,-1.3133,-5.8921,-20.944,1.3031,1.2859,-0.0882,91,3.94,76,2.6678,9.1493,-14.9687,0.1153,0.4822,1.8616,87,13147.799,254219,-2.8582,-0.6167,-8.0196,1.0308,1.1312,1.6325,59
4.123,79,-1.2044,-4.4033,-20.7467,1.6055,1.6209,-0.7395,91,3.992,77,4.014,8.7142,-14.9854,0.7559,-0.1234,1.4897,87,13147.851,254220,-2.1278,-0.4596,-8.4495,1.0581,1.2134,1.5606,59
4.175,80,-0.6886,-3.4468,-22.3171,0.4944,1.7339,-1.2148,91,4.043,78,4.5753,7.9686,-16.2178,1.2234,-0.751,0.7608,87,13147.902,254221,-1.595,-0.3364,-8.7663,1.0815,1.2701,1.5069,59
4.226,81,-0.9579,-5.558,-23.3788,-0.3166,1.9479,-0.6059,91,4.095,79,5.6645,7.7715,-17.87,1.4187,-1.2208,0.3651,87,13147.954,254222,-1.2191,-0.2403,-8.9961,1.1003,1.3095,1.4655,59
4.278,82,-0.8145,-4.8052,-23.8936,-0.1033,1.5212,-0.7271,91,4.147,80,5.9084,6.1994,-20.5371,1.1515,-1.5637,0.3034,87,13148.006,254223,-0.9458,-0.1596,-9.1894,1.117,1.3345,1.4332,59
4.33,83,-0.0548,-3.8509,-24.4539,0.3352,0.4409,-0.5841,91,4.199,81,5.6314,4.982,-22.2827,0.238,-0.5402,-0.4648,87,13148.058,254224,-0.7478,-0.0713,-9.3513,1.1315,1.3482,1.4075,59
4.382,84,2.0856,-2.0706,-24.6095,0.7615,-0.3476,-1.1014,91,4.251,82,2.338,6.0653,-21.8101,0.1131,-0.6404,-0.906,87,13148.11,254225,-0.6166,-0.0106,-9.4925,1.1441,1.354,1.3857,59
4.433,85,2.9287,-0.4821,-24.0856,0.2324,-0.923,-1.1099,91,4.303,83,1.6964,6.172,-21.5825,-0.2965,-1.1401,-1.0615,87,13148.161,254226,-4.5541,-3.3651,-14.9536,0.5753,0.7134,1.1096,59
4.485,86,3.4897,0.0036,-23.9496,-0.2921,-1.343,-1.3367,91,4.354,84,0.8996,6.6339,-20.6887,-0.598,-1.4145,-1.3277,87,13148.213,254227,-3.2851,-2.4213,-13.4249,0.2319,0.313,1.0154,59
4.537,87,7.5981,-3.2176,-21.1741,0.0669,-1.6495,-1.6507,91,4.406,85,-0.1259,6.4064,-19.7527,-0.899,-1.696,-1.4296,87,13148.265,254228,-2.3652,-1.7112,-12.4563,-0.0189,0.0215,0.9453,59
4.589,88,5.2945,-2.4712,-21.0195,-0.3291,-0.985,-1.2283,91,4.458,86,-1.272,6.6408,-18.5696,-1.1143,-1.6486,-1.5313,87,13148.316,254229,-1.6989,-1.1888,-11.743,-0.2028,-0.1916,0.8939,59
4.641,89,3.2349,-2.3554,-21.1257,-0.3647,-0.2091,-1.2154,91,4.51,87,-2.3046,6.6224,-17.3772,-1.1955,-1.5827,-1.6036,87,13148.368,254230,-1.2096,-0.7997,-11.2102,-0.3378,-0.3467,0.8545,59
4.692,90,0.0972,-2.5302,-22.4162,0.1145,-0.822,-0.7504,91,4.562,88,-2.8492,6.5566,-16.3792,-1.3237,-1.3874,-1.4602,87,13148.42,254231,-0.8445,-0.5097,-10.8287,-0.4378,-0.46,0.8253,59
4.744,91,0.0141,-2.2811,-22.048,0.3681,-1.2692,-0.2685,91,4.613,89,-3.1686,6.4721,-15.3377,-1.6461,-1.147,-1.2796,87,13148.472,254232,-3.3653,3.0603,-12.2897,-0.4128,-0.15,0.9086,59
4.796,92,-0.1514,-2.207,-21.0243,0.5122,-1.273,-0.301,91,4.665,90,-3.5842,5.2937,-15.0002,-1.8702,-0.9863,-1.1647,87,13148.523,254233,-3.9026,5.8776,-12.2685,-0.0593,0.2684,1.1347,59
4.848,93,-0.7533,-2.1619,-19.5588,0.7047,-0.8645,-0.2947,91,4.717,91,-3.5576,4.1631,-14.6528,-2.045,-1.2531,-0.6916,87,13148.575,254234,-3.3245,7.3242,-12.7793,0.3007,0.7235,1.5039,59
4.9,94,-1.1989,-2.3775,-18.7902,0.9691,-1.0513,0.0469,91,4.769,92,-2.942,2.318,-14.82,-2.1725,-1.5872,-0.1039,87,13148.627,254235,-2.6493,8.1418,-12.9245,0.5426,0.9467,1.7733,59
4.952,95,-0.9456,-2.4234,-17.8242,1.0519,-1.3783,0.6629,91,4.821,93,-2.307,-0.7754,-14.2949,-2.2656,-1.8311,0.5868,87,13148.679,254236,-2.0777,8.3036,-12.9259,0.7471,1.1113,1.9698,59
5.003,96,-0.5637,-2.6618,-17.0833,1.215,-1.2871,0.8469,91,4.872,94,-0.5967,-2.1826,-14.4483,-0.9818,-2.0091,1.0937,87,13148.73,254237,-1.0328,8.0295,-13.0663,0.9036,1.2081,2.1133,59
5.055,97,-0.4789,-2.4323,-16.3212,1.5611,-0.687,0.5555,91,4.924,95,4.4842,3.7339,-10.141,-0.0449,-2.1284,1.4636,87,13148.782,254238,0.0921,7.5818,-13.0233,1.1307,1.1872,2.2181,59
5.107,98,-0.4697,-1.6944,-15.8199,1.8138,-0.1697,0.1287,91,4.976,96,8.1925,7.9266,-9.1271,0.639,-0.8743,1.5044,87,13148.834,254239,1.1997,6.4789,-12.7879,1.43,0.9476,2.2945,59
5.159,99,-0.3649,-0.8624,-15.0183,1.7753,0.3535,-0.5477,91,5.028,97,6.6705,10.3764,-11.5471,1.1381,0.041,0.4116,87,13148.886,254240,2.0861,5.1726,-12.1394,1.7014,0.502,2.3397,59
5.211,100,2.3158,-1.023,-16.1256,0.6197,0.9404,-1.0748,91,5.08,98,2.1086,12.7898,-12.7036,0.6974,0.709,0.3737,87,13148.938,254241,2.2847,4.1505,-11.12,1.9157,-0.1131,2.3393,59
5.262,101,2.9886,-5.1142,-19.7657,-0.1851,1.3688,-1.2218,91,5.131,99,1.2412,9.5363,-14.0462,0.6071,0.7424,0.6415,87,13148.989,254242,2.0003,3.2929,-10.3384,2.072,-0.7173,2.3726,59
5.314,102,4.8604,-6.2477,-21.2321,-0.7544,1.6814,-1.5668,91,5.183,100,1.9861,10.9612,-15.0242,1.1148,0.509,0.5925,87,13149.041,254243,1.3935,2.6127,-9.8007,2.1861,-1.1866,2.4056,59
5.366,103,3.9283,-7.0711,-23.4927,-1.228,1.9096,-0.8523,91,5.235,101,2.9462,8.3898,-18.4833,1.1772,-0.3012,0.48,87,13149.093,254244,0.7125,2.0774,-9.3133,2.2694,-1.5291,2.4275,59
5.418,104,1.9994,-6.3708,-24.1095,-1.5736,1.9337,-0.3396,91,5.287,102,4.6859,6.7429,-19.8576,0.7089,-0.8925,0.5739,87,13149.145,254245,0.2796,1.7859,-8.9449,2.3302,-1.7617,2.4288,59
5.469,105,0.8921,-4.8786,-24.4874,-1.6056,1.9242,-0.1978,91,5.339,103,4.5497,6.0217,-21.1723,0.7542,-1.3241,0.5984,87,13149.196,254246,-0.2767,1.5074,-8.8477,2.3746,-1.8155,2.2876,59
5.521,106,-0.452,-3.6976,-25.0283,-1.0807,0.7351,0.0204,91,5.391,104,8.2403,9.7218,-23.3923,0.9129,-1.639,-0.0888,87,13149.248,254247,-0.3157,1.1691,-8.848,2.4069,-1.8404,2.1584,59
5.573,107,0.3764,-3.0014,-26.2633,-0.5267,-0.1329,-0.3378,91,5.442,105,5.0283,7.2519,-22.1984,-0.0137,-1.092,-0.6939,87,13149.3,254248,-0.3876,0.9135,-8.8477,2.4306,-1.8695,2.0661,59
5.625,108,4.922,0.5648,-27.1646,0.1025,-0.6713,-0.143,91,5.494,106,2.7803,9.3928,-20.494,-0.4679,-1.1384,-1.1591,87,13149.351,254249,-0.5445,0.64,-8.8852,2.4478,-1.9005,2.0013,59
5.677,109,4.9351,-0.7212,-18.8934,0.5117,0.1925,0.5627,91,5.546,107,1.5156,8.6184,-19.6336,-0.9702,-1.5035,-1.5323,87,13149.403,254250,-0.9901,0.415,-9.4754,2.0683,-1.6144,1.7128,59
5.728,110,3.4625,2.3724,-17.5916,1.0478,-0.5288,0.999,91,5.598,108,0.4418,8.0159,-17.9829,-1.2583,-1.4919,-1.7821,87,13149.455,254251,-0.7232,0.3122,-9.5002,1.7902,-1.4116,1.5043,59
5.78,111,2.441,0.591,-13.6437,0.0874,-0.8153,0.2061,91,5.65,109,-0.6806,7.0961,-16.7386,-1.4488,-1.3877,-1.7558,87,13149.507,254252,-0.5422,0.2415,-9.5458,1.5862,-1.2658,1.3529,59
5.832,112,1.753,-1.5685,-14.9178,-0.6136,-0.7465,-0.5247,91,5.701,110,-1.2846,6.1622,-15.4418,-1.6121,-1.2173,-1.4879,87,13149.558,254253,-0.3969,0.1948,-9.5805,1.4366,-1.1607,1.2426,59
5.884,113,0.4378,-1.7418,-16.6828,0.2079,-0.8418,-0.937,91,5.753,111,-1.6735,5.9041,-14.1433,-1.4612,-0.9591,-1.2258,87,13149.61,254254,-2.0922,-0.4969,-7.4557,0.4245,-1.5102,0.9353,59
5.936,114,-1.5573,-0.4949,-17.493,0.2834,-1.2822,-0.6767,91,5.805,112,-1.5806,4.8884,-13.851,-1.7465,-0.6392,-0.6437,87,13149.662,254255,-6.7586,0.2805,-9.8368,-0.142,-1.1891,0.5507,59
5.987,115,-1.3256,-0.8406,-17.0421,0.0023,-1.6051,-0.6457,91,5.857,113,-1.9539,3.5437,-13.2088,-1.9278,-0.5117,0.1956,87,13149.714,254256,-6.0919,-1.3124,-10.5396,0.0401,-1.0514,-0.182,59
6.039,116,-1.1585,-1.3266,-16.2769,0.1533,-1.5988,-0.4706,91,5.909,114,-2.17,3.3399,-12.9128,-2.087,-0.6653,0.8081,87,13149.766,254257,-6.882,-3.3961,-9.6015,0.3686,-1.2165,-0.8089,59
6.091,117,-0.93,-1.3129,-16.1911,0.5059,-1.7016,-0.2927,91,5.961,115,-1.0461,2.1537,-9.9953,-2.2032,-1.1583,1.2552,87,13149.817,254258,-6.2577,-5.1166,-9.1545,0.7034,-1.1642,-1.2664,59
6.143,118,-0.2192,-2.0081,-16.1897,0.8285,-1.794,0.0715,91,6.012,116,4.1563,5.2057,-7.0267,-1.3896,-1.2068,1.5815,87,13149.869,254259,-5.2677,-5.67,-9.1729,1.0125,-1.2067,-1.6003,59
6.195,119,-0.099,-2.2407,-15.8144,1.2791,-0.7971,-0.4165,91,6.064,117,5.3089,6.8137,-8.4381,-0.3425,-0.2017,1.2165,87,13149.921,254260,-4.0958,-5.0937,-9.1018,1.2761,-1.2126,-1.8441,59
6.246,120,-0.4058,-1.7893,-15.7223,1.6079,0.1007,-0.9791,91,6.116,118,2.7423,10.2998,-9.0736,-0.0637,0.5319,0.7855,87,13149.973,254261,-2.9324,-3.829,-9.1154,1.5908,-1.0619,-2.0002,59
6.298,121,-0.8071,-2.6468,-16.6269,0.9747,0.7559,-1.3897,91,6.168,119,0.7133,8.3554,-10.188,-0.2517,0.6918,1.0078,87,13150.024,254262,-2.2663,-2.517,-8.9377,1.8349,-0.7743,-1.9225,59
6.35,122,-1.6492,-5.6291,-17.6028,0.4118,1.2341,-1.6879,91,6.22,120,0.8275,8.9361,-12.9171,0.488,-0.1216,1.1558,87,13150.076,254263,-1.831,-1.6388,-8.8187,2.0131,-0.3298,-1.8586,59
6.402,123,-0.2404,-5.9981,-19.2093,-0.0836,1.57,-1.5553,91,6.271,121,1.5218,8.1547,-14.5841,0.4939,-0.1277,0.9358,87,13150.128,254264,-0.9914,-1.133,-9.1085,2.1431,0.119,-1.83,59
6.454,124,-0.0007,-6.583,-20.1152,-0.5251,1.8283,-1.4116,91,6.323,122,5.1255,7.9859,-18.3373,1.0322,-0.7659,0.7892,87,13150.18,254265,-0.1792,-1.0335,-9.8063,2.2167,0.2934,-1.817,59
6.505,125,-0.2713,-4.7946,-20.7892,-1.0606,1.8166,-1.2404,91,6.375,123,5.0625,8.9151,-21.3232,1.1698,-1.2316,0.0283,87,13150.231,254266,0.1121,-0.8232,-9.9012,2.0464,0.1972,-1.8461,59
6.557,126,-0.3613,-3.2099,-22.7162,-1.4514,0.7135,-1.1084,91,6.427,124,3.6709,8.0793,-22.6215,0.2707,-0.2198,-0.6657,87,13150.283,254267,0.2073,-0.5847,-9.7367,1.9011,0.093,-1.863,59
6.609,127,0.8364,-3.1098,-23.2047,-1.0111,-0.1486,-1.1901,91,6.479,125,-0.1581,10.0082,-21.2144,-0.2427,-0.8331,-1.1316,87,13150.335,254268,0.2761,-0.4034,-9.5894,1.7945,0.0221,-1.8752,59
6.661,128,2.4633,-0.7933,-24.9323,-0.0636,-0.7778,-1.5437,91,6.53,126,1.0446,9.4135,-19.5478,-0.6159,-1.2807,-1.5122,87,13150.387,254269,0.3294,-0.2515,-9.458,1.7152,-0.0243,-1.8839,59
6.712,129,5.2633,3.201,-25.2163,0.434,-1.237,-1.8009,91,6.582,127,-0.6944,8.4896,-18.6229,-0.7647,-1.4877,-1.7901,87,13150.439,254270,-2.0642,0.5409,-14.9284,1.2902,-0.1877,-1.3624,59
6.764,130,8.8982,-2.8615,-18.4475,0.5708,-1.5721,-1.9364,91,6.634,128,-1.3086,7.6424,-17.1722,-0.6945,-1.7584,-1.8882,87,13150.49,254271,-1.4078,0.3782,-13.7875,0.8216,0.0321,-0.9586,59
6.816,131,5.585,-1.5212,-16.5852,0.7855,-1.6523,-0.9925,91,6.686,129,-2.1485,5.6024,-15.3406,-0.9598,-1.5599,-1.7001,87,13150.542,254272,-0.9658,0.291,-12.6779,0.4682,0.1964,-0.5236,59
6.868,132,1.9501,-2.4072,-17.5149,-0.1041,-0.9972,-1.3995,91,6.738,130,-2.3387,5.237,-14.3856,-0.5659,-1.4832,-1.2747,87,13150.594,254273,-0.6397,0.2285,-11.8539,0.211,0.3175,-0.2055,59
6.919,133,1.6355,-4.086,-18.3224,0.4895,-1.3972,-0.574,91,6.789,131,-2.0857,5.1363,-12.7244,-0.6698,-1.1427,-0.8488,87,13150.645,254274,-1.7663,1.8776,-11.75,0.0224,0.4129,0.0296,59
6.971,134,1.0549,-3.7077,-18.3138,1.0252,-1.689,-0.2431,91,6.841,132,-2.4679,3.969,-11.2227,-0.3935,-0.6589,-0.0256,87,13150.697,254275,-0.2824,4.2875,-10.5808,-0.1539,0.1502,-0.0015,59
7.023,135,-0.4432,-3.498,-17.5782,1.1993,-1.7697,0.2998,91,6.893,133,-1.6336,3.2432,-10.7982,0.3846,-0.384,0.6467,87,13150.749,254276,0.6459,4.4425,-6.7309,0.5258,0.2506,-0.0019,59
7.075,136,-0.7268,-2.773,-16.2074,1.2924,-1.8779,0.5462,91,6.945,134,0.812,6.5668,-11.2168,0.42,0.3841,1.1374,87,13150.801,254277,2.7717,5.6018,-3.4894,1.0577,-0.0476,-0.1995,59
7.127,137,-0.7458,-2.3112,-14.7788,1.1215,-1.5598,0.5541,91,6.997,135,0.7404,6.5973,-12.3393,-0.3735,0.9594,1.4955,87,13150.853,254278,3.6376,4.7419,-1.2067,1.4458,-0.6978,-0.3957,59
7.178,138,-0.8063,-2.8897,-14.2265,0.9928,-1.0156,0.518,91,7.048,136,1.4233,7.543,-13.4552,0.3991,1.1865,1.7568,87,13150.904,254279,2.9865,2.8455,-0.5658,1.7291,-1.1724,-0.4203,59
7.23,139,-0.1768,-3.3643,-14.2825,0.7422,-0.4904,0.13,91,7.101,137,1.1765,10.1265,-13.4995,0.963,1.5414,1.9476,87,13150.956,254280,2.1196,1.2635,-2.373,1.9358,-1.4974,-0.3956,59
7.282,140,-0.0574,-2.5177,-15.2539,0.1446,0.3245,-0.5417,91,7.152,138,1.3577,10.3788,-14.6276,1.2512,1.5697,2.0868,87,13151.008,254281,1.5393,0.8082,-4.1246,1.7247,-1.5694,-0.4029,59
7.334,141,0.4902,-2.3504,-16.9012,-0.418,0.9193,-0.6189,91,7.204,139,2.7119,11.2694,-15.7688,1.281,1.3797,1.8989,87,13151.06,254282,1.1439,0.4886,-5.6727,1.4385,-1.4666,-0.4159,59
7.386,142,1.427,-3.1791,-20.0459,-0.4217,1.3533,-0.0513,91,7.256,140,3.6329,8.9276,-16.4692,0.2938,0.8162,1.9728,87,13151.111,254283,0.332,-0.0262,-7.0602,1.1134,-1.2861,-0.4003,59
7.437,143,1.1521,-2.7442,-22.6269,-0.9764,1.6701,-0.2298,91,7.308,141,6.1099,8.0708,-18.0148,0.8862,-0.077,1.3931,87,13151.163,254284,-0.216,-0.4964,-7.6423,0.8487,-1.0532,-0.2431,59
7.489,144,-0.142,-3.7701,-24.1926,-1.39,1.9014,-0.4508,91,7.36,142,6.6095,7.6826,-20.0525,1.3185,-0.7289,0.6353,87,13151.215,254285,-0.1127,-0.2927,-8.2299,0.7167,-0.8222,-0.1008,59
7.541,145,-0.9986,-3.8661,-24.1437,-1.5543,1.5833,-0.4383,91,7.411,143,6.8444,6.1805,-21.4247,0.7066,-1.2046,0.5107,87,13151.266,254286,-0.014,-0.1269,-8.678,0.619,-0.6532,0.0025,59
7.593,146,-1.0023,-2.8737,-23.61,-1.8118,0.8539,0.3523,91,7.463,144,9.9151,9.8377,-21.696,0.9349,-1.5519,-0.1583,87,13151.318,254287,0.0505,-0.0054,-8.9787,0.5465,-0.5283,0.0766,59
7.645,147,-0.4842,-1.8792,-24.9534,-0.9921,-0.0461,0.3407,91,7.515,145,5.9995,7.7689,-21.3768,0.0023,-0.6695,-0.8019,87,13151.37,254288,0.1326,0.0981,-9.23,0.4917,-0.4369,0.1299,59
7.696,148,1.9145,2.933,-25.9193,-0.818,-0.6363,0.7418,91,7.567,146,4.7095,8.1905,-19.9942,-0.2678,-1.1613,-0.9457,87,13151.421,254289,0.1833,0.2039,-9.3743,0.4487,-0.3691,0.1675,59
7.748,149,4.7764,2.4496,-26.5685,-0.7934,-1.1337,-0.1337,91,7.619,147,2.3121,7.6977,-19.8646,-0.6354,-1.3544,-1.319,87,13151.473,254290,5.4921,5.4799,-4.2784,-0.0368,0.0818,-0.0343,59
7.8,150,3.0923,2.0407,-19.134,0.0953,-0.6394,0.2082,91,7.67,148,1.1434,7.3697,-18.5685,-0.7676,-1.6612,-1.3636,87,13151.525,254291,3.9205,4.0881,-5.4766,-0.4284,0.2129,-0.2756,59
7.852,151,1.5774,1.97,-17.8558,0.5072,-0.6795,0.712,91,7.722,149,-0.5773,6.7954,-17.6743,-0.9451,-1.5895,-1.3843,87,13151.577,254292,2.8786,3.05,-6.5828,-0.7157,0.3052,-0.4519,59
7.904,152,0.6606,0.8897,-17.3815,-0.3072,-0.8467,0.0306,91,7.774,150,-1.4605,6.5426,-16.4775,-1.0684,-1.5601,-1.36,87,13151.629,254293,2.0988,2.2953,-7.3771,-0.9269,0.3715,-0.5809,59
7.955,153,-0.6865,-1.3976,-18.8063,-0.6196,-1.0214,0.0318,91,7.826,151,-1.9282,5.8342,-15.7145,-1.2058,-1.2755,-1.2338,87,13151.68,254294,-3.2186,2.2721,-9.0552,-1.0269,0.4933,-0.7864,59
8.007,154,-1.0435,-1.4708,-19.543,0.221,-1.4148,-0.2715,91,7.878,152,-1.2823,6.6173,-13.2489,-1.1652,-1.11,-0.7085,87,13151.732,254295,3.0093,2.8449,-10.9248,-0.7597,0.6826,-0.3898,59
8.059,155,-1.5349,-1.2495,-18.6723,0.3062,-1.5146,-0.0089,91,7.929,153,0.5007,6.6557,-13.0104,-1.5304,-0.8417,-0.3067,87,13151.784,254296,1.6942,4.6158,-7.5743,-0.3098,0.1931,-0.4653,59
8.111,156,-2.2705,-2.2637,-18.3066,0.5455,-1.6264,0.0481,91,7.981,154,1.6976,6.0503,-13.4417,-1.797,0.0648,-0.5113,87,13151.836,254297,2.1613,7.5895,-6.8782,0.4477,0.1517,-0.6879,59
8.163,157,-2.054,-1.7133,-17.3709,1.0224,-1.7649,0.2023,91,8.033,155,0.4064,5.7171,-14.5805,-1.9916,0.7264,0.0791,87,13151.887,254298,2.2533,8.0104,-6.8006,1.0007,-0.0838,-0.709,59
8.214,158,-1.6091,-1.9832,-16.6241,0.6013,-1.6299,0.3426,91,8.085,156,-0.9667,4.6729,-15.69,-1.9968,1.2092,0.7231,87,13151.939,254299,2.1374,7.6794,-7.2462,1.4042,-0.2412,-0.654,59
8.266,159,-1.5269,-3.746,-16.5837,0.3315,-1.6232,0.9267,91,8.137,157,0.2076,6.3141,-15.9364,-1.0857,1.3918,1.1932,87,13151.991,254300,1.9178,7.5505,-8.338,1.6711,-0.3378,-0.6624,59
8.318,160,-0.3765,-3.8996,-15.6863,0.9163,-1.5993,1.1906,91,8.189,158,-0.4374,8.4209,-15.9738,-1.106,1.6949,1.5362,87,13152.043,254301,1.7771,7.0501,-8.9457,1.8864,-0.4469,-0.8161,59
8.37,161,-0.2046,-2.5557,-14.7375,1.3432,-0.5324,0.9978,91,8.24,159,0.5514,10.6772,-16.1787,-0.1355,1.3385,1.7866,87,13152.095,254302,1.7481,5.6915,-9.3166,1.9494,-0.6351,-1.0,59
8.421,162,-0.2709,-1.4558,-15.667,1.6121,0.2938,0.3442,91,8.292,160,0.2244,11.3412,-16.869,0.1824,1.1952,1.646,87,13152.146,254303,1.6961,3.8448,-9.6771,1.8064,-0.8832,-1.1394,59
8.473,163,-0.3831,-1.1345,-18.9449,1.8451,0.8969,-0.4239,91,8.344,161,1.3838,10.8143,-17.22,-0.0668,0.212,1.6055,87,13152.198,254304,1.3246,2.8173,-9.6563,1.6825,-1.0974,-1.2134,59
8.525,164,-2.1283,-3.823,-19.5668,2.021,1.337,-0.901,91,8.396,162,2.9342,8.8279,-17.2416,0.1158,-0.4872,1.4937,87,13152.25,254305,1.0372,2.0578,-9.625,1.5954,-1.251,-1.2674,59
8.577,165,-1.5053,-2.6868,-20.3545,0.8029,1.4277,-1.3327,91,8.448,163,6.797,8.0228,-19.2269,0.0666,-1.0283,1.4359,87,13152.302,254306,0.827,1.4971,-9.606,1.5338,-1.3621,-1.3078,59
8.629,166,-0.6351,-2.0403,-22.8521,-0.0914,1.2716,-1.3359,91,8.499,164,7.9606,4.6579,-20.7594,-0.1272,-1.4231,1.3664,87,13152.353,254307,0.6638,1.0934,-9.5922,1.4911,-1.4412,-1.3385,59
8.68,167,-0.2965,-1.4441,-24.0113,-0.7441,0.8604,-0.4992,91,8.551,165,10.7297,8.7264,-12.5033,-0.4527,-1.6243,1.4357,87,13152.405,254308,0.5424,0.7999,-9.5904,1.4627,-1.499,-1.3622,59
8.732,168,2.8432,-0.4215,-23.9185,0.1313,-0.037,-1.0395,91,8.603,166,5.4244,6.4756,-13.3582,-0.6657,-0.5064,0.3923,87,13152.457,254309,0.408,0.5722,-9.5756,1.4445,-1.5404,-1.3815,59
8.784,169,3.0274,3.1336,-22.9587,0.7702,-0.6271,-1.4338,91,8.655,167,4.7399,9.8934,-13.7657,-0.1947,-1.0423,-0.0485,87,13152.509,254310,0.2878,0.3911,-9.5722,1.434,-1.5707,-1.3973,59
8.836,170,6.6108,1.1823,-24.7528,0.0344,-1.084,-1.2268,91,8.707,168,3.1517,9.4134,-15.1108,-0.8221,-0.9382,-0.7218,87,13152.56,254311,0.1369,0.243,-9.563,1.4294,-1.5938,-1.4114,59
8.888,171,4.4251,2.311,-22.9627,0.6995,-0.6267,-1.2875,91,8.758,169,1.8295,9.3535,-15.3506,-1.2801,-1.3574,-1.2132,87,13152.612,254312,3.4244,2.9112,-11.9207,1.3791,-1.5511,-1.6948,59
8.939,172,3.7806,-1.1572,-19.1679,-0.1669,-1.0905,-0.7402,91,8.81,170,0.3044,8.5446,-15.1088,-1.5389,-1.4346,-1.5718,87,13152.664,254313,2.5519,2.0846,-11.3323,1.267,-1.4748,-1.913,59
8.991,173,2.3343,0.5778,-17.8022,0.0237,-1.137,0.1364,91,8.862,171,-0.4545,7.3024,-14.1844,-1.6372,-1.5135,-1.8037,87,13152.716,254314,1.9409,1.4622,-10.898,1.1909,-1.4154,-2.0722,59
9.043,174,0.7785,-1.6285,-19.0521,-0.4491,-0.9184,0.7762,91,8.914,172,-1.045,6.0212,-13.2206,-1.6908,-1.3662,-1.6461,87,13152.767,254315,5.4803,-4.1907,-10.0137,1.2233,-1.6811,-2.1885,59
9.095,175,-1.6826,-2.0348,-19.2761,-0.7877,-1.2761,-0.0927,91,8.966,173,-1.738,4.6136,-11.4048,-1.2337,-1.1059,-1.0541,87,13152.819,254316,0.8455,-3.7635,-7.9491,0.2149,-1.8901,-2.2733,59
9.146,176,-1.5795,-2.7235,-19.2248,-0.5537,-1.6007,-0.3603,91,9.017,174,-1.3096,5.5275,-11.6614,-0.3751,-0.9306,-0.213,87,13152.871,254317,-0.0852,-4.4787,-6.6693,0.1917,-1.0289,-2.3345,59
9.198,177,-1.284,-2.7173,-18.4575,-0.0441,-1.8376,0.1528,91,9.069,175,-0.5132,4.2482,-11.3395,-0.9538,-0.0001,0.4908,87,13152.923,254318,-2.3402,-6.9378,-7.8551,0.2489,-0.551,-2.3685,59
9.25,178,-1.3915,-2.4668,-16.812,0.1626,-1.8191,0.2439,91,9.121,176,-0.4601,3.9373,-11.4817,-0.0244,0.4641,1.0236,87,13152.974,254319,-3.1613,-9.1399,-8.9631,0.2039,-0.1783,-2.4047,59
9.302,179,-1.6468,-2.7003,-15.4224,0.0419,-1.4716,0.3511,91,9.173,177,0.1341,6.9171,-12.5177,0.4566,1.0178,1.4124,87,13153.026,254320,-3.6571,-9.2785,-9.5351,0.1257,0.0363,-2.4311,59
9.354,180,-1.259,-3.6231,-15.5083,0.0191,-1.486,0.3306,91,9.225,178,-1.2329,7.2882,-13.7442,-0.3468,1.4219,1.6962,87,13153.078,254321,-3.5665,-8.8948,-9.9371,0.1398,0.2377,-2.4504,59
9.406,181,-1.2463,-5.5832,-15.1038,0.6328,-1.1144,0.8993,91,9.276,179,-1.3389,8.2595,-14.9237,0.3644,1.4005,1.9033,87,13153.13,254322,-2.8621,-7.8221,-10.2912,0.1554,0.4518,-2.4645,59
9.457,182,-1.2025,-4.9735,-14.4974,1.1362,-0.2874,1.1396,91,9.328,180,-1.2588,9.7067,-15.2177,-0.3879,1.5998,2.0545,87,13153.181,254323,-1.9355,-6.1072,-10.5423,0.1847,0.5916,-2.4747,59
9.509,183,-0.9624,-3.6144,-16.1405,1.3586,0.4726,0.4112,91,9.38,181,1.1082,9.4189,-15.916,0.3886,0.4949,2.1649,87,13153.233,254324,-1.3432,-4.5763,-10.428,0.2232,0.6696,-2.4822,59
9.561,184,-1.4335,-2.6394,-18.4751,1.3275,1.0274,-0.0289,91,9.432,182,3.2443,10.3045,-15.7658,0.9162,0.4985,1.8024,87,13153.285,254325,-1.0509,-3.4189,-10.122,0.1764,0.7311,-2.3437,59
9.613,185,-2.7062,-1.6391,-19.6413,1.0086,1.4322,-0.6962,91,9.484,183,4.184,8.4511,-16.4161,0.771,-0.1647,1.7333,87,13153.337,254326,-0.6727,-2.4667,-10.0028,0.1417,0.7712,-2.226,59
9.664,186,-2.9412,-2.7122,-20.5594,0.5061,1.7277,-1.177,91,9.535,184,6.409,8.3831,-17.5917,0.6242,-0.7929,1.6452,87,13153.389,254327,-0.4008,-1.7619,-9.9186,0.1138,0.8035,-2.1386,59
9.716,187,-2.3211,-2.3032,-21.5296,0.6841,1.2322,-1.309,91,9.587,185,7.2262,5.0279,-19.8891,-0.2217,-1.2513,1.5152,87,13153.44,254328,-0.1934,-1.2427,-9.8681,0.0922,0.8285,-2.073,59
9.768,188,-1.0976,1.3784,-22.9663,-0.1781,0.23,-1.6305,91,9.639,186,7.474,5.4756,-20.6339,-0.7904,-0.2368,0.4195,87,13153.492,254329,-0.0422,-0.8662,-9.8077,0.0742,0.8491,-2.0243,59
9.82,189,3.4333,1.1677,-23.4742,-0.674,0.6531,-1.2914,91,9.691,187,3.6253,6.2468,-19.5043,-0.65,-0.7779,-0.3322,87,13153.544,254330,0.089,-0.5899,-9.7594,0.0597,0.866,-1.9864,59
9.872,190,3.5314,-0.2175,-22.0164,-0.3289,0.3403,-1.615,91,9.743,188,4.7223,7.2213,-19.2949,-1.146,-1.2404,-0.8384,87,13153.596,254331,0.2084,-0.3702,-9.7001,0.0466,0.8828,-1.9579,59
9.923,191,7.3728,-5.3565,-23.1208,-0.6114,0.6146,-0.5708,91,9.794,189,4.1433,8.1581,-18.2425,-1.282,-1.1931,-1.2983,87,13153.647,254332,0.323,-0.1986,-9.6256,0.0342,0.899,-1.9358,59
9.975,192,4.7408,-2.8229,-24.8711,0.2282,-0.2208,-0.911,91,9.846,190,1.8807,7.9766,-17.0257,-1.6132,-1.2136,-1.6339,87,13153.699,254333,1.7885,4.1256,-4.4618,0.3468,1.0158,-1.434,59
10.027,193,3.4313,-1.0529,-18.5615,0.6931,-0.8305,-0.205,91,9.898,191,0.8741,7.6592,-15.9076,-1.5416,-1.4663,-1.8789,87,13153.751,254334,1.4599,3.0451,-5.9976,0.2893,1.2207,-1.155,59
10.079,194,5.2281,-2.9163,-18.145,-0.1661,-1.2755,0.3786,91,9.95,192,-0.0181,7.0651,-14.4271,-1.3366,-1.3559,-1.8954,87,13153.803,254335,1.1415,2.2511,-6.9137,0.2459,1.3722,-0.951,59
10.13,195,3.5433,-2.4806,-20.2033,0.4661,-1.2743,0.209,91,10.002,193,-0.4266,6.8185,-13.171,-1.0187,-1.0642,-1.4983,87,13153.854,254336,-0.7921,4.2734,-4.2523,0.8533,1.6902,-0.6352,59
10.182,196,1.8737,-2.126,-20.7556,-0.1983,-1.5993,0.1501,91,10.054,194,0.0405,9.2286,-13.6261,-1.4223,-0.5033,-0.7497,87,13153.906,254337,4.3827,0.8909,-1.9001,1.1389,1.8584,-0.5727,59
10.234,197,1.1656,-3.0569,-19.5177,-0.5579,-1.8366,0.1986,91,10.106,195,-0.1448,6.3408,-12.9875,-1.7181,0.3117,-0.5613,87,13153.958,254338,3.3335,3.2757,-0.7817,1.2637,1.4353,-0.8066,59
10.286,198,0.6117,-3.0946,-18.8765,-0.1158,-2.0098,0.1237,91,10.157,196,-1.5171,6.4911,-12.5195,-1.139,0.7825,-0.3214,87,13154.01,254339,4.3857,5.0081,-0.0533,1.5962,1.2508,-1.2647,59
10.338,199,0.6629,-2.6985,-17.7288,0.2693,-2.1361,0.2391,91,10.209,197,-2.5444,5.6492,-12.7682,-1.5113,1.2502,0.4308,87,13154.061,254340,4.3566,5.5783,1.5153,1.8389,0.9978,-1.4156,59
10.389,200,0.9768,-5.1893,-17.5682,0.2458,-1.5753,0.8512,91,10.261,198,-4.4922,4.3645,-12.6951,-0.9438,1.1683,0.9798,87,13154.113,254341,4.1965,5.2022,1.0011,2.016,0.8541,-1.474,59
10.441,201,0.3899,-4.8183,-16.8452,0.8538,-0.6745,0.3312,91,10.313,199,-3.7849,6.8212,-11.8261,-0.1352,0.5459,1.3805,87,13154.165,254342,3.656,4.2992,-0.4944,2.1452,0.7393,-1.5278,59
10.493,202,0.3748,-3.2308,-16.7483,1.2975,0.1901,-0.1498,91,10.365,200,-4.2168,6.6306,-10.8635,-0.5338,0.9708,1.6729,87,13154.217,254343,3.6802,4.0055,-1.8533,2.2395,0.6191,-1.5751,59
10.545,203,0.0978,-2.583,-17.3963,0.6535,0.8212,-0.0903,91,10.416,201,-2.5451,5.1571,-12.3512,0.2821,0.0833,1.8863,87,13154.268,254344,3.5867,3.3873,-3.2223,2.3084,0.3558,-1.5619,59
10.597,204,-0.9737,-2.772,-17.3556,1.1129,1.2818,-0.6692,91,10.468,202,3.0622,9.0907,-13.3488,0.6285,-0.3504,2.0421,87,13154.32,254345,2.4658,2.2202,-4.9694,2.3577,0.1089,-1.5639,59
10.648,205,-1.7704,-3.5508,-18.3771,0.9949,1.6179,-1.1635,91,10.52,203,4.0745,7.0174,-14.0085,1.0346,-0.7297,2.1144,87,13154.372,254346,1.9327,1.6727,-6.076,2.3937,-0.0502,-1.5947,59
10.7,206,-1.5006,-3.4897,-17.8934,0.1258,1.5426,-1.5243,91,10.572,204,6.8471,5.6433,-14.9815,1.4261,-0.8862,1.7631,87,13154.424,254347,1.5506,1.2875,-6.9398,2.4201,-0.1631,-1.6185,59
10.752,207,-0.4293,-3.3904,-17.9516,-0.5856,1.4444,-1.786,91,10.624,205,8.8659,4.2736,-18.0042,1.2566,-1.3194,1.2815,87,13154.475,254348,1.2859,1.0016,-7.5549,2.4389,-0.2408,-1.6368,59
10.804,208,0.4101,-2.6235,-17.7563,-1.1048,1.6497,-1.878,91,10.675,206,5.6913,-2.1417,-16.5775,0.8498,-0.2999,0.2489,87,13154.527,254349,1.0755,0.8069,-8.0003,2.4516,-0.2927,-1.6524,59
10.856,209,5.3561,-3.6704,-18.278,-1.4837,1.3905,-2.035,91,10.727,207,3.121,0.0505,-15.4234,0.099,-0.7683,0.1421,87,13154.579,254350,0.8913,0.6514,-8.3441,2.462,-0.3275,-1.6635,59
10.907,210,5.5335,-3.9609,-21.3366,-0.5219,1.0461,-2.0161,91,10.779,208,6.9225,2.1449,-15.231,0.5563,-0.8207,-0.3873,87,13154.631,254351,0.7695,0.5263,-8.6526,2.4671,-0.3488,-1.6662,59
10.959,211,6.7501,-0.1556,-21.0547,0.2374,0.0942,-2.1465,91,10.831,209,4.4756,4.6256,-15.9351,0.5241,-0.9672,-0.9689,87,13154.682,254352,0.626,0.426,-8.8511,2.47,-0.3617,-1.6684,59
11.011,212,4.9657,5.2763,-16.4056,0.8476,-0.2627,-0.89,91,10.883,210,4.1591,5.5041,-15.8111,-0.2297,-1.0111,-1.3935,87,13154.734,254353,0.4309,0.3808,-9.1777,2.4733,-0.3701,-1.6723,59
11.063,213,5.1246,6.7535,-14.9207,1.2185,-0.4031,-0.0319,91,10.934,211,2.1067,5.7508,-15.2779,-0.4346,-0.7819,-1.7034,87,13154.786,254354,-0.6512,0.7821,-4.1349,2.441,-0.1927,-1.8966,59
11.115,214,3.7376,4.6796,-15.2068,0.951,0.383,0.5534,91,10.986,212,1.8776,5.4712,-15.294,-0.7662,-1.2434,-1.7612,87,13154.838,254355,0.0266,0.7763,-5.6157,2.4065,-0.0671,-2.0603,59
11.166,215,2.4678,0.8456,-18.3131,0.4242,0.2684,0.5114,91,11.038,213,1.1636,5.4536,-14.951,-0.7424,-1.0391,-1.9717,87,13154.89,254356,1.7002,0.9586,-1.5352,2.4289,-0.0284,-2.1797,59
11.218,216,2.8215,0.4513,-19.6202,0.936,-0.4735,0.2417,91,11.09,214,0.3801,5.6975,-14.411,-0.5505,-0.8549,-2.1191,87,13154.941,254357,0.2237,2.3627,-9.1189,2.0433,-0.0423,-2.2669,59
11.27,217,3.4122,-0.8773,-19.5667,1.3573,-0.097,0.7737,91,11.142,215,-0.6935,5.8326,-13.7963,-0.3917,-0.6848,-1.8292,87,13154.993,254358,-0.2313,1.0148,-10.0162,2.0167,-0.0165,-2.3306,59
11.321,218,1.8034,-0.9622,-18.3782,1.1225,-0.2353,1.2383,91,11.194,216,-2.1211,6.0131,-13.3091,-0.2692,-0.3386,-1.5467,87,13155.045,254359,-0.1587,-2.1852,-11.364,1.3791,-0.1438,-1.7522,59
11.373,219,0.3907,-1.0697,-18.2173,0.2096,-0.841,0.7605,91,11.246,217,-2.6399,6.6697,-12.5601,-0.1813,0.0152,-1.2869,87,13155.097,254360,-0.0865,-4.4803,-11.6058,1.4871,-0.0966,-1.9549,59
11.425,220,1.2723,-3.936,-18.3101,-0.4778,-1.2832,0.5041,91,11.297,218,-3.7763,7.4934,-12.6719,-0.0742,0.3946,-1.0114,87,13155.148,254361,0.3585,-6.517,-11.0354,1.7593,0.0143,-2.1028,59
11.477,221,0.5956,-3.3852,-17.9593,0.1329,-1.2869,0.7093,91,11.349,219,-4.7605,8.2599,-12.7194,-0.1126,0.183,-0.5831,87,13155.2,254362,0.8972,-7.3621,-10.7453,1.9557,0.24,-2.1827,59
11.529,222,-0.1112,-3.2416,-17.7736,0.2409,-1.2153,0.8063,91,11.401,220,-4.7214,8.377,-12.6449,-0.3304,-0.1049,-0.0055,87,13155.252,254363,1.6882,-7.4863,-10.907,2.0212,0.4375,-2.2691,59
11.58,223,-1.0111,-3.306,-17.7839,0.1661,-0.9871,0.5239,91,11.453,221,-4.1955,9.0194,-12.2389,-0.3887,-0.503,0.4797,87,13155.304,254364,2.9981,-8.3055,-10.3844,2.0317,0.4661,-2.2179,59
11.632,224,-2.0444,-3.148,-17.9041,0.2714,-1.3197,0.4103,91,11.505,222,-3.7546,8.1039,-12.8033,-0.5003,-0.34,0.5907,87,13155.355,254365,3.5458,-8.3034,-9.9819,1.9012,0.3714,-2.1025,59
11.684,225,-2.6221,-3.1918,-17.3815,0.1775,-1.3386,-0.0462,91,11.556,223,-3.1088,7.9318,-13.4399,-0.3188,-0.1983,0.6167,87,13155.407,254366,3.8687,-7.9836,-9.5571,1.7674,0.2221,-2.1165,59
11.736,226,-3.5363,-3.6561,-17.239,-0.1838,-1.466,-0.5897,91,11.608,224,-3.3152,8.0398,-13.4294,-0.5147,0.0026,0.8335,87,13155.459,254367,4.3928,-7.6281,-8.8415,1.5635,0.1122,-2.156,59
11.787,227,-3.6682,-4.024,-16.8513,-0.476,-1.4488,-0.978,91,11.66,225,-3.8209,8.3915,-12.9047,0.0929,0.4288,0.9252,87,13155.511,254368,4.5801,-7.4054,-8.2651,1.1792,0.0483,-2.0763,59
11.839,228,-3.7711,-4.0577,-16.7664,-0.8701,-1.3463,-1.2991,91,11.712,226,-2.9302,9.284,-12.8969,0.1382,0.3554,0.7909,87,13155.562,254369,4.5832,-6.7448,-7.5401,0.7559,0.0634,-1.9542,59
11.891,229,-3.6519,-4.4462,-16.4147,-1.3123,-1.0911,-1.4728,91,11.764,227,-3.2837,10.6253,-12.8601,-0.0033,0.6755,0.4122,87,13155.614,254370,5.1966,-6.2584,-6.9796,0.3724,0.1686,-1.6583,59
11.943,230,-3.5834,-5.64,-16.8234,-1.6352,-0.5389,-1.1574,91,11.815,228,-3.2646,10.8023,-12.7399,-0.1291,0.3997,0.3162,87,13155.666,254371,5.5307,-5.7244,-6.8572,-0.0543,0.2062,-1.2305,59
11.995,231,-5.2092,-7.1881,-17.0156,-1.5566,-0.0496,-0.6588,91,11.867,229,-3.3985,10.7856,-12.6412,-0.2974,0.1406,0.121,87,13155.718,254372,5.5297,-5.5439,-6.7151,-0.3676,0.2731,-0.8594,59
12.046,232,-5.8944,-4.8556,-17.547,-0.4617,0.4179,0.1958,91,11.919,230,-3.3949,10.5399,-12.36,-0.4852,-0.1039,-0.0899,87,13155.769,254373,5.5448,-5.4702,-6.7915,-0.6462,0.4498,-0.5952,59
12.098,233,-6.5507,-3.2161,-18.1745,0.3374,0.623,0.6138,91,11.971,231,-3.468,10.8447,-12.11,-0.7099,-0.0634,-0.3156,87,13155.821,254374,6.3031,-4.8561,-7.5233,-0.8344,0.6165,-0.3232,59
